sub	sess	t	rew	loc	cue	co1	co2	or	resp	rt	rew_tot	left_col	right_col
76	1	1	9	2	3	0.0583	0.0663	0	1	0.523	0	82	82
76	1	2	9	1	3	0.0583	0.0663	0	1	1.051	0	0	0
76	1	3	9	2	2	0.0583	0.0663	1	1	0.576	0	0	82
76	1	4	0	2	2	0.0583	0.0663	1	1	0.516	8	0	82
76	1	5	1	1	3	0.0583	0.0663	1	1	0.588	76	0	82
76	1	6	0	2	2	0.0583	0.0663	0	1	0.391	10	82	82
76	1	7	0	2	3	0.0583	0.0663	0	0	0.733	0	82	82
76	1	8	0	2	2	0.0583	0.0663	0	1	0.458	9	82	82
76	1	9	9	1	3	0.0583	0.0663	0	1	0.490	0	0	0
76	1	10	0	2	3	0.0583	0.0663	0	1	0.450	9	82	82
76	1	11	0	1	1	0.0583	0.0663	0	1	0.478	9	82	82
76	1	12	9	2	3	0.0583	0.0663	1	1	0.458	0	0	82
76	1	13	0	2	3	0.0583	0.0663	0	1	0.459	9	82	82
76	1	14	1	2	3	0.0583	0.0663	0	1	0.534	82	0	0
76	1	15	1	1	3	0.0583	0.0663	0	0	0.457	0	0	0
76	1	16	0	2	2	0.0583	0.0663	1	1	0.660	7	0	82
76	1	17	1	2	2	0.0583	0.0663	0	1	0.425	93	0	0
76	1	18	1	1	3	0.0583	0.0663	1	1	0.662	69	0	82
76	1	19	9	2	2	0.0583	0.0663	0	1	0.417	0	0	0
76	1	20	0	1	2	0.0583	0.0663	0	1	0.601	7	82	82
76	1	21	0	1	3	0.0583	0.0663	1	1	0.461	9	82	0
76	1	22	1	2	2	0.0583	0.0663	0	1	0.389	96	0	0
76	1	23	0	1	3	0.0583	0.0663	1	1	0.403	9	82	0
76	1	24	0	2	2	0.0583	0.0663	1	1	0.762	6	0	82
76	1	25	0	2	3	0.0583	0.0663	0	1	0.348	10	82	82
76	1	26	1	2	2	0.0583	0.0663	1	1	0.625	72	82	0
76	1	27	0	2	2	0.0583	0.0663	1	1	0.451	9	0	82
76	1	28	0	1	2	0.0583	0.0663	1	1	0.730	6	82	0
76	1	29	1	1	3	0.0583	0.0663	1	0	0.527	0	0	82
76	1	30	1	2	1	0.0583	0.0663	0	1	0.485	87	0	0
76	1	31	0	2	1	0.0583	0.0663	0	1	0.599	8	82	82
76	1	32	1	2	3	0.0583	0.0663	0	1	0.428	92	0	0
76	1	33	1	1	1	0.0583	0.0663	1	1	0.875	50	0	82
76	1	34	1	2	2	0.0583	0.0663	1	1	0.507	84	82	0
76	1	35	9	1	1	0.0583	0.0663	1	1	0.534	0	0	82
76	1	36	0	1	1	0.0583	0.0663	1	1	0.455	9	82	0
76	1	37	1	1	3	0.0583	0.0663	0	1	0.523	83	0	0
76	1	38	9	2	1	0.0583	0.0663	1	1	0.808	0	82	0
76	1	39	1	2	2	0.0583	0.0663	1	1	1.149	50	82	0
76	1	40	1	2	3	0.0583	0.0663	0	1	0.662	69	0	0
76	1	41	0	2	2	0.0583	0.0663	1	1	0.504	8	0	82
76	1	42	1	2	3	0.0583	0.0663	0	1	0.395	95	0	0
76	1	43	0	2	1	0.0583	0.0663	0	1	0.535	8	82	82
76	1	44	1	1	1	0.0583	0.0663	1	1	0.441	91	0	82
76	1	45	1	2	3	0.0583	0.0663	1	0	0.700	0	82	0
76	1	46	9	1	1	0.0583	0.0663	0	1	0.526	0	0	0
76	1	47	9	2	3	0.0583	0.0663	1	0	0.402	0	0	82
76	1	48	0	1	1	0.0583	0.0663	0	1	0.527	8	82	82
76	1	49	0	2	3	0.0583	0.0663	1	0	1.657	0	0	82
76	1	50	0	1	3	0.0583	0.0663	1	1	1.246	5	82	0
76	1	51	0	1	1	0.0583	0.0663	1	1	0.716	6	82	0
76	1	52	1	1	3	0.0583	0.0663	1	0	0.712	0	0	82
76	1	53	9	1	2	0.0583	0.0663	1	1	1.160	0	0	82
76	1	54	1	2	1	0.0583	0.0663	0	1	0.448	90	0	0
76	1	55	0	2	3	0.0583	0.0663	1	0	0.451	0	0	82
76	1	56	1	2	2	0.0583	0.0663	1	1	0.896	50	82	0
76	1	57	0	1	2	0.0583	0.0663	0	1	0.655	7	82	82
76	1	58	0	1	1	0.0583	0.0663	1	0	1.081	0	82	0
76	1	59	0	1	1	0.0583	0.0663	1	1	0.501	8	82	0
76	1	60	0	1	3	0.0583	0.0663	0	1	1.756	5	82	82
76	1	61	0	2	2	0.0583	0.0663	0	1	0.432	9	82	82
76	1	62	0	1	3	0.0583	0.0663	0	1	0.472	9	82	82
76	1	63	1	2	2	0.0583	0.0663	0	1	0.429	92	0	0
76	1	64	0	1	3	0.0583	0.0663	1	1	0.560	8	82	0
76	1	65	9	1	2	0.0583	0.0663	0	1	0.486	0	0	0
76	1	66	9	2	2	0.0583	0.0663	0	1	0.428	0	0	0
76	1	67	0	2	3	0.0583	0.0663	1	1	1.336	5	0	82
76	1	68	0	2	2	0.0583	0.0663	0	1	0.438	9	82	82
76	1	69	9	1	1	0.0583	0.0663	1	0	0.724	0	0	82
76	1	70	1	1	1	0.0583	0.0663	0	1	0.583	77	0	0
76	1	71	9	2	2	0.0583	0.0663	1	1	0.834	0	0	82
76	1	72	1	1	3	0.0583	0.0663	1	1	0.882	50	0	82
76	1	73	9	1	3	0.0583	0.0663	0	1	0.554	0	82	82
76	1	74	9	2	2	0.0583	0.0663	0	1	0.814	0	82	82
76	1	75	1	1	1	0.0583	0.0663	0	1	0.675	68	0	0
76	1	76	1	2	2	0.0583	0.0663	1	1	0.527	82	82	0
76	1	77	0	2	3	0.0583	0.0663	0	1	0.459	9	82	82
76	1	78	0	1	2	0.0583	0.0663	0	1	0.779	6	82	82
76	1	79	1	2	2	0.0583	0.0663	1	1	0.755	59	82	0
76	1	80	1	1	3	0.0583	0.0663	1	0	0.346	0	0	82
76	1	81	0	2	3	0.0583	0.0663	0	1	2.461	5	82	82
76	1	82	9	1	1	0.0583	0.0663	1	1	0.510	0	82	0
76	1	83	1	1	1	0.0583	0.0663	0	1	0.530	82	0	0
76	1	84	1	1	2	0.0583	0.0663	0	1	0.367	98	0	0
76	1	85	9	1	3	0.0583	0.0663	0	1	0.521	0	0	0
76	1	86	0	1	1	0.0583	0.0663	1	1	0.480	9	82	0
76	1	87	9	2	3	0.0583	0.0663	1	0	0.616	0	82	0
76	1	88	9	1	3	0.0583	0.0663	1	1	0.478	0	0	82
76	1	89	0	2	2	0.0583	0.0663	1	1	0.794	6	0	82
76	1	90	9	2	3	0.0583	0.0663	0	1	0.412	0	0	0
76	1	91	0	1	1	0.0583	0.0663	1	1	0.581	8	82	0
76	1	92	0	2	1	0.0583	0.0663	1	1	0.661	7	0	82
76	1	93	0	2	3	0.0583	0.0663	0	1	0.566	8	82	82
76	1	94	0	2	2	0.0583	0.0663	0	1	0.476	9	82	82
76	1	95	0	1	1	0.0583	0.0663	0	1	0.690	7	82	82
76	1	96	0	1	1	0.0583	0.0663	1	1	0.613	7	82	0
76	1	97	1	1	1	0.0583	0.0663	1	1	0.728	62	0	82
76	1	98	1	2	3	0.0583	0.0663	1	1	0.439	91	82	0
76	1	99	0	2	2	0.0583	0.0663	0	1	0.408	9	82	82
76	1	100	1	1	2	0.0583	0.0663	0	1	0.556	79	0	0
76	1	101	1	2	3	0.0583	0.0663	0	1	0.396	95	0	0
76	1	102	1	1	1	0.0583	0.0663	1	1	0.437	91	0	82
76	1	103	0	1	3	0.0583	0.0663	1	1	0.477	9	82	0
76	1	104	1	1	1	0.0583	0.0663	0	1	0.530	82	0	0
76	1	105	0	1	1	0.0583	0.0663	0	1	0.434	9	82	82
76	1	106	1	2	3	0.0583	0.0663	0	1	0.484	87	0	0
76	1	107	9	2	3	0.0583	0.0663	1	0	0.599	0	0	82
76	1	108	1	2	2	0.0583	0.0663	0	1	0.744	61	0	0
76	1	109	0	2	3	0.0583	0.0663	0	1	0.490	9	82	82
76	1	110	1	2	2	0.0583	0.0663	0	1	0.381	97	0	0
76	1	111	1	2	2	0.0583	0.0663	1	1	0.463	89	82	0
76	1	112	9	1	3	0.0583	0.0663	1	1	0.601	0	82	0
76	1	113	9	1	1	0.0583	0.0663	0	1	0.546	0	0	0
76	1	114	1	2	3	0.0583	0.0663	0	1	0.703	65	0	0
76	1	115	1	1	3	0.0583	0.0663	1	0	1.975	0	0	82
76	1	116	0	1	3	0.0583	0.0663	1	1	0.475	9	82	0
76	1	117	0	1	3	0.0583	0.0663	0	1	0.524	8	82	82
76	1	118	9	2	2	0.0583	0.0663	1	1	0.700	0	0	82
76	1	119	9	1	1	0.0583	0.0663	1	1	0.686	0	0	82
76	1	120	1	1	3	0.0583	0.0663	1	1	0.574	78	0	82
76	1	121	9	1	1	0.0583	0.0663	1	1	0.728	0	82	0
76	1	122	0	2	2	0.0583	0.0663	0	1	0.442	9	82	82
76	1	123	1	2	3	0.0583	0.0663	1	1	0.556	79	82	0
76	1	124	0	1	1	0.0583	0.0663	1	1	0.515	8	82	0
76	1	125	9	2	3	0.0583	0.0663	0	1	0.476	0	82	82
76	1	126	1	1	3	0.0583	0.0663	1	1	0.494	86	0	82
76	1	127	0	2	3	0.0583	0.0663	1	1	0.745	6	0	82
76	1	128	1	2	3	0.0583	0.0663	0	1	0.463	89	0	0
76	1	129	9	1	2	0.0583	0.0663	1	1	0.475	0	82	0
76	1	130	9	1	3	0.0583	0.0663	0	1	0.805	0	0	0
76	1	131	1	1	1	0.0583	0.0663	1	1	0.724	63	0	82
76	1	132	1	2	3	0.0583	0.0663	1	1	0.527	82	82	0
76	1	133	9	1	3	0.0583	0.0663	1	1	0.398	0	82	0
76	1	134	9	1	1	0.0583	0.0663	0	1	1.209	0	82	82
76	1	135	1	1	1	0.0583	0.0663	0	1	2.539	50	0	0
76	1	136	0	1	1	0.0583	0.0663	0	1	0.573	8	82	82
76	1	137	1	1	3	0.0583	0.0663	0	1	0.380	97	0	0
76	1	138	0	1	3	0.0583	0.0663	1	1	0.392	10	82	0
76	1	139	0	1	3	0.0583	0.0663	1	1	0.469	9	82	0
76	1	140	1	2	2	0.0583	0.0663	0	1	0.375	97	0	0
76	1	141	0	1	3	0.0583	0.0663	0	1	2.130	5	82	82
76	1	142	1	1	1	0.0583	0.0663	1	1	0.476	87	0	82
76	1	143	1	2	2	0.0583	0.0663	0	1	0.264	100	0	0
76	1	144	0	2	3	0.0583	0.0663	0	1	0.278	10	82	82
76	1	145	0	1	3	0.0583	0.0663	1	0	0.359	0	82	0
76	1	146	1	2	2	0.0583	0.0663	0	1	0.353	100	0	0
76	1	147	9	2	3	0.0583	0.0663	0	1	0.399	0	82	82
76	1	148	1	1	1	0.0583	0.0663	0	1	0.361	99	0	0
76	1	149	0	2	1	0.0583	0.0663	1	0	0.478	0	0	82
76	1	150	9	2	3	0.0583	0.0663	0	1	0.406	0	82	82
76	1	151	9	1	1	0.0583	0.0663	0	1	0.532	0	82	82
76	1	152	0	2	3	0.0583	0.0663	0	1	0.544	8	82	82
76	1	153	1	1	3	0.0583	0.0663	0	1	0.392	96	0	0
76	1	154	1	1	3	0.0583	0.0663	0	1	0.419	93	0	0
76	1	155	1	1	1	0.0583	0.0663	1	0	0.489	0	0	82
76	1	156	0	1	3	0.0583	0.0663	0	1	0.393	10	82	82
76	1	157	1	2	3	0.0583	0.0663	1	1	0.574	78	82	0
76	1	158	9	1	1	0.0583	0.0663	0	0	0.413	0	0	0
76	1	159	9	2	2	0.0583	0.0663	0	0	1.014	0	82	82
76	1	160	9	1	3	0.0583	0.0663	1	1	0.546	0	82	0
76	1	161	0	2	2	0.0583	0.0663	0	1	0.455	9	82	82
76	1	162	9	2	2	0.0583	0.0663	1	1	0.388	0	82	0
76	1	163	9	1	3	0.0583	0.0663	0	1	0.461	0	82	82
76	1	164	1	2	3	0.0583	0.0663	1	1	0.444	91	82	0
76	1	165	1	2	2	0.0583	0.0663	1	0	0.297	0	82	0
76	1	166	1	2	2	0.0583	0.0663	1	1	0.424	93	82	0
76	1	167	9	1	1	0.0583	0.0663	0	1	0.577	0	82	82
76	1	168	9	1	2	0.0583	0.0663	0	1	0.607	0	82	82
76	1	169	1	2	1	0.0583	0.0663	1	1	0.490	86	82	0
76	1	170	9	2	3	0.0583	0.0663	0	1	0.408	0	0	0
76	1	171	1	2	3	0.0583	0.0663	0	1	0.389	96	0	0
76	1	172	1	2	1	0.0583	0.0663	0	1	0.372	98	0	0
76	1	173	0	1	3	0.0583	0.0663	0	1	0.620	7	82	82
76	1	174	9	2	2	0.0583	0.0663	0	1	0.311	0	0	0
76	1	175	0	1	1	0.0583	0.0663	1	0	0.479	0	82	0
76	1	176	0	1	1	0.0583	0.0663	1	1	0.484	9	82	0
76	1	177	9	1	3	0.0583	0.0663	1	0	0.584	0	0	82
76	1	178	0	2	2	0.0583	0.0663	0	1	0.511	8	82	82
76	1	179	0	2	3	0.0583	0.0663	1	1	0.849	5	0	82
76	1	180	1	1	3	0.0583	0.0663	1	1	1.177	50	0	82
76	1	181	0	1	3	0.0583	0.0663	0	1	0.435	9	82	82
76	1	182	1	2	2	0.0583	0.0663	1	1	0.394	96	82	0
76	1	183	1	2	3	0.0583	0.0663	1	1	0.451	90	82	0
76	1	184	1	2	3	0.0583	0.0663	1	0	0.472	0	82	0
76	1	185	9	2	2	0.0583	0.0663	0	1	0.410	0	0	0
76	1	186	9	1	1	0.0583	0.0663	0	0	0.484	0	82	82
76	1	187	1	1	1	0.0583	0.0663	1	0	1.602	0	0	82
76	1	188	1	2	1	0.0583	0.0663	0	1	0.426	92	0	0
76	1	189	0	2	2	0.0583	0.0663	0	1	0.437	9	82	82
76	1	190	1	1	3	0.0583	0.0663	0	0	0.438	0	0	0
76	1	191	0	2	1	0.0583	0.0663	0	1	0.437	9	82	82
76	1	192	9	1	1	0.0583	0.0663	1	1	0.692	0	0	82
76	1	193	0	2	3	0.0583	0.0663	1	1	2.664	5	0	82
76	1	194	1	2	3	0.0583	0.0663	0	1	0.345	100	0	0
76	1	195	1	2	1	0.0583	0.0663	1	0	0.534	0	82	0
76	1	196	1	1	3	0.0583	0.0663	0	1	0.437	91	0	0
76	1	197	0	2	2	0.0583	0.0663	0	1	0.530	8	82	82
76	1	198	9	2	3	0.0583	0.0663	1	1	1.209	0	0	82
76	1	199	0	2	2	0.0583	0.0663	1	1	0.569	8	0	82
76	1	200	0	2	3	0.0583	0.0663	1	1	0.737	6	0	82
76	1	201	0	2	1	0.0583	0.0663	1	1	0.556	8	0	82
76	1	202	1	1	3	0.0583	0.0663	1	1	0.777	57	0	82
76	1	203	0	2	2	0.0583	0.0663	1	0	0.449	0	0	82
76	1	204	1	1	1	0.0583	0.0663	0	1	0.527	82	0	0
76	1	205	0	1	1	0.0583	0.0663	0	1	0.462	9	82	82
76	1	206	1	2	3	0.0583	0.0663	0	1	0.823	53	0	0
76	1	207	1	1	3	0.0583	0.0663	1	0	0.513	0	0	82
76	1	208	0	1	3	0.0583	0.0663	0	1	0.468	9	82	82
76	1	209	9	2	3	0.0583	0.0663	0	1	0.600	0	0	0
76	1	210	0	2	3	0.0583	0.0663	1	1	0.725	6	0	82
76	1	211	9	1	3	0.0583	0.0663	0	1	0.481	0	82	82
76	1	212	0	2	3	0.0583	0.0663	1	1	0.859	5	0	82
76	1	213	0	1	1	0.0583	0.0663	0	1	0.514	8	82	82
76	1	214	0	1	1	0.0583	0.0663	1	1	0.648	7	82	0
76	1	215	9	1	3	0.0583	0.0663	0	0	0.825	0	82	82
76	1	216	0	1	1	0.0583	0.0663	0	0	0.781	0	82	82
76	1	217	0	2	3	0.0583	0.0663	1	1	0.509	8	0	82
76	1	218	0	2	2	0.0583	0.0663	1	1	0.536	8	0	82
76	1	219	9	1	3	0.0583	0.0663	1	1	0.551	0	0	82
76	1	220	1	1	1	0.0583	0.0663	0	1	0.542	81	0	0
76	1	221	0	2	3	0.0583	0.0663	1	1	0.662	7	0	82
76	1	222	1	2	2	0.0583	0.0663	1	1	0.512	84	82	0
76	1	223	1	1	3	0.0583	0.0663	0	0	1.182	0	0	0
76	1	224	0	1	1	0.0583	0.0663	1	1	1.398	5	82	0
76	1	225	1	1	1	0.0583	0.0663	1	1	3.716	50	0	82
76	1	226	0	1	3	0.0583	0.0663	1	0	0.651	0	82	0
76	1	227	0	1	1	0.0583	0.0663	1	1	0.148	10	82	0
76	1	228	0	2	2	0.0583	0.0663	0	1	0.343	10	82	82
76	1	229	1	2	2	0.0583	0.0663	0	1	0.394	96	0	0
76	1	230	0	1	1	0.0583	0.0663	1	1	0.382	10	82	0
76	1	231	0	1	3	0.0583	0.0663	0	1	0.520	8	82	82
76	1	232	0	1	3	0.0583	0.0663	0	1	0.523	8	82	82
76	1	233	0	2	3	0.0583	0.0663	0	1	0.459	9	82	82
76	1	234	1	1	1	0.0583	0.0663	1	1	0.549	80	0	82
76	1	235	1	2	3	0.0583	0.0663	0	1	0.481	87	0	0
76	1	236	1	2	2	0.0583	0.0663	0	1	0.417	93	0	0
76	1	237	0	1	1	0.0583	0.0663	0	1	0.625	7	82	82
76	1	238	9	2	2	0.0583	0.0663	1	1	0.443	0	82	0
76	1	239	0	2	2	0.0583	0.0663	1	1	0.608	7	0	82
76	1	240	9	1	1	0.0583	0.0663	0	1	0.537	0	0	0
76	1	241	1	2	3	0.0583	0.0663	1	0	0.358	0	82	0
76	1	242	1	2	3	0.0583	0.0663	1	1	0.424	93	82	0
76	1	243	0	1	3	0.0583	0.0663	0	1	0.362	10	82	82
76	1	244	0	2	2	0.0583	0.0663	1	1	0.506	8	0	82
76	1	245	0	2	2	0.0583	0.0663	1	0	0.984	0	0	82
76	1	246	0	1	3	0.0583	0.0663	1	1	0.505	8	82	0
76	1	247	9	1	1	0.0583	0.0663	1	1	0.407	0	82	0
76	1	248	0	1	3	0.0583	0.0663	0	1	0.515	8	82	82
76	1	249	1	1	2	0.0583	0.0663	1	1	0.457	89	0	82
76	1	250	1	1	1	0.0583	0.0663	1	1	0.344	100	0	82
76	1	251	1	2	3	0.0583	0.0663	1	0	0.999	0	82	0
76	1	252	0	1	3	0.0583	0.0663	0	0	2.170	0	82	82
76	1	253	1	1	2	0.0583	0.0663	1	0	0.727	0	0	82
76	1	254	1	1	3	0.0583	0.0663	0	1	0.603	75	0	0
76	1	255	0	2	2	0.0583	0.0663	1	1	0.795	6	0	82
76	1	256	9	2	2	0.0583	0.0663	1	1	0.526	0	82	0
76	1	257	9	2	2	0.0583	0.0663	1	0	0.977	0	82	0
76	1	258	0	2	2	0.0583	0.0663	1	0	0.659	0	0	82
76	1	259	0	2	2	0.0583	0.0663	0	1	0.693	7	82	82
76	1	260	0	1	1	0.0583	0.0663	0	1	0.967	5	82	82
76	1	261	1	2	2	0.0583	0.0663	0	1	0.434	92	0	0
76	1	262	1	1	1	0.0583	0.0663	1	1	0.425	92	0	82
76	1	263	0	2	3	0.0583	0.0663	1	1	0.794	6	0	82
76	1	264	0	2	3	0.0583	0.0663	1	0	0.630	0	0	82
76	1	265	1	1	3	0.0583	0.0663	0	0	0.500	0	0	0
76	1	266	0	1	1	0.0583	0.0663	1	1	0.814	5	82	0
76	1	267	1	2	3	0.0583	0.0663	0	1	0.516	83	0	0
76	1	268	1	1	1	0.0583	0.0663	0	1	0.568	78	0	0
76	1	269	1	2	3	0.0583	0.0663	1	1	0.644	71	82	0
76	1	270	1	1	3	0.0583	0.0663	0	1	0.746	60	0	0
76	1	271	1	2	3	0.0583	0.0663	1	1	0.863	50	82	0
76	1	272	0	2	2	0.0583	0.0663	0	1	0.549	8	82	82
76	1	273	1	2	2	0.0583	0.0663	1	1	0.464	89	82	0
76	1	274	0	1	2	0.0583	0.0663	0	1	0.595	8	82	82
76	1	275	9	2	2	0.0583	0.0663	0	1	0.608	0	82	82
76	1	276	1	1	3	0.0583	0.0663	0	1	0.723	63	0	0
76	1	277	0	1	3	0.0583	0.0663	1	1	0.807	5	82	0
76	1	278	1	1	1	0.0583	0.0663	1	1	3.505	50	0	82
76	1	279	1	2	2	0.0583	0.0663	1	0	0.665	0	82	0
76	1	280	9	1	1	0.0583	0.0663	1	0	0.734	0	82	0
76	1	281	1	1	2	0.0583	0.0663	0	1	0.687	66	0	0
76	1	282	0	2	3	0.0583	0.0663	0	1	0.354	10	82	82
76	1	283	1	1	3	0.0583	0.0663	1	1	0.481	87	0	82
76	1	284	0	1	2	0.0583	0.0663	1	1	0.700	7	82	0
76	1	285	9	1	3	0.0583	0.0663	1	1	1.248	0	0	82
76	1	286	1	1	2	0.0583	0.0663	1	0	1.426	0	0	82
76	1	287	1	1	3	0.0583	0.0663	1	1	0.519	83	0	82
76	1	288	0	1	1	0.0583	0.0663	0	1	0.512	8	82	82
76	1	289	0	1	1	0.0583	0.0663	0	1	0.632	7	82	82
76	1	290	0	1	2	0.0583	0.0663	1	0	2.666	0	82	0
76	1	291	9	2	1	0.0583	0.0663	0	1	0.518	0	0	0
76	1	292	0	1	3	0.0583	0.0663	1	0	0.790	0	82	0
76	1	293	1	2	3	0.0583	0.0663	0	1	0.447	90	0	0
76	1	294	1	2	1	0.0583	0.0663	1	0	0.379	0	82	0
76	1	295	1	2	3	0.0583	0.0663	0	1	0.415	93	0	0
76	1	296	0	2	1	0.0583	0.0663	0	1	0.465	9	82	82
76	1	297	1	2	2	0.0583	0.0663	1	1	0.414	94	82	0
76	1	298	1	1	3	0.0583	0.0663	1	1	0.672	68	0	82
76	1	299	0	2	3	0.0583	0.0663	0	0	0.790	0	82	82
76	1	300	0	1	3	0.0583	0.0663	1	1	0.613	7	82	0
76	1	301	9	2	3	0.0583	0.0663	1	1	0.625	0	82	0
76	1	302	0	2	2	0.0583	0.0663	1	1	0.541	8	0	82
76	1	303	0	1	3	0.0583	0.0663	0	1	0.500	9	82	82
76	1	304	0	1	1	0.0583	0.0663	0	1	0.595	8	82	82
76	1	305	1	1	3	0.0583	0.0663	0	1	0.469	88	0	0
76	1	306	9	2	3	0.0583	0.0663	1	1	0.588	0	82	0
76	1	307	1	1	1	0.0583	0.0663	1	1	0.700	65	0	82
76	1	308	0	2	1	0.0583	0.0663	1	0	0.495	0	0	82
76	1	309	1	2	1	0.0583	0.0663	1	1	0.563	79	82	0
76	1	310	9	2	2	0.0583	0.0663	0	1	0.256	0	82	82
76	1	311	0	2	3	0.0583	0.0663	1	1	1.486	5	0	82
76	1	312	1	1	3	0.0583	0.0663	1	1	0.500	85	0	82
76	1	313	0	1	3	0.0583	0.0663	0	0	0.678	0	82	82
76	1	314	1	2	2	0.0583	0.0663	0	1	0.387	96	0	0
76	1	315	1	1	1	0.0583	0.0663	0	1	0.574	78	0	0
76	1	316	1	1	1	0.0583	0.0663	0	0	0.421	0	0	0
76	1	317	0	1	3	0.0583	0.0663	0	1	0.496	9	82	82
76	1	318	0	2	3	0.0583	0.0663	1	0	0.347	0	0	82
76	1	319	1	1	1	0.0583	0.0663	1	0	1.059	0	0	82
76	1	320	9	2	3	0.0583	0.0663	1	1	0.833	0	82	0
76	1	321	1	1	1	0.0583	0.0663	0	1	0.470	88	0	0
76	1	322	1	2	2	0.0583	0.0663	1	1	0.498	85	82	0
76	1	323	0	1	1	0.0583	0.0663	0	1	0.397	10	82	82
76	1	324	0	2	3	0.0583	0.0663	0	1	0.410	9	82	82
76	1	325	0	1	1	0.0583	0.0663	0	1	0.649	7	82	82
76	1	326	1	1	3	0.0583	0.0663	0	1	0.458	89	0	0
76	1	327	9	1	3	0.0583	0.0663	1	1	0.627	0	82	0
76	1	328	9	2	1	0.0583	0.0663	0	1	0.975	0	82	82
76	1	329	0	2	2	0.0583	0.0663	0	1	0.348	10	82	82
76	1	330	1	1	3	0.0583	0.0663	0	0	0.496	0	0	0
76	1	331	1	1	1	0.0583	0.0663	0	1	0.574	78	0	0
76	1	332	0	1	1	0.0583	0.0663	1	0	2.098	0	82	0
76	1	333	1	1	2	0.0583	0.0663	1	1	0.574	78	0	82
76	1	334	1	2	2	0.0583	0.0663	0	1	0.433	92	0	0
76	1	335	1	1	1	0.0583	0.0663	1	1	0.436	91	0	82
76	1	336	1	1	1	0.0583	0.0663	0	1	2.250	50	0	0
76	1	337	0	2	2	0.0583	0.0663	0	1	0.672	7	82	82
76	1	338	0	2	3	0.0583	0.0663	1	1	0.998	5	0	82
76	1	339	1	2	2	0.0583	0.0663	1	1	1.775	50	82	0
76	1	340	1	2	2	0.0583	0.0663	0	1	0.475	87	0	0
76	1	341	1	1	2	0.0583	0.0663	0	1	0.414	94	0	0
76	1	342	0	2	3	0.0583	0.0663	0	1	0.435	9	82	82
76	1	343	0	2	3	0.0583	0.0663	0	1	0.397	10	82	82
76	1	344	1	2	3	0.0583	0.0663	1	1	0.771	58	82	0
76	1	345	0	1	2	0.0583	0.0663	1	0	0.649	0	82	0
76	1	346	0	1	3	0.0583	0.0663	1	1	0.593	8	82	0
76	1	347	1	2	2	0.0583	0.0663	0	1	0.367	98	0	0
76	1	348	9	2	1	0.0583	0.0663	1	0	0.698	0	0	82
76	1	349	9	2	3	0.0583	0.0663	0	1	0.471	0	0	0
76	1	350	0	2	2	0.0583	0.0663	1	1	0.544	8	0	82
76	1	351	0	1	1	0.0583	0.0663	0	0	0.830	0	82	82
76	1	352	0	1	3	0.0583	0.0663	1	1	0.657	7	82	0
76	1	353	1	1	1	0.0583	0.0663	0	0	2.577	0	0	0
76	1	354	1	1	1	0.0583	0.0663	0	1	0.607	74	0	0
76	1	355	1	2	2	0.0583	0.0663	0	1	0.826	52	0	0
76	1	356	9	2	2	0.0583	0.0663	1	1	0.662	0	0	82
76	1	357	1	2	3	0.0583	0.0663	0	1	0.019	100	0	0
76	1	358	1	1	3	0.0583	0.0663	0	1	0.669	68	0	0
76	1	359	1	2	3	0.0583	0.0663	1	1	1.092	50	82	0
76	1	360	1	2	3	0.0583	0.0663	1	0	-0.002	0	82	0
76	1	361	0	2	2	0.0583	0.0663	0	1	0.488	9	82	82
76	1	362	1	2	1	0.0583	0.0663	0	1	0.387	96	0	0
76	1	363	9	1	1	0.0583	0.0663	1	1	0.455	0	0	82
76	1	364	0	1	3	0.0583	0.0663	0	1	0.532	8	82	82
76	1	365	1	1	1	0.0583	0.0663	0	1	0.740	61	0	0
76	1	366	1	1	3	0.0583	0.0663	0	1	1.313	50	0	0
76	1	367	1	1	2	0.0583	0.0663	0	1	0.503	85	0	0
76	1	368	9	1	1	0.0583	0.0663	1	0	0.957	0	0	82
76	1	369	1	1	1	0.0583	0.0663	1	1	1.977	50	0	82
76	1	370	9	1	1	0.0583	0.0663	1	0	0.601	0	82	0
76	1	371	1	1	3	0.0583	0.0663	0	1	0.499	85	0	0
76	1	372	1	2	1	0.0583	0.0663	1	1	0.646	70	82	0
76	1	373	1	2	3	0.0583	0.0663	0	1	0.554	80	0	0
76	1	374	0	1	3	0.0583	0.0663	0	0	0.481	0	82	82
76	1	375	0	1	2	0.0583	0.0663	1	1	0.626	7	82	0
76	1	376	9	2	2	0.0583	0.0663	1	0	0.478	0	82	0
76	1	377	9	2	2	0.0583	0.0663	1	1	2.063	0	82	0
76	1	378	0	1	1	0.0583	0.0663	1	1	0.840	5	82	0
76	1	379	9	1	1	0.0583	0.0663	0	1	0.708	0	0	0
76	1	380	0	1	1	0.0583	0.0663	1	1	1.756	5	82	0
76	1	381	9	2	2	0.0583	0.0663	0	1	0.428	0	82	82
76	1	382	1	1	1	0.0583	0.0663	1	1	0.415	93	0	82
76	1	383	1	2	3	0.0583	0.0663	1	1	0.598	75	82	0
76	1	384	0	2	2	0.0583	0.0663	1	1	0.445	9	0	82
76	1	385	0	1	1	0.0583	0.0663	0	1	0.641	7	82	82
76	1	386	0	1	3	0.0583	0.0663	0	1	1.729	5	82	82
76	1	387	1	2	3	0.0583	0.0663	0	1	3.855	50	0	0
76	1	388	1	2	2	0.0583	0.0663	0	1	0.544	81	0	0
76	1	389	9	1	2	0.0583	0.0663	1	1	0.467	0	0	82
76	1	390	9	2	3	0.0583	0.0663	0	1	1.737	0	0	0
76	1	391	9	2	2	0.0583	0.0663	1	1	0.515	0	82	0
76	1	392	9	1	1	0.0583	0.0663	1	1	0.473	0	82	0
76	1	393	9	1	3	0.0583	0.0663	1	1	0.597	0	82	0
76	1	394	1	1	3	0.0583	0.0663	1	1	0.473	88	0	82
76	1	395	0	1	1	0.0583	0.0663	0	1	0.535	8	82	82
76	1	396	0	2	1	0.0583	0.0663	0	0	0.418	0	82	82
76	1	397	0	2	2	0.0583	0.0663	0	1	0.541	8	82	82
76	1	398	9	2	2	0.0583	0.0663	1	1	0.502	0	0	82
76	1	399	1	2	1	0.0583	0.0663	1	1	0.458	89	82	0
76	1	400	1	2	2	0.0583	0.0663	1	1	1.254	50	82	0
76	1	401	1	2	2	0.0583	0.0663	0	1	0.424	93	0	0
76	1	402	0	2	3	0.0583	0.0663	1	1	0.537	8	0	82
76	1	403	0	1	3	0.0583	0.0663	0	1	0.543	8	82	82
76	1	404	0	2	3	0.0583	0.0663	1	1	0.614	7	0	82
76	1	405	0	2	1	0.0583	0.0663	0	1	0.545	8	82	82
76	1	406	0	2	3	0.0583	0.0663	0	1	0.738	6	82	82
76	1	407	0	2	3	0.0583	0.0663	1	1	0.362	10	0	82
76	1	408	1	1	1	0.0583	0.0663	1	1	0.319	100	0	82
76	1	409	1	2	2	0.0583	0.0663	0	1	1.143	50	0	0
76	1	410	0	1	3	0.0583	0.0663	0	1	0.562	8	82	82
76	1	411	1	2	2	0.0583	0.0663	0	1	0.432	92	0	0
76	1	412	1	2	3	0.0583	0.0663	0	1	0.398	95	0	0
76	1	413	1	1	1	0.0583	0.0663	0	1	0.536	81	0	0
76	1	414	1	2	3	0.0583	0.0663	1	0	0.673	0	82	0
76	1	415	0	2	2	0.0583	0.0663	0	1	0.379	10	82	82
76	1	416	0	2	3	0.0583	0.0663	0	0	1.005	0	82	82
76	1	417	9	2	1	0.0583	0.0663	0	1	0.650	0	82	82
76	1	418	0	1	2	0.0583	0.0663	1	0	1.436	0	82	0
76	1	419	9	2	3	0.0583	0.0663	1	0	0.977	0	0	82
76	1	420	1	2	3	0.0583	0.0663	1	1	0.552	80	82	0
76	1	421	9	1	3	0.0583	0.0663	1	1	0.679	0	0	82
76	1	422	1	2	3	0.0583	0.0663	0	1	0.443	91	0	0
76	1	423	1	2	2	0.0583	0.0663	0	1	0.761	59	0	0
76	1	424	9	2	2	0.0583	0.0663	0	1	0.565	0	82	82
76	1	425	0	2	3	0.0583	0.0663	0	1	0.545	8	82	82
76	1	426	9	2	3	0.0583	0.0663	0	0	0.993	0	82	82
76	1	427	1	1	3	0.0583	0.0663	0	1	0.643	71	0	0
76	1	428	0	1	1	0.0583	0.0663	1	0	0.067	0	82	0
76	1	429	9	1	2	0.0583	0.0663	1	0	0.685	0	82	0
76	1	430	1	2	2	0.0583	0.0663	0	1	0.861	50	0	0
76	1	431	1	1	2	0.0583	0.0663	0	1	0.879	50	0	0
76	1	432	1	2	1	0.0583	0.0663	0	1	0.403	95	0	0
76	1	433	9	1	3	0.0583	0.0663	1	1	0.558	0	0	82
76	1	434	1	2	3	0.0583	0.0663	1	0	1.509	0	82	0
76	1	435	0	2	3	0.0583	0.0663	0	1	1.121	5	82	82
76	1	436	9	1	1	0.0583	0.0663	1	1	0.706	0	82	0
76	1	437	9	2	2	0.0583	0.0663	0	1	0.554	0	82	82
76	1	438	1	1	1	0.0583	0.0663	0	1	0.558	79	0	0
76	1	439	1	1	3	0.0583	0.0663	1	1	0.770	58	0	82
76	1	440	1	1	3	0.0583	0.0663	1	1	0.449	90	0	82
76	1	441	0	2	3	0.0583	0.0663	1	1	0.704	6	0	82
76	1	442	0	1	1	0.0583	0.0663	1	1	0.482	9	82	0
76	1	443	9	2	3	0.0583	0.0663	1	1	0.535	0	0	82
76	1	444	0	2	3	0.0583	0.0663	0	1	0.795	6	82	82
76	1	445	1	1	3	0.0583	0.0663	0	1	0.544	81	0	0
76	1	446	9	1	1	0.0583	0.0663	1	1	0.491	0	0	82
76	1	447	1	1	2	0.0583	0.0663	0	1	0.578	77	0	0
76	1	448	1	2	1	0.0583	0.0663	1	1	0.813	54	82	0
76	1	449	0	2	1	0.0583	0.0663	1	0	0.487	0	0	82
76	1	450	0	1	1	0.0583	0.0663	1	1	0.393	10	82	0
76	1	451	0	2	3	0.0583	0.0663	0	1	0.433	9	82	82
76	1	452	0	2	2	0.0583	0.0663	1	0	0.271	0	0	82
76	1	453	0	2	2	0.0583	0.0663	1	1	0.969	5	0	82
76	1	454	1	1	3	0.0583	0.0663	1	1	0.906	50	0	82
76	1	455	9	2	3	0.0583	0.0663	0	1	0.301	0	82	82
76	1	456	0	2	2	0.0583	0.0663	1	1	0.523	8	0	82
76	1	457	0	1	1	0.0583	0.0663	0	1	0.689	7	82	82
76	1	458	0	2	3	0.0583	0.0663	1	0	1.076	0	0	82
76	1	459	0	1	1	0.0583	0.0663	0	1	0.486	9	82	82
76	1	460	0	1	1	0.0583	0.0663	0	1	0.667	7	82	82
76	1	461	1	1	1	0.0583	0.0663	1	1	0.446	90	0	82
76	1	462	0	1	3	0.0583	0.0663	1	1	0.450	9	82	0
76	1	463	1	2	3	0.0583	0.0663	1	1	0.627	72	82	0
76	1	464	1	1	1	0.0583	0.0663	0	1	0.468	88	0	0
76	1	465	0	2	2	0.0583	0.0663	0	1	0.432	9	82	82
76	1	466	1	1	1	0.0583	0.0663	1	1	0.495	86	0	82
76	1	467	0	1	2	0.0583	0.0663	0	1	0.398	10	82	82
76	1	468	0	1	1	0.0583	0.0663	0	1	0.504	8	82	82
76	1	469	1	2	3	0.0583	0.0663	0	1	0.510	84	0	0
76	1	470	9	2	2	0.0583	0.0663	1	1	0.798	0	82	0
76	1	471	1	2	3	0.0583	0.0663	1	0	0.657	0	82	0
76	1	472	9	1	1	0.0583	0.0663	0	0	0.899	0	82	82
76	1	473	1	1	1	0.0583	0.0663	0	1	0.639	71	0	0
76	1	474	0	2	2	0.0583	0.0663	0	1	0.460	9	82	82
76	1	475	9	1	3	0.0583	0.0663	0	1	0.682	0	82	82
76	1	476	0	1	3	0.0583	0.0663	1	0	0.514	0	82	0
76	1	477	0	1	3	0.0583	0.0663	1	1	0.627	7	82	0
76	1	478	9	1	1	0.0583	0.0663	0	1	0.686	0	82	82
76	1	479	0	2	3	0.0583	0.0663	1	0	0.581	0	0	82
76	1	480	0	1	3	0.0583	0.0663	0	1	0.427	9	82	82
76	1	481	9	1	1	0.0583	0.0663	0	1	0.921	0	82	82
76	1	482	0	1	3	0.0583	0.0663	1	1	0.562	8	82	0
76	1	483	0	1	2	0.0583	0.0663	0	1	0.426	9	82	82
76	1	484	0	1	3	0.0583	0.0663	0	1	0.292	10	82	82
76	1	485	0	2	2	0.0583	0.0663	1	1	0.676	7	0	82
76	1	486	1	1	1	0.0583	0.0663	1	1	0.484	87	0	82
76	1	487	1	2	1	0.0583	0.0663	0	1	0.600	75	0	0
76	1	488	0	1	3	0.0583	0.0663	1	1	0.444	9	82	0
76	1	489	0	2	1	0.0583	0.0663	0	0	0.369	0	82	82
76	1	490	9	1	1	0.0583	0.0663	0	1	0.441	0	0	0
76	1	491	9	1	3	0.0583	0.0663	1	1	0.533	0	82	0
76	1	492	0	2	3	0.0583	0.0663	0	1	0.517	8	82	82
76	1	493	1	2	2	0.0583	0.0663	1	1	0.597	75	82	0
76	1	494	0	1	1	0.0583	0.0663	1	1	0.763	6	82	0
76	1	495	9	2	1	0.0583	0.0663	1	1	0.647	0	0	82
76	1	496	1	2	3	0.0583	0.0663	0	1	0.467	88	0	0
76	1	497	1	2	3	0.0583	0.0663	0	1	0.427	92	0	0
76	1	498	0	1	1	0.0583	0.0663	0	0	0.301	0	82	82
76	1	499	0	1	3	0.0583	0.0663	0	1	0.398	10	82	82
76	1	500	0	1	1	0.0583	0.0663	0	1	0.480	9	82	82
76	1	501	1	1	1	0.0583	0.0663	1	1	0.513	84	0	82
76	1	502	1	2	2	0.0583	0.0663	0	1	0.390	96	0	0
76	1	503	1	2	2	0.0583	0.0663	1	1	0.466	88	82	0
76	1	504	0	2	3	0.0583	0.0663	0	1	0.381	10	82	82
76	1	505	1	2	2	0.0583	0.0663	0	1	0.442	91	0	0
76	1	506	1	2	2	0.0583	0.0663	1	0	0.729	0	82	0
76	1	507	0	1	1	0.0583	0.0663	1	1	0.756	6	82	0
76	1	508	0	1	1	0.0583	0.0663	1	1	0.789	6	82	0
76	1	509	1	1	1	0.0583	0.0663	0	1	0.496	85	0	0
76	1	510	9	2	3	0.0583	0.0663	1	1	1.078	0	82	0
76	1	511	0	1	3	0.0583	0.0663	1	1	0.702	6	82	0
76	1	512	0	1	1	0.0583	0.0663	0	1	0.508	8	82	82
76	1	513	1	2	3	0.0583	0.0663	1	0	0.956	0	82	0
76	1	514	9	2	3	0.0583	0.0663	0	1	0.447	0	0	0
76	1	515	0	2	2	0.0583	0.0663	0	1	0.391	10	82	82
76	1	516	0	2	3	0.0583	0.0663	1	1	0.615	7	0	82
76	1	517	1	1	3	0.0583	0.0663	1	1	0.397	95	0	82
76	1	518	0	2	3	0.0583	0.0663	1	0	0.376	0	0	82
76	1	519	1	1	1	0.0583	0.0663	1	1	0.371	98	0	82
76	1	520	1	1	3	0.0583	0.0663	0	1	0.552	80	0	0
76	1	521	0	2	3	0.0583	0.0663	1	1	0.672	7	0	82
76	1	522	9	1	3	0.0583	0.0663	0	1	0.429	0	0	0
76	1	523	1	1	1	0.0583	0.0663	0	0	0.474	0	0	0
76	1	524	1	1	3	0.0583	0.0663	0	1	0.466	88	0	0
76	1	525	1	2	2	0.0583	0.0663	1	1	0.640	71	82	0
76	1	526	0	2	3	0.0583	0.0663	0	1	0.548	8	82	82
76	1	527	0	1	3	0.0583	0.0663	1	1	0.516	8	82	0
76	1	528	1	1	3	0.0583	0.0663	1	0	0.629	0	0	82
76	1	529	9	1	3	0.0583	0.0663	0	1	0.496	0	0	0
76	1	530	1	2	2	0.0583	0.0663	0	1	0.409	94	0	0
76	1	531	1	1	3	0.0583	0.0663	1	1	0.645	70	0	82
76	1	532	9	1	3	0.0583	0.0663	1	1	0.794	0	82	0
76	1	533	0	2	3	0.0583	0.0663	1	1	0.868	5	0	82
76	1	534	0	2	2	0.0583	0.0663	1	1	0.801	5	0	82
76	1	535	9	1	3	0.0583	0.0663	0	0	2.297	0	82	82
76	1	536	1	2	2	0.0583	0.0663	1	0	0.848	0	82	0
76	1	537	0	2	3	0.0583	0.0663	0	1	0.357	10	82	82
76	1	538	1	1	2	0.0583	0.0663	1	1	0.481	87	0	82
76	1	539	9	1	1	0.0583	0.0663	0	1	0.405	0	82	82
76	1	540	0	1	3	0.0583	0.0663	0	1	0.313	10	82	82
76	1	541	9	2	2	0.0583	0.0663	0	1	0.434	0	0	0
76	1	542	1	2	3	0.0583	0.0663	0	1	0.439	91	0	0
76	1	543	0	2	2	0.0583	0.0663	0	0	0.366	0	82	82
76	1	544	9	1	1	0.0583	0.0663	1	1	0.378	0	0	82
76	1	545	1	1	1	0.0583	0.0663	1	1	0.428	92	0	82
76	1	546	1	2	3	0.0583	0.0663	0	1	0.355	100	0	0
76	1	547	1	1	3	0.0583	0.0663	0	1	0.408	94	0	0
76	1	548	1	2	2	0.0583	0.0663	1	1	0.478	87	82	0
76	1	549	0	2	3	0.0583	0.0663	0	0	1.043	0	82	82
76	1	550	0	2	2	0.0583	0.0663	1	0	0.828	0	0	82
76	1	551	9	1	1	0.0583	0.0663	1	0	0.830	0	82	0
76	1	552	9	2	2	0.0583	0.0663	0	1	0.301	0	82	82
76	1	553	1	1	3	0.0583	0.0663	1	1	0.600	75	0	82
76	1	554	1	1	3	0.0583	0.0663	1	0	2.270	0	0	82
76	1	555	9	2	3	0.0583	0.0663	1	1	0.565	0	82	0
76	1	556	1	2	3	0.0583	0.0663	1	1	0.464	89	82	0
76	1	557	9	1	1	0.0583	0.0663	0	1	0.602	0	0	0
76	1	558	0	2	3	0.0583	0.0663	0	1	0.373	10	82	82
76	1	559	9	2	3	0.0583	0.0663	0	1	2.585	0	82	82
76	1	560	0	2	2	0.0583	0.0663	1	0	1.492	0	0	82
76	1	561	0	2	2	0.0583	0.0663	0	1	0.469	9	82	82
76	1	562	0	1	1	0.0583	0.0663	1	1	0.403	9	82	0
76	1	563	0	1	1	0.0583	0.0663	1	1	0.479	9	82	0
76	1	564	1	2	3	0.0583	0.0663	1	1	0.447	90	82	0
76	1	565	9	1	3	0.0583	0.0663	0	0	0.674	0	0	0
76	1	566	9	1	3	0.0583	0.0663	0	0	0.592	0	0	0
76	1	567	0	2	2	0.0583	0.0663	1	1	0.547	8	0	82
76	1	568	0	2	2	0.0583	0.0663	1	1	0.795	6	0	82
76	1	569	0	1	2	0.0583	0.0663	1	1	0.723	6	82	0
76	1	570	1	2	2	0.0583	0.0663	0	1	0.369	98	0	0
76	1	571	1	1	1	0.0583	0.0663	0	1	0.484	87	0	0
76	1	572	0	2	3	0.0583	0.0663	0	1	0.462	9	82	82
76	1	573	0	2	3	0.0583	0.0663	1	0	0.548	0	0	82
76	1	574	0	2	3	0.0583	0.0663	0	1	0.481	9	82	82
76	1	575	1	1	2	0.0583	0.0663	1	1	0.407	94	0	82
76	1	576	0	2	2	0.0583	0.0663	0	1	0.454	9	82	82
76	1	577	1	2	2	0.0583	0.0663	1	1	0.744	61	82	0
76	1	578	0	1	2	0.0583	0.0663	1	1	0.684	7	82	0
76	1	579	9	1	3	0.0583	0.0663	1	1	0.446	0	0	82
76	1	580	1	1	1	0.0583	0.0663	0	1	0.438	91	0	0
76	1	581	0	1	1	0.0583	0.0663	0	1	0.464	9	82	82
76	1	582	9	2	2	0.0583	0.0663	0	1	0.266	0	0	0
76	1	583	9	1	1	0.0583	0.0663	0	1	0.481	0	0	0
76	1	584	1	2	3	0.0583	0.0663	0	1	0.765	58	0	0
76	1	585	1	1	1	0.0583	0.0663	1	0	0.410	0	0	82
76	1	586	1	1	2	0.0583	0.0663	1	1	0.627	72	0	82
76	1	587	1	1	3	0.0583	0.0663	1	1	0.544	81	0	82
76	1	588	9	2	1	0.0583	0.0663	0	1	0.634	0	0	0
76	1	589	9	1	2	0.0583	0.0663	0	1	0.610	0	0	0
76	1	590	0	1	1	0.0583	0.0663	0	0	0.506	0	82	82
76	1	591	0	1	3	0.0583	0.0663	0	1	0.361	10	82	82
76	1	592	0	2	2	0.0583	0.0663	1	1	0.410	9	0	82
76	1	593	1	2	2	0.0583	0.0663	0	0	0.740	0	0	0
76	1	594	9	1	3	0.0583	0.0663	0	1	1.109	0	82	82
76	1	595	0	1	3	0.0583	0.0663	1	1	0.529	8	82	0
76	1	596	1	2	3	0.0583	0.0663	1	1	0.744	61	82	0
76	1	597	0	2	2	0.0583	0.0663	1	0	0.757	0	0	82
76	1	598	1	2	2	0.0583	0.0663	1	1	0.774	58	82	0
76	1	599	0	2	2	0.0583	0.0663	0	0	2.200	0	82	82
76	1	600	1	2	3	0.0583	0.0663	0	1	0.203	100	0	0
76	1	601	1	2	3	0.0583	0.0663	1	0	2.827	0	82	0
76	1	602	1	2	2	0.0583	0.0663	0	1	0.364	99	0	0
76	1	603	0	1	1	0.0583	0.0663	0	1	0.400	10	82	82
76	1	604	1	1	1	0.0583	0.0663	1	1	1.141	50	0	82
76	1	605	1	1	1	0.0583	0.0663	1	0	3.296	0	0	82
76	1	606	1	2	3	0.0583	0.0663	0	1	0.508	84	0	0
76	1	607	0	2	2	0.0583	0.0663	1	0	0.421	0	0	82
76	1	608	1	2	3	0.0583	0.0663	0	1	0.389	96	0	0
76	1	609	0	2	3	0.0583	0.0663	1	1	1.721	5	0	82
76	1	610	0	1	1	0.0583	0.0663	1	1	0.478	9	82	0
76	1	611	1	2	2	0.0583	0.0663	0	1	0.395	95	0	0
76	1	612	0	2	1	0.0583	0.0663	1	0	0.427	0	0	82
76	1	613	1	2	2	0.0583	0.0663	1	1	0.472	88	82	0
76	1	614	1	2	2	0.0583	0.0663	0	1	0.354	100	0	0
76	1	615	1	1	3	0.0583	0.0663	0	0	0.458	0	0	0
76	1	616	1	1	1	0.0583	0.0663	1	0	1.108	0	0	82
76	1	617	1	1	1	0.0583	0.0663	1	1	2.404	50	0	82
76	1	618	1	2	3	0.0583	0.0663	0	1	0.538	81	0	0
76	1	619	1	1	3	0.0583	0.0663	1	0	2.557	0	0	82
76	1	620	1	1	3	0.0583	0.0663	0	1	0.573	78	0	0
76	1	621	1	1	3	0.0583	0.0663	1	0	0.453	0	0	82
76	1	622	1	2	2	0.0583	0.0663	1	1	0.484	87	82	0
76	1	623	0	2	2	0.0583	0.0663	0	1	0.370	10	82	82
76	1	624	0	2	3	0.0583	0.0663	1	1	0.541	8	0	82
76	1	625	1	2	3	0.0583	0.0663	1	1	0.367	98	82	0
76	1	626	0	2	1	0.0583	0.0663	1	1	0.383	10	0	82
76	1	627	1	2	3	0.0583	0.0663	0	1	0.476	87	0	0
76	1	628	9	2	2	0.0583	0.0663	0	1	0.366	0	0	0
76	1	629	9	1	3	0.0583	0.0663	0	1	0.341	0	82	82
76	1	630	1	2	3	0.0583	0.0663	1	1	0.453	90	82	0
76	1	631	0	1	1	0.0583	0.0663	0	0	0.453	0	82	82
76	1	632	0	2	2	0.0583	0.0663	0	1	0.291	10	82	82
76	1	633	0	1	1	0.0583	0.0663	1	1	0.590	8	82	0
76	1	634	0	1	1	0.0583	0.0663	0	1	0.713	6	82	82
76	1	635	1	1	3	0.0583	0.0663	0	0	1.296	0	0	0
76	1	636	1	1	3	0.0583	0.0663	0	1	0.348	100	0	0
76	1	637	1	1	1	0.0583	0.0663	1	1	0.435	92	0	82
76	1	638	0	1	3	0.0583	0.0663	0	1	0.327	10	82	82
76	1	639	1	2	3	0.0583	0.0663	1	1	0.387	96	82	0
76	1	640	9	2	2	0.0583	0.0663	1	1	0.563	0	0	82
76	1	641	1	1	1	0.0583	0.0663	0	1	0.358	99	0	0
76	1	642	9	2	3	0.0583	0.0663	0	0	0.322	0	82	82
76	1	643	9	2	3	0.0583	0.0663	1	0	0.353	0	0	82
76	1	644	9	2	2	0.0583	0.0663	1	1	0.449	0	0	82
76	1	645	0	1	1	0.0583	0.0663	1	0	0.921	0	82	0
76	1	646	0	2	3	0.0583	0.0663	1	1	0.420	9	0	82
76	1	647	1	2	2	0.0583	0.0663	1	1	0.431	92	82	0
76	1	648	9	1	3	0.0583	0.0663	1	1	0.856	0	0	82
76	1	649	0	1	1	0.0583	0.0663	1	1	0.562	8	82	0
76	1	650	1	1	1	0.0583	0.0663	0	1	1.924	50	0	0
76	1	651	0	1	1	0.0583	0.0663	1	0	1.947	0	82	0
76	1	652	0	2	2	0.0583	0.0663	0	1	0.446	9	82	82
76	1	653	0	1	3	0.0583	0.0663	1	1	0.478	9	82	0
76	1	654	0	2	1	0.0583	0.0663	0	1	0.384	10	82	82
76	1	655	1	1	1	0.0583	0.0663	0	1	0.515	84	0	0
76	1	656	1	1	2	0.0583	0.0663	0	1	0.631	72	0	0
76	1	657	1	2	2	0.0583	0.0663	1	0	0.968	0	82	0
76	1	658	0	2	3	0.0583	0.0663	0	0	0.714	0	82	82
76	1	659	1	1	1	0.0583	0.0663	0	1	0.865	50	0	0
76	1	660	1	1	3	0.0583	0.0663	1	0	5.862	0	0	82
76	1	661	1	2	2	0.0583	0.0663	1	1	0.553	80	82	0
76	1	662	1	2	1	0.0583	0.0663	0	1	0.384	97	0	0
76	1	663	0	1	2	0.0583	0.0663	0	0	0.601	0	82	82
76	1	664	0	1	3	0.0583	0.0663	1	1	0.415	9	82	0
76	1	665	1	1	1	0.0583	0.0663	0	1	0.377	97	0	0
76	1	666	0	2	1	0.0583	0.0663	1	1	0.671	7	0	82
76	1	667	0	2	2	0.0583	0.0663	1	1	0.522	8	0	82
76	1	668	0	2	2	0.0583	0.0663	0	1	0.539	8	82	82
76	1	669	0	2	2	0.0583	0.0663	1	1	0.417	9	0	82
76	1	670	1	1	2	0.0583	0.0663	1	1	0.568	78	0	82
76	1	671	0	1	3	0.0583	0.0663	1	0	1.016	0	82	0
76	1	672	1	1	3	0.0583	0.0663	1	1	0.756	59	0	82
76	1	673	0	1	1	0.0583	0.0663	0	0	0.413	0	82	82
76	1	674	0	2	3	0.0583	0.0663	1	1	0.553	8	0	82
76	1	675	1	2	2	0.0583	0.0663	0	1	0.238	100	0	0
76	1	676	0	1	1	0.0583	0.0663	0	1	0.460	9	82	82
76	1	677	0	2	2	0.0583	0.0663	0	1	0.650	7	82	82
76	1	678	9	2	3	0.0583	0.0663	1	1	0.782	0	0	82
76	1	679	9	2	3	0.0583	0.0663	0	1	0.911	0	0	0
76	1	680	0	1	3	0.0583	0.0663	0	1	0.722	6	82	82
76	1	681	1	1	3	0.0583	0.0663	0	1	0.441	91	0	0
76	1	682	1	2	3	0.0583	0.0663	1	1	0.429	92	82	0
76	1	683	0	1	3	0.0583	0.0663	1	0	0.888	0	82	0
76	1	684	1	2	3	0.0583	0.0663	0	1	0.412	94	0	0
76	1	685	0	1	3	0.0583	0.0663	1	1	1.093	5	82	0
76	1	686	1	2	2	0.0583	0.0663	1	1	0.496	85	82	0
76	1	687	1	1	3	0.0583	0.0663	0	1	0.513	84	0	0
76	1	688	0	1	3	0.0583	0.0663	0	1	0.566	8	82	82
76	1	689	1	2	2	0.0583	0.0663	1	1	0.589	76	82	0
76	1	690	1	1	3	0.0583	0.0663	0	1	0.693	66	0	0
76	1	691	9	1	2	0.0583	0.0663	0	0	0.407	0	82	82
76	1	692	1	1	3	0.0583	0.0663	0	0	0.390	0	0	0
76	1	693	1	1	3	0.0583	0.0663	1	1	0.449	90	0	82
76	1	694	0	2	2	0.0583	0.0663	1	1	0.866	5	0	82
76	1	695	0	1	3	0.0583	0.0663	0	1	0.600	8	82	82
76	1	696	0	1	3	0.0583	0.0663	1	0	0.942	0	82	0
76	1	697	9	2	3	0.0583	0.0663	1	0	0.528	0	82	0
76	1	698	1	1	1	0.0583	0.0663	1	1	0.450	90	0	82
76	1	699	0	2	2	0.0583	0.0663	0	1	0.458	9	82	82
76	1	700	0	1	3	0.0583	0.0663	1	1	0.653	7	82	0
76	1	701	1	1	3	0.0583	0.0663	0	1	0.484	87	0	0
76	1	702	9	1	3	0.0583	0.0663	1	1	0.768	0	82	0
76	1	703	0	1	2	0.0583	0.0663	0	0	0.634	0	82	82
76	1	704	1	2	1	0.0583	0.0663	1	1	0.875	50	82	0
76	1	705	1	1	1	0.0583	0.0663	0	1	0.416	93	0	0
76	1	706	0	1	3	0.0583	0.0663	0	1	1.902	5	82	82
76	1	707	1	2	3	0.0583	0.0663	1	1	0.528	82	82	0
76	1	708	0	2	3	0.0583	0.0663	0	1	0.634	7	82	82
76	1	709	0	1	3	0.0583	0.0663	1	1	0.551	8	82	0
76	1	710	9	2	2	0.0583	0.0663	0	1	0.943	0	0	0
76	1	711	0	1	3	0.0583	0.0663	0	1	2.487	5	82	82
76	1	712	9	2	3	0.0583	0.0663	0	1	0.554	0	0	0
76	1	713	9	2	1	0.0583	0.0663	1	1	0.487	0	82	0
76	1	714	0	1	1	0.0583	0.0663	1	1	0.394	10	82	0
76	1	715	1	1	1	0.0583	0.0663	0	0	0.914	0	0	0
76	1	716	9	2	3	0.0583	0.0663	1	1	0.456	0	82	0
76	1	717	1	2	2	0.0583	0.0663	0	1	0.365	99	0	0
76	1	718	9	2	2	0.0583	0.0663	1	1	0.675	0	0	82
76	1	719	1	1	3	0.0583	0.0663	1	1	0.503	85	0	82
76	1	720	0	2	3	0.0583	0.0663	1	1	0.942	5	0	82
