sub	sess	t	rew	loc	cue	co1	co2	or	resp	rt	rew_tot	left_col	right_col
62	1	1	9	2	2	0.2540	0.1200	0	1	4.287	0	82	82
62	1	2	0	1	1	0.2540	0.1200	0	1	1.012	5	82	82
62	1	3	0	2	3	0.2540	0.1200	0	0	1.213	0	82	82
62	1	4	1	2	2	0.2540	0.1200	1	1	1.942	50	82	0
62	1	5	0	2	3	0.2540	0.1200	1	1	2.914	5	0	82
62	1	6	0	2	3	0.2540	0.1200	1	0	2.439	0	0	82
62	1	7	0	1	3	0.2540	0.1200	1	1	3.174	5	82	0
62	1	8	1	2	3	0.2540	0.1200	1	1	1.712	50	82	0
62	1	9	9	1	2	0.2540	0.1200	1	1	1.596	0	0	82
62	1	10	0	2	3	0.2540	0.1200	0	1	1.005	5	82	82
62	1	11	1	2	2	0.2540	0.1200	0	1	1.285	50	0	0
62	1	12	9	2	1	0.2540	0.1200	0	1	1.954	0	82	82
62	1	13	0	1	1	0.2540	0.1200	1	1	1.151	5	82	0
62	1	14	0	2	3	0.2540	0.1200	1	1	1.450	5	0	82
62	1	15	1	2	2	0.2540	0.1200	0	1	1.075	50	0	0
62	1	16	1	2	2	0.2540	0.1200	1	1	0.783	57	82	0
62	1	17	0	2	2	0.2540	0.1200	0	1	1.570	5	82	82
62	1	18	9	2	1	0.2540	0.1200	0	1	1.708	0	0	0
62	1	19	1	2	1	0.2540	0.1200	0	1	0.818	53	0	0
62	1	20	0	1	2	0.2540	0.1200	1	1	1.346	5	82	0
62	1	21	0	2	2	0.2540	0.1200	0	1	0.861	5	82	82
62	1	22	0	2	1	0.2540	0.1200	1	1	1.125	5	0	82
62	1	23	0	2	3	0.2540	0.1200	1	1	1.314	5	0	82
62	1	24	0	1	3	0.2540	0.1200	1	1	1.383	5	82	0
62	1	25	0	1	1	0.2540	0.1200	1	1	1.002	5	82	0
62	1	26	9	2	3	0.2540	0.1200	1	1	0.938	0	82	0
62	1	27	0	1	1	0.2540	0.1200	0	1	0.759	6	82	82
62	1	28	1	1	3	0.2540	0.1200	0	1	0.873	50	0	0
62	1	29	0	1	1	0.2540	0.1200	0	1	0.631	7	82	82
62	1	30	9	2	2	0.2540	0.1200	1	1	0.864	0	82	0
62	1	31	0	1	3	0.2540	0.1200	1	1	0.912	5	82	0
62	1	32	0	2	3	0.2540	0.1200	1	1	0.988	5	0	82
62	1	33	0	1	3	0.2540	0.1200	0	1	0.623	7	82	82
62	1	34	1	1	3	0.2540	0.1200	0	1	0.687	66	0	0
62	1	35	1	2	3	0.2540	0.1200	1	1	0.765	58	82	0
62	1	36	0	1	3	0.2540	0.1200	1	1	1.145	5	82	0
62	1	37	9	2	3	0.2540	0.1200	1	1	1.205	0	82	0
62	1	38	1	2	2	0.2540	0.1200	0	1	0.692	66	0	0
62	1	39	0	1	3	0.2540	0.1200	0	1	0.986	5	82	82
62	1	40	1	1	1	0.2540	0.1200	0	1	1.243	50	0	0
62	1	41	0	1	3	0.2540	0.1200	0	1	0.810	5	82	82
62	1	42	0	2	3	0.2540	0.1200	0	1	0.802	5	82	82
62	1	43	0	1	2	0.2540	0.1200	0	1	0.763	6	82	82
62	1	44	0	2	3	0.2540	0.1200	0	1	0.708	6	82	82
62	1	45	1	1	3	0.2540	0.1200	0	1	0.687	66	0	0
62	1	46	1	1	1	0.2540	0.1200	1	1	0.916	50	0	82
62	1	47	0	2	3	0.2540	0.1200	1	1	0.689	7	0	82
62	1	48	1	1	1	0.2540	0.1200	1	1	0.686	66	0	82
62	1	49	1	2	2	0.2540	0.1200	0	1	0.506	84	0	0
62	1	50	0	2	1	0.2540	0.1200	0	1	0.808	5	82	82
62	1	51	0	2	2	0.2540	0.1200	1	1	0.633	7	0	82
62	1	52	1	2	2	0.2540	0.1200	1	1	0.762	59	82	0
62	1	53	1	1	1	0.2540	0.1200	1	1	1.867	50	0	82
62	1	54	1	2	1	0.2540	0.1200	1	1	2.567	50	82	0
62	1	55	9	1	1	0.2540	0.1200	0	1	0.780	0	0	0
62	1	56	1	2	2	0.2540	0.1200	0	1	0.590	76	0	0
62	1	57	0	2	1	0.2540	0.1200	1	1	0.969	5	0	82
62	1	58	1	2	2	0.2540	0.1200	1	1	0.598	75	82	0
62	1	59	1	1	1	0.2540	0.1200	1	1	0.696	65	0	82
62	1	60	1	1	3	0.2540	0.1200	1	1	0.968	50	0	82
62	1	61	1	2	2	0.2540	0.1200	0	1	0.748	60	0	0
62	1	62	1	2	3	0.2540	0.1200	1	1	0.687	66	82	0
62	1	63	9	2	2	0.2540	0.1200	0	1	0.541	0	0	0
62	1	64	0	1	3	0.2540	0.1200	0	0	0.817	0	82	82
62	1	65	0	2	2	0.2540	0.1200	1	1	0.872	5	0	82
62	1	66	0	2	2	0.2540	0.1200	0	1	0.789	6	82	82
62	1	67	1	1	1	0.2540	0.1200	1	1	1.192	50	0	82
62	1	68	9	1	3	0.2540	0.1200	1	1	0.906	0	0	82
62	1	69	0	1	3	0.2540	0.1200	1	1	1.936	5	82	0
62	1	70	0	2	2	0.2540	0.1200	0	1	0.709	6	82	82
62	1	71	1	2	2	0.2540	0.1200	1	1	0.707	64	82	0
62	1	72	9	1	1	0.2540	0.1200	0	1	0.520	0	82	82
62	1	73	0	1	3	0.2540	0.1200	0	1	0.606	7	82	82
62	1	74	9	2	2	0.2540	0.1200	1	1	0.601	0	0	82
62	1	75	0	1	1	0.2540	0.1200	1	1	0.585	8	82	0
62	1	76	1	1	1	0.2540	0.1200	0	1	0.508	84	0	0
62	1	77	1	2	3	0.2540	0.1200	1	1	0.722	63	82	0
62	1	78	9	2	3	0.2540	0.1200	0	1	0.919	0	82	82
62	1	79	9	1	3	0.2540	0.1200	0	1	0.701	0	0	0
62	1	80	1	2	1	0.2540	0.1200	0	1	1.178	50	0	0
62	1	81	1	2	2	0.2540	0.1200	1	1	0.604	75	82	0
62	1	82	1	2	2	0.2540	0.1200	1	1	0.878	50	82	0
62	1	83	1	2	2	0.2540	0.1200	0	1	0.636	71	0	0
62	1	84	1	1	3	0.2540	0.1200	0	1	1.196	50	0	0
62	1	85	1	2	2	0.2540	0.1200	1	1	0.652	70	82	0
62	1	86	0	2	1	0.2540	0.1200	1	1	0.828	5	0	82
62	1	87	1	1	3	0.2540	0.1200	1	1	1.132	50	0	82
62	1	88	9	2	1	0.2540	0.1200	1	1	0.791	0	0	82
62	1	89	9	2	1	0.2540	0.1200	1	1	0.640	0	82	0
62	1	90	1	2	3	0.2540	0.1200	1	1	0.551	80	82	0
62	1	91	1	1	1	0.2540	0.1200	0	1	0.539	81	0	0
62	1	92	1	2	3	0.2540	0.1200	0	1	0.736	61	0	0
62	1	93	1	1	1	0.2540	0.1200	1	1	1.987	50	0	82
62	1	94	1	2	3	0.2540	0.1200	0	1	0.830	52	0	0
62	1	95	1	2	3	0.2540	0.1200	1	1	0.566	78	82	0
62	1	96	1	1	1	0.2540	0.1200	0	1	0.656	69	0	0
62	1	97	1	1	3	0.2540	0.1200	0	1	0.752	60	0	0
62	1	98	0	2	3	0.2540	0.1200	0	1	0.642	7	82	82
62	1	99	1	2	2	0.2540	0.1200	1	1	0.543	81	82	0
62	1	100	0	1	1	0.2540	0.1200	1	1	0.868	5	82	0
62	1	101	0	1	3	0.2540	0.1200	1	0	0.715	0	82	0
62	1	102	0	2	3	0.2540	0.1200	0	0	0.887	0	82	82
62	1	103	0	1	1	0.2540	0.1200	0	1	0.597	8	82	82
62	1	104	9	2	2	0.2540	0.1200	0	1	0.647	0	0	0
62	1	105	1	2	2	0.2540	0.1200	0	1	0.471	88	0	0
62	1	106	0	2	2	0.2540	0.1200	0	1	0.509	8	82	82
62	1	107	9	1	3	0.2540	0.1200	0	1	0.834	0	82	82
62	1	108	1	1	1	0.2540	0.1200	0	1	0.524	83	0	0
62	1	109	0	1	1	0.2540	0.1200	0	1	0.470	9	82	82
62	1	110	9	2	3	0.2540	0.1200	0	1	0.893	0	0	0
62	1	111	0	1	1	0.2540	0.1200	1	1	0.516	8	82	0
62	1	112	0	2	3	0.2540	0.1200	1	1	0.657	7	0	82
62	1	113	1	2	1	0.2540	0.1200	1	1	0.433	92	82	0
62	1	114	9	1	3	0.2540	0.1200	0	1	0.561	0	0	0
62	1	115	0	2	2	0.2540	0.1200	1	1	0.518	8	0	82
62	1	116	0	2	2	0.2540	0.1200	0	1	0.466	9	82	82
62	1	117	9	1	3	0.2540	0.1200	1	1	0.634	0	82	0
62	1	118	0	2	2	0.2540	0.1200	0	1	0.484	9	82	82
62	1	119	9	1	3	0.2540	0.1200	1	1	0.618	0	82	0
62	1	120	0	1	3	0.2540	0.1200	1	1	0.723	6	82	0
62	1	121	0	1	3	0.2540	0.1200	0	1	0.673	7	82	82
62	1	122	1	2	3	0.2540	0.1200	0	1	0.937	50	0	0
62	1	123	0	2	3	0.2540	0.1200	1	1	0.599	8	0	82
62	1	124	0	1	3	0.2540	0.1200	1	1	0.639	7	82	0
62	1	125	0	2	2	0.2540	0.1200	1	1	0.488	9	0	82
62	1	126	0	2	2	0.2540	0.1200	0	1	0.588	8	82	82
62	1	127	0	2	2	0.2540	0.1200	0	1	0.664	7	82	82
62	1	128	1	1	3	0.2540	0.1200	1	1	0.845	51	0	82
62	1	129	1	1	3	0.2540	0.1200	0	1	0.755	59	0	0
62	1	130	9	2	2	0.2540	0.1200	1	1	0.630	0	0	82
62	1	131	9	2	2	0.2540	0.1200	0	1	0.557	0	82	82
62	1	132	1	1	3	0.2540	0.1200	1	0	0.706	0	0	82
62	1	133	9	1	1	0.2540	0.1200	0	1	0.633	0	82	82
62	1	134	1	1	3	0.2540	0.1200	1	1	1.504	50	0	82
62	1	135	1	2	2	0.2540	0.1200	0	1	0.463	89	0	0
62	1	136	1	2	3	0.2540	0.1200	1	1	0.557	79	82	0
62	1	137	1	2	3	0.2540	0.1200	1	1	0.487	86	82	0
62	1	138	9	2	2	0.2540	0.1200	0	1	0.639	0	82	82
62	1	139	1	1	3	0.2540	0.1200	1	1	1.033	50	0	82
62	1	140	9	2	3	0.2540	0.1200	0	1	0.650	0	82	82
62	1	141	9	1	3	0.2540	0.1200	1	1	0.678	0	0	82
62	1	142	1	1	1	0.2540	0.1200	0	1	0.509	84	0	0
62	1	143	9	1	3	0.2540	0.1200	1	1	0.891	0	82	0
62	1	144	0	1	3	0.2540	0.1200	0	1	0.527	8	82	82
62	1	145	0	2	1	0.2540	0.1200	1	1	0.851	5	0	82
62	1	146	0	1	1	0.2540	0.1200	0	1	0.578	8	82	82
62	1	147	1	1	1	0.2540	0.1200	0	1	0.442	91	0	0
62	1	148	1	1	3	0.2540	0.1200	0	1	0.498	85	0	0
62	1	149	1	1	1	0.2540	0.1200	1	1	0.528	82	0	82
62	1	150	1	1	1	0.2540	0.1200	1	1	0.596	75	0	82
62	1	151	9	1	2	0.2540	0.1200	0	1	0.599	0	82	82
62	1	152	0	1	1	0.2540	0.1200	0	1	0.528	8	82	82
62	1	153	0	2	2	0.2540	0.1200	0	0	0.442	0	82	82
62	1	154	0	2	3	0.2540	0.1200	0	1	0.697	7	82	82
62	1	155	9	1	3	0.2540	0.1200	0	1	0.725	0	82	82
62	1	156	9	1	3	0.2540	0.1200	1	1	0.850	0	0	82
62	1	157	0	2	1	0.2540	0.1200	0	1	1.346	5	82	82
62	1	158	0	2	2	0.2540	0.1200	0	1	0.637	7	82	82
62	1	159	1	1	1	0.2540	0.1200	1	1	1.837	50	0	82
62	1	160	1	1	1	0.2540	0.1200	0	1	0.868	50	0	0
62	1	161	1	2	2	0.2540	0.1200	0	1	0.614	74	0	0
62	1	162	9	1	1	0.2540	0.1200	0	1	0.661	0	0	0
62	1	163	1	2	3	0.2540	0.1200	0	1	0.637	71	0	0
62	1	164	9	1	3	0.2540	0.1200	1	1	0.702	0	82	0
62	1	165	0	1	3	0.2540	0.1200	1	1	0.554	8	82	0
62	1	166	0	2	2	0.2540	0.1200	0	1	0.583	8	82	82
62	1	167	1	2	3	0.2540	0.1200	1	1	0.655	69	82	0
62	1	168	1	1	1	0.2540	0.1200	0	1	1.071	50	0	0
62	1	169	9	1	1	0.2540	0.1200	0	1	0.564	0	82	82
62	1	170	1	1	3	0.2540	0.1200	1	1	0.885	50	0	82
62	1	171	1	2	2	0.2540	0.1200	0	1	0.491	86	0	0
62	1	172	0	1	1	0.2540	0.1200	1	1	0.729	6	82	0
62	1	173	9	2	2	0.2540	0.1200	1	1	0.572	0	82	0
62	1	174	0	1	3	0.2540	0.1200	0	1	0.711	6	82	82
62	1	175	0	1	2	0.2540	0.1200	0	1	0.579	8	82	82
62	1	176	1	1	2	0.2540	0.1200	0	1	0.567	78	0	0
62	1	177	0	2	2	0.2540	0.1200	1	1	0.640	7	0	82
62	1	178	0	2	3	0.2540	0.1200	1	1	0.649	7	0	82
62	1	179	1	2	1	0.2540	0.1200	0	1	0.938	50	0	0
62	1	180	1	1	3	0.2540	0.1200	1	1	0.735	62	0	82
62	1	181	1	2	3	0.2540	0.1200	0	1	0.750	60	0	0
62	1	182	0	2	2	0.2540	0.1200	1	1	0.505	8	0	82
62	1	183	0	2	2	0.2540	0.1200	0	1	0.576	8	82	82
62	1	184	0	1	2	0.2540	0.1200	0	1	0.627	7	82	82
62	1	185	0	1	1	0.2540	0.1200	1	1	0.580	8	82	0
62	1	186	1	2	3	0.2540	0.1200	0	1	0.638	71	0	0
62	1	187	0	1	1	0.2540	0.1200	0	1	0.528	8	82	82
62	1	188	0	1	2	0.2540	0.1200	1	1	0.933	5	82	0
62	1	189	1	1	2	0.2540	0.1200	0	1	1.064	50	0	0
62	1	190	1	2	2	0.2540	0.1200	0	1	0.761	59	0	0
62	1	191	1	2	1	0.2540	0.1200	0	1	0.740	61	0	0
62	1	192	1	1	3	0.2540	0.1200	0	1	0.682	67	0	0
62	1	193	1	2	3	0.2540	0.1200	0	1	0.706	64	0	0
62	1	194	0	2	3	0.2540	0.1200	0	1	0.456	9	82	82
62	1	195	1	1	1	0.2540	0.1200	0	1	0.573	78	0	0
62	1	196	9	2	3	0.2540	0.1200	1	1	0.513	0	82	0
62	1	197	9	1	1	0.2540	0.1200	1	1	0.655	0	82	0
62	1	198	9	1	1	0.2540	0.1200	1	1	0.713	0	0	82
62	1	199	9	2	3	0.2540	0.1200	1	0	1.039	0	0	82
62	1	200	9	2	2	0.2540	0.1200	1	1	0.687	0	82	0
62	1	201	1	1	1	0.2540	0.1200	0	1	0.430	92	0	0
62	1	202	0	2	3	0.2540	0.1200	0	1	0.493	9	82	82
62	1	203	0	1	1	0.2540	0.1200	1	1	0.514	8	82	0
62	1	204	0	2	3	0.2540	0.1200	1	1	0.575	8	0	82
62	1	205	1	1	1	0.2540	0.1200	0	1	0.377	97	0	0
62	1	206	9	2	3	0.2540	0.1200	1	1	0.452	0	82	0
62	1	207	9	1	1	0.2540	0.1200	0	1	0.362	0	82	82
62	1	208	0	2	3	0.2540	0.1200	0	1	0.483	9	82	82
62	1	209	1	1	3	0.2540	0.1200	0	1	0.528	82	0	0
62	1	210	0	2	2	0.2540	0.1200	1	1	0.485	9	0	82
62	1	211	1	2	3	0.2540	0.1200	0	1	0.861	50	0	0
62	1	212	0	1	1	0.2540	0.1200	0	1	0.492	9	82	82
62	1	213	9	2	2	0.2540	0.1200	0	1	0.482	0	0	0
62	1	214	1	1	1	0.2540	0.1200	0	1	0.512	84	0	0
62	1	215	0	2	3	0.2540	0.1200	1	1	0.493	9	0	82
62	1	216	1	1	1	0.2540	0.1200	1	1	0.690	66	0	82
62	1	217	1	1	2	0.2540	0.1200	1	1	1.223	50	0	82
62	1	218	0	1	1	0.2540	0.1200	1	1	0.681	7	82	0
62	1	219	0	1	3	0.2540	0.1200	1	1	0.525	8	82	0
62	1	220	0	1	3	0.2540	0.1200	0	1	0.536	8	82	82
62	1	221	1	2	2	0.2540	0.1200	1	1	0.542	81	82	0
62	1	222	1	1	1	0.2540	0.1200	1	0	0.819	0	0	82
62	1	223	0	1	1	0.2540	0.1200	1	1	0.564	8	82	0
62	1	224	9	2	2	0.2540	0.1200	1	1	0.493	0	0	82
62	1	225	0	2	2	0.2540	0.1200	1	1	0.426	9	0	82
62	1	226	9	2	3	0.2540	0.1200	0	1	0.716	0	0	0
62	1	227	9	2	3	0.2540	0.1200	1	1	0.576	0	0	82
62	1	228	0	1	1	0.2540	0.1200	1	1	0.691	7	82	0
62	1	229	0	2	2	0.2540	0.1200	1	1	0.529	8	0	82
62	1	230	0	1	2	0.2540	0.1200	1	1	0.755	6	82	0
62	1	231	1	1	3	0.2540	0.1200	1	1	0.887	50	0	82
62	1	232	1	1	3	0.2540	0.1200	1	1	0.516	83	0	82
62	1	233	1	2	1	0.2540	0.1200	1	1	0.553	80	82	0
62	1	234	1	2	2	0.2540	0.1200	1	1	0.443	91	82	0
62	1	235	0	1	1	0.2540	0.1200	1	1	0.460	9	82	0
62	1	236	1	1	3	0.2540	0.1200	0	1	0.581	77	0	0
62	1	237	1	1	3	0.2540	0.1200	1	1	0.848	50	0	82
62	1	238	1	2	3	0.2540	0.1200	0	1	0.734	62	0	0
62	1	239	1	2	3	0.2540	0.1200	0	1	0.923	50	0	0
62	1	240	0	1	3	0.2540	0.1200	0	1	0.495	9	82	82
62	1	241	0	2	3	0.2540	0.1200	0	1	1.196	5	82	82
62	1	242	1	1	1	0.2540	0.1200	0	1	0.502	85	0	0
62	1	243	1	2	2	0.2540	0.1200	1	1	0.475	88	82	0
62	1	244	9	2	3	0.2540	0.1200	1	1	0.585	0	0	82
62	1	245	1	1	2	0.2540	0.1200	1	1	1.371	50	0	82
62	1	246	1	2	2	0.2540	0.1200	0	1	0.588	76	0	0
62	1	247	1	2	3	0.2540	0.1200	1	1	0.532	82	82	0
62	1	248	1	2	2	0.2540	0.1200	1	1	0.550	80	82	0
62	1	249	0	1	1	0.2540	0.1200	0	1	0.705	6	82	82
62	1	250	0	2	2	0.2540	0.1200	1	1	0.590	8	0	82
62	1	251	9	1	3	0.2540	0.1200	0	1	0.749	0	82	82
62	1	252	0	1	1	0.2540	0.1200	0	1	0.463	9	82	82
62	1	253	0	1	3	0.2540	0.1200	1	1	0.863	5	82	0
62	1	254	9	1	2	0.2540	0.1200	1	1	0.616	0	82	0
62	1	255	9	2	2	0.2540	0.1200	1	1	0.434	0	0	82
62	1	256	0	1	3	0.2540	0.1200	1	0	0.626	0	82	0
62	1	257	1	2	2	0.2540	0.1200	1	1	0.481	87	82	0
62	1	258	1	1	3	0.2540	0.1200	0	1	0.773	58	0	0
62	1	259	0	1	3	0.2540	0.1200	0	1	0.623	7	82	82
62	1	260	0	1	1	0.2540	0.1200	0	1	0.439	9	82	82
62	1	261	1	2	3	0.2540	0.1200	1	1	0.697	65	82	0
62	1	262	0	2	2	0.2540	0.1200	1	1	0.423	9	0	82
62	1	263	0	2	1	0.2540	0.1200	0	1	0.760	6	82	82
62	1	264	9	2	3	0.2540	0.1200	0	0	0.633	0	82	82
62	1	265	0	1	3	0.2540	0.1200	1	1	0.760	6	82	0
62	1	266	9	1	1	0.2540	0.1200	0	1	0.793	0	0	0
62	1	267	0	1	3	0.2540	0.1200	1	1	0.819	5	82	0
62	1	268	1	1	3	0.2540	0.1200	0	1	0.654	70	0	0
62	1	269	0	2	2	0.2540	0.1200	0	1	0.654	7	82	82
62	1	270	1	2	2	0.2540	0.1200	0	1	0.646	70	0	0
62	1	271	0	1	3	0.2540	0.1200	1	1	0.783	6	82	0
62	1	272	1	1	1	0.2540	0.1200	1	1	0.649	70	0	82
62	1	273	0	1	3	0.2540	0.1200	0	1	0.688	7	82	82
62	1	274	0	2	2	0.2540	0.1200	1	1	0.620	7	0	82
62	1	275	0	1	1	0.2540	0.1200	1	0	0.619	0	82	0
62	1	276	1	2	3	0.2540	0.1200	1	1	0.765	59	82	0
62	1	277	1	1	3	0.2540	0.1200	0	1	0.551	80	0	0
62	1	278	0	2	1	0.2540	0.1200	0	1	1.451	5	82	82
62	1	279	1	1	3	0.2540	0.1200	1	1	0.922	50	0	82
62	1	280	1	1	1	0.2540	0.1200	1	1	0.656	69	0	82
62	1	281	9	2	3	0.2540	0.1200	1	1	0.541	0	0	82
62	1	282	0	2	3	0.2540	0.1200	0	1	0.633	7	82	82
62	1	283	1	2	3	0.2540	0.1200	1	1	0.593	76	82	0
62	1	284	1	1	1	0.2540	0.1200	0	1	0.482	87	0	0
62	1	285	0	2	3	0.2540	0.1200	1	1	0.518	8	0	82
62	1	286	0	1	1	0.2540	0.1200	0	1	0.474	9	82	82
62	1	287	9	1	3	0.2540	0.1200	1	1	0.991	0	0	82
62	1	288	9	1	1	0.2540	0.1200	1	1	0.649	0	82	0
62	1	289	0	2	3	0.2540	0.1200	1	1	0.695	7	0	82
62	1	290	0	2	3	0.2540	0.1200	1	1	0.575	8	0	82
62	1	291	9	1	1	0.2540	0.1200	1	1	0.695	0	0	82
62	1	292	9	2	2	0.2540	0.1200	1	1	0.509	0	82	0
62	1	293	0	2	3	0.2540	0.1200	0	1	0.618	7	82	82
62	1	294	1	1	3	0.2540	0.1200	1	1	0.883	50	0	82
62	1	295	9	1	1	0.2540	0.1200	0	1	0.643	0	0	0
62	1	296	0	2	2	0.2540	0.1200	1	1	0.809	5	0	82
62	1	297	1	1	2	0.2540	0.1200	1	1	1.033	50	0	82
62	1	298	0	1	2	0.2540	0.1200	0	1	0.535	8	82	82
62	1	299	9	1	1	0.2540	0.1200	1	1	0.666	0	82	0
62	1	300	9	2	2	0.2540	0.1200	0	1	0.862	0	82	82
62	1	301	1	2	2	0.2540	0.1200	0	1	2.169	50	0	0
62	1	302	1	2	3	0.2540	0.1200	0	1	0.564	79	0	0
62	1	303	1	2	3	0.2540	0.1200	1	1	0.585	77	82	0
62	1	304	9	1	3	0.2540	0.1200	0	1	0.755	0	0	0
62	1	305	0	2	2	0.2540	0.1200	1	1	0.549	8	0	82
62	1	306	9	1	1	0.2540	0.1200	1	1	0.552	0	82	0
62	1	307	0	1	1	0.2540	0.1200	1	1	0.483	9	82	0
62	1	308	1	1	3	0.2540	0.1200	0	1	0.784	57	0	0
62	1	309	0	1	2	0.2540	0.1200	1	1	0.730	6	82	0
62	1	310	1	2	3	0.2540	0.1200	1	1	0.598	75	82	0
62	1	311	9	2	2	0.2540	0.1200	0	1	0.520	0	0	0
62	1	312	1	1	3	0.2540	0.1200	1	1	0.623	73	0	82
62	1	313	0	1	1	0.2540	0.1200	0	1	0.569	8	82	82
62	1	314	0	1	3	0.2540	0.1200	0	1	0.574	8	82	82
62	1	315	9	1	1	0.2540	0.1200	1	1	0.536	0	0	82
62	1	316	1	1	1	0.2540	0.1200	1	1	0.556	79	0	82
62	1	317	0	2	2	0.2540	0.1200	1	1	0.528	8	0	82
62	1	318	1	1	3	0.2540	0.1200	0	1	0.908	50	0	0
62	1	319	0	1	1	0.2540	0.1200	0	1	0.602	7	82	82
62	1	320	9	1	3	0.2540	0.1200	0	1	0.601	0	0	0
62	1	321	0	1	3	0.2540	0.1200	0	1	0.774	6	82	82
62	1	322	1	1	1	0.2540	0.1200	0	1	0.576	77	0	0
62	1	323	1	1	3	0.2540	0.1200	1	1	0.594	76	0	82
62	1	324	0	1	3	0.2540	0.1200	1	1	0.610	7	82	0
62	1	325	1	2	3	0.2540	0.1200	0	1	0.587	76	0	0
62	1	326	1	2	3	0.2540	0.1200	0	1	0.963	50	0	0
62	1	327	1	1	3	0.2540	0.1200	1	1	0.568	78	0	82
62	1	328	1	1	1	0.2540	0.1200	1	1	0.666	68	0	82
62	1	329	1	1	2	0.2540	0.1200	1	1	1.170	50	0	82
62	1	330	0	1	3	0.2540	0.1200	0	1	0.620	7	82	82
62	1	331	0	2	2	0.2540	0.1200	0	1	0.804	5	82	82
62	1	332	0	2	3	0.2540	0.1200	0	1	0.589	8	82	82
62	1	333	0	2	3	0.2540	0.1200	0	1	0.479	9	82	82
62	1	334	0	2	3	0.2540	0.1200	1	1	0.652	7	0	82
62	1	335	9	1	1	0.2540	0.1200	1	1	0.644	0	0	82
62	1	336	1	2	2	0.2540	0.1200	1	1	0.658	69	82	0
62	1	337	0	1	1	0.2540	0.1200	1	1	1.014	5	82	0
62	1	338	1	2	2	0.2540	0.1200	0	1	0.950	50	0	0
62	1	339	0	2	2	0.2540	0.1200	1	1	0.600	7	0	82
62	1	340	1	1	2	0.2540	0.1200	0	1	0.680	67	0	0
62	1	341	1	1	3	0.2540	0.1200	0	1	0.511	84	0	0
62	1	342	9	2	3	0.2540	0.1200	0	1	0.558	0	0	0
62	1	343	0	2	3	0.2540	0.1200	0	1	0.642	7	82	82
62	1	344	9	1	2	0.2540	0.1200	0	1	0.648	0	0	0
62	1	345	1	2	3	0.2540	0.1200	0	1	0.510	84	0	0
62	1	346	9	2	3	0.2540	0.1200	0	1	0.507	0	82	82
62	1	347	1	2	1	0.2540	0.1200	1	1	0.490	86	82	0
62	1	348	1	2	3	0.2540	0.1200	0	1	0.536	81	0	0
62	1	349	1	2	2	0.2540	0.1200	1	1	0.547	80	82	0
62	1	350	0	2	3	0.2540	0.1200	1	1	0.488	9	0	82
62	1	351	1	2	3	0.2540	0.1200	0	1	0.574	78	0	0
62	1	352	0	1	3	0.2540	0.1200	0	0	0.711	0	82	82
62	1	353	0	2	2	0.2540	0.1200	0	1	0.370	10	82	82
62	1	354	1	1	1	0.2540	0.1200	1	1	0.470	88	0	82
62	1	355	1	2	3	0.2540	0.1200	1	1	0.647	70	82	0
62	1	356	1	1	2	0.2540	0.1200	0	1	0.575	77	0	0
62	1	357	9	2	3	0.2540	0.1200	0	1	0.699	0	0	0
62	1	358	9	1	3	0.2540	0.1200	0	1	0.566	0	82	82
62	1	359	0	1	1	0.2540	0.1200	0	1	0.418	9	82	82
62	1	360	0	1	1	0.2540	0.1200	1	1	0.531	8	82	0
62	1	361	9	2	2	0.2540	0.1200	1	0	0.843	0	82	0
62	1	362	0	1	1	0.2540	0.1200	1	0	0.577	0	82	0
62	1	363	1	2	3	0.2540	0.1200	1	1	0.628	72	82	0
62	1	364	1	2	3	0.2540	0.1200	0	1	1.245	50	0	0
62	1	365	0	2	3	0.2540	0.1200	1	1	0.596	8	0	82
62	1	366	0	1	3	0.2540	0.1200	0	1	0.492	9	82	82
62	1	367	0	1	3	0.2540	0.1200	0	1	0.528	8	82	82
62	1	368	0	1	3	0.2540	0.1200	0	1	0.500	8	82	82
62	1	369	0	2	2	0.2540	0.1200	0	0	0.450	0	82	82
62	1	370	0	2	3	0.2540	0.1200	1	1	0.665	7	0	82
62	1	371	9	2	3	0.2540	0.1200	1	1	1.152	0	82	0
62	1	372	0	2	2	0.2540	0.1200	1	1	0.538	8	0	82
62	1	373	0	1	1	0.2540	0.1200	1	1	0.679	7	82	0
62	1	374	1	1	3	0.2540	0.1200	1	1	0.639	71	0	82
62	1	375	1	1	1	0.2540	0.1200	1	1	0.504	85	0	82
62	1	376	1	1	1	0.2540	0.1200	1	1	0.519	83	0	82
62	1	377	1	2	3	0.2540	0.1200	0	1	0.765	59	0	0
62	1	378	1	1	1	0.2540	0.1200	0	1	0.440	91	0	0
62	1	379	9	2	3	0.2540	0.1200	0	1	0.617	0	0	0
62	1	380	1	1	1	0.2540	0.1200	0	1	0.666	68	0	0
62	1	381	9	2	3	0.2540	0.1200	0	1	0.531	0	82	82
62	1	382	9	1	1	0.2540	0.1200	0	1	0.456	0	0	0
62	1	383	0	2	3	0.2540	0.1200	1	1	0.562	8	0	82
62	1	384	9	2	3	0.2540	0.1200	1	1	0.606	0	82	0
62	1	385	9	2	2	0.2540	0.1200	1	1	0.415	0	82	0
62	1	386	1	2	2	0.2540	0.1200	1	1	0.375	98	82	0
62	1	387	0	2	2	0.2540	0.1200	0	1	0.519	8	82	82
62	1	388	9	2	3	0.2540	0.1200	1	1	0.540	0	0	82
62	1	389	1	2	3	0.2540	0.1200	0	1	0.528	82	0	0
62	1	390	9	2	3	0.2540	0.1200	1	1	0.491	0	0	82
62	1	391	1	1	3	0.2540	0.1200	0	1	0.744	61	0	0
62	1	392	1	2	2	0.2540	0.1200	0	1	0.557	79	0	0
62	1	393	0	2	2	0.2540	0.1200	0	1	0.385	10	82	82
62	1	394	9	1	3	0.2540	0.1200	0	1	0.617	0	82	82
62	1	395	9	1	3	0.2540	0.1200	1	0	0.594	0	82	0
62	1	396	9	2	2	0.2540	0.1200	0	1	0.507	0	0	0
62	1	397	9	2	2	0.2540	0.1200	0	1	0.384	0	82	82
62	1	398	1	1	3	0.2540	0.1200	0	1	0.786	56	0	0
62	1	399	9	1	2	0.2540	0.1200	0	1	0.547	0	82	82
62	1	400	1	1	2	0.2540	0.1200	1	1	0.622	73	0	82
62	1	401	1	1	1	0.2540	0.1200	0	1	0.437	91	0	0
62	1	402	9	2	1	0.2540	0.1200	1	1	0.518	0	82	0
62	1	403	0	2	1	0.2540	0.1200	1	1	0.473	9	0	82
62	1	404	1	2	2	0.2540	0.1200	0	1	0.537	81	0	0
62	1	405	0	1	2	0.2540	0.1200	1	1	0.547	8	82	0
62	1	406	1	2	3	0.2540	0.1200	0	1	0.565	78	0	0
62	1	407	0	2	3	0.2540	0.1200	0	1	0.616	7	82	82
62	1	408	9	1	2	0.2540	0.1200	1	1	0.562	0	0	82
62	1	409	1	2	2	0.2540	0.1200	1	0	0.486	0	82	0
62	1	410	9	2	3	0.2540	0.1200	0	1	0.491	0	82	82
62	1	411	1	1	3	0.2540	0.1200	1	1	0.683	67	0	82
62	1	412	1	1	3	0.2540	0.1200	0	1	0.481	87	0	0
62	1	413	1	2	3	0.2540	0.1200	1	1	0.477	87	82	0
62	1	414	1	2	1	0.2540	0.1200	0	1	0.780	57	0	0
62	1	415	1	1	3	0.2540	0.1200	0	1	0.494	86	0	0
62	1	416	9	1	3	0.2540	0.1200	0	1	0.517	0	0	0
62	1	417	0	1	1	0.2540	0.1200	0	1	0.403	9	82	82
62	1	418	0	1	3	0.2540	0.1200	0	1	0.509	8	82	82
62	1	419	0	1	1	0.2540	0.1200	0	1	0.372	10	82	82
62	1	420	0	2	3	0.2540	0.1200	1	1	0.566	8	0	82
62	1	421	0	2	2	0.2540	0.1200	1	1	0.388	10	0	82
62	1	422	1	2	3	0.2540	0.1200	1	1	0.454	90	82	0
62	1	423	1	1	3	0.2540	0.1200	1	0	0.407	0	0	82
62	1	424	9	1	1	0.2540	0.1200	1	1	2.374	0	82	0
62	1	425	0	1	3	0.2540	0.1200	1	1	0.456	9	82	0
62	1	426	1	2	2	0.2540	0.1200	0	1	0.439	91	0	0
62	1	427	0	1	3	0.2540	0.1200	0	1	0.545	8	82	82
62	1	428	1	2	2	0.2540	0.1200	1	1	0.460	89	82	0
62	1	429	9	2	3	0.2540	0.1200	0	0	0.624	0	82	82
62	1	430	1	1	1	0.2540	0.1200	0	1	0.336	100	0	0
62	1	431	0	1	1	0.2540	0.1200	0	1	0.547	8	82	82
62	1	432	9	1	3	0.2540	0.1200	0	1	0.464	0	0	0
62	1	433	1	1	2	0.2540	0.1200	0	1	0.423	93	0	0
62	1	434	1	2	3	0.2540	0.1200	0	1	0.623	73	0	0
62	1	435	1	2	2	0.2540	0.1200	0	1	0.583	77	0	0
62	1	436	1	2	3	0.2540	0.1200	1	1	0.504	85	82	0
62	1	437	0	1	1	0.2540	0.1200	0	1	0.389	10	82	82
62	1	438	0	2	3	0.2540	0.1200	0	1	0.517	8	82	82
62	1	439	0	1	1	0.2540	0.1200	0	1	0.394	10	82	82
62	1	440	0	2	3	0.2540	0.1200	1	1	0.451	9	0	82
62	1	441	9	1	3	0.2540	0.1200	1	0	0.584	0	82	0
62	1	442	0	1	3	0.2540	0.1200	1	0	0.475	0	82	0
62	1	443	9	2	2	0.2540	0.1200	1	1	0.824	0	0	82
62	1	444	1	2	3	0.2540	0.1200	0	1	0.783	57	0	0
62	1	445	9	1	1	0.2540	0.1200	0	1	0.528	0	0	0
62	1	446	0	1	1	0.2540	0.1200	1	1	0.644	7	82	0
62	1	447	0	2	3	0.2540	0.1200	0	1	0.634	7	82	82
62	1	448	1	2	1	0.2540	0.1200	1	1	0.545	81	82	0
62	1	449	9	1	2	0.2540	0.1200	1	1	4.013	0	82	0
62	1	450	0	2	3	0.2540	0.1200	1	1	0.612	7	0	82
62	1	451	0	2	2	0.2540	0.1200	0	1	0.556	8	82	82
62	1	452	0	2	3	0.2540	0.1200	0	1	0.519	8	82	82
62	1	453	9	2	2	0.2540	0.1200	0	1	0.460	0	0	0
62	1	454	0	2	3	0.2540	0.1200	0	1	0.428	9	82	82
62	1	455	1	2	2	0.2540	0.1200	0	1	0.365	99	0	0
62	1	456	9	1	3	0.2540	0.1200	0	1	0.705	0	82	82
62	1	457	1	1	1	0.2540	0.1200	0	1	0.509	84	0	0
62	1	458	9	2	3	0.2540	0.1200	1	1	0.544	0	0	82
62	1	459	0	2	3	0.2540	0.1200	1	1	0.498	9	0	82
62	1	460	9	2	3	0.2540	0.1200	0	1	0.489	0	0	0
62	1	461	1	2	2	0.2540	0.1200	0	1	0.564	79	0	0
62	1	462	9	2	3	0.2540	0.1200	1	1	0.583	0	0	82
62	1	463	0	2	3	0.2540	0.1200	0	1	0.536	8	82	82
62	1	464	0	2	2	0.2540	0.1200	0	1	0.502	8	82	82
62	1	465	1	2	3	0.2540	0.1200	0	1	0.420	93	0	0
62	1	466	0	2	2	0.2540	0.1200	1	1	0.604	7	0	82
62	1	467	1	2	3	0.2540	0.1200	1	1	0.517	83	82	0
62	1	468	1	1	3	0.2540	0.1200	0	1	0.611	74	0	0
62	1	469	0	2	1	0.2540	0.1200	1	1	0.554	8	0	82
62	1	470	1	2	3	0.2540	0.1200	0	1	0.582	77	0	0
62	1	471	1	1	3	0.2540	0.1200	1	1	0.673	68	0	82
62	1	472	1	1	3	0.2540	0.1200	0	1	0.584	77	0	0
62	1	473	1	2	3	0.2540	0.1200	1	1	0.529	82	82	0
62	1	474	0	1	1	0.2540	0.1200	0	1	0.388	10	82	82
62	1	475	1	1	1	0.2540	0.1200	1	1	0.613	74	0	82
62	1	476	1	1	1	0.2540	0.1200	1	1	0.799	55	0	82
62	1	477	1	2	2	0.2540	0.1200	0	1	0.529	82	0	0
62	1	478	9	2	2	0.2540	0.1200	0	1	0.438	0	82	82
62	1	479	1	1	1	0.2540	0.1200	1	1	0.485	86	0	82
62	1	480	0	2	3	0.2540	0.1200	0	1	0.522	8	82	82
62	1	481	0	2	1	0.2540	0.1200	1	1	0.495	9	0	82
62	1	482	0	1	3	0.2540	0.1200	1	1	0.740	6	82	0
62	1	483	0	2	3	0.2540	0.1200	0	1	0.633	7	82	82
62	1	484	1	2	2	0.2540	0.1200	0	0	0.551	0	0	0
62	1	485	9	1	3	0.2540	0.1200	1	1	0.715	0	0	82
62	1	486	9	2	2	0.2540	0.1200	0	0	0.624	0	82	82
62	1	487	1	1	1	0.2540	0.1200	0	1	0.888	50	0	0
62	1	488	9	2	3	0.2540	0.1200	0	1	0.526	0	0	0
62	1	489	0	1	2	0.2540	0.1200	1	1	0.514	8	82	0
62	1	490	0	1	3	0.2540	0.1200	0	1	0.544	8	82	82
62	1	491	1	2	2	0.2540	0.1200	0	1	0.892	50	0	0
62	1	492	0	1	3	0.2540	0.1200	1	1	0.529	8	82	0
62	1	493	9	1	3	0.2540	0.1200	1	1	0.557	0	0	82
62	1	494	1	2	2	0.2540	0.1200	1	1	1.090	50	82	0
62	1	495	1	1	1	0.2540	0.1200	1	1	0.568	78	0	82
62	1	496	9	2	2	0.2540	0.1200	0	1	0.556	0	0	0
62	1	497	0	2	2	0.2540	0.1200	0	1	0.446	9	82	82
62	1	498	1	2	2	0.2540	0.1200	1	1	0.781	57	82	0
62	1	499	9	2	2	0.2540	0.1200	1	1	0.535	0	0	82
62	1	500	1	1	1	0.2540	0.1200	1	1	2.075	50	0	82
62	1	501	0	1	1	0.2540	0.1200	0	1	0.559	8	82	82
62	1	502	1	2	3	0.2540	0.1200	0	0	0.762	0	0	0
62	1	503	0	2	2	0.2540	0.1200	1	1	0.588	8	0	82
62	1	504	0	2	3	0.2540	0.1200	1	1	0.965	5	0	82
62	1	505	1	1	3	0.2540	0.1200	0	1	0.601	75	0	0
62	1	506	9	2	2	0.2540	0.1200	1	1	0.529	0	82	0
62	1	507	0	1	3	0.2540	0.1200	1	1	0.763	6	82	0
62	1	508	1	1	2	0.2540	0.1200	1	1	0.677	67	0	82
62	1	509	1	2	2	0.2540	0.1200	0	1	0.637	71	0	0
62	1	510	0	1	3	0.2540	0.1200	0	0	0.751	0	82	82
62	1	511	0	1	1	0.2540	0.1200	1	1	0.666	7	82	0
62	1	512	0	1	1	0.2540	0.1200	1	1	0.498	9	82	0
62	1	513	1	2	2	0.2540	0.1200	1	1	0.752	60	82	0
62	1	514	0	1	1	0.2540	0.1200	1	1	0.475	9	82	0
62	1	515	1	2	3	0.2540	0.1200	0	1	0.488	86	0	0
62	1	516	0	1	1	0.2540	0.1200	1	1	0.590	8	82	0
62	1	517	0	2	2	0.2540	0.1200	1	1	0.512	8	0	82
62	1	518	9	1	1	0.2540	0.1200	1	1	0.708	0	82	0
62	1	519	9	1	1	0.2540	0.1200	1	1	0.698	0	0	82
62	1	520	1	1	2	0.2540	0.1200	1	1	0.568	78	0	82
62	1	521	1	1	3	0.2540	0.1200	0	1	0.653	70	0	0
62	1	522	1	2	1	0.2540	0.1200	1	1	0.570	78	82	0
62	1	523	9	1	3	0.2540	0.1200	1	1	0.605	0	0	82
62	1	524	0	1	1	0.2540	0.1200	0	1	0.486	9	82	82
62	1	525	0	2	2	0.2540	0.1200	1	1	0.458	9	0	82
62	1	526	1	1	1	0.2540	0.1200	1	1	0.634	72	0	82
62	1	527	1	1	3	0.2540	0.1200	1	1	0.521	83	0	82
62	1	528	1	1	2	0.2540	0.1200	0	1	0.493	86	0	0
62	1	529	9	2	3	0.2540	0.1200	1	1	0.505	0	82	0
62	1	530	0	1	1	0.2540	0.1200	0	1	0.383	10	82	82
62	1	531	1	2	3	0.2540	0.1200	0	1	0.603	75	0	0
62	1	532	1	1	3	0.2540	0.1200	0	1	0.709	64	0	0
62	1	533	1	1	1	0.2540	0.1200	0	1	0.500	85	0	0
62	1	534	9	2	3	0.2540	0.1200	0	1	0.849	0	82	82
62	1	535	1	2	2	0.2540	0.1200	0	1	0.551	80	0	0
62	1	536	1	1	3	0.2540	0.1200	1	1	0.644	71	0	82
62	1	537	1	2	3	0.2540	0.1200	1	1	0.665	68	82	0
62	1	538	0	2	2	0.2540	0.1200	1	1	0.486	9	0	82
62	1	539	0	2	2	0.2540	0.1200	0	1	0.765	6	82	82
62	1	540	0	2	2	0.2540	0.1200	0	1	0.535	8	82	82
62	1	541	0	1	2	0.2540	0.1200	0	1	0.622	7	82	82
62	1	542	1	1	1	0.2540	0.1200	1	1	0.751	60	0	82
62	1	543	1	1	1	0.2540	0.1200	1	1	0.610	74	0	82
62	1	544	0	2	3	0.2540	0.1200	1	1	0.656	7	0	82
62	1	545	0	1	2	0.2540	0.1200	0	1	0.519	8	82	82
62	1	546	9	1	1	0.2540	0.1200	1	0	0.593	0	82	0
62	1	547	0	1	3	0.2540	0.1200	1	1	0.692	7	82	0
62	1	548	0	1	3	0.2540	0.1200	0	1	0.592	8	82	82
62	1	549	1	2	3	0.2540	0.1200	1	1	0.529	82	82	0
62	1	550	9	1	1	0.2540	0.1200	1	0	0.636	0	82	0
62	1	551	9	2	3	0.2540	0.1200	1	1	0.546	0	82	0
62	1	552	9	2	3	0.2540	0.1200	0	1	0.573	0	0	0
62	1	553	9	1	1	0.2540	0.1200	0	1	0.446	0	82	82
62	1	554	1	1	1	0.2540	0.1200	1	1	0.855	50	0	82
62	1	555	1	2	2	0.2540	0.1200	0	1	0.572	78	0	0
62	1	556	1	1	1	0.2540	0.1200	1	1	0.641	71	0	82
62	1	557	0	1	3	0.2540	0.1200	0	1	0.601	7	82	82
62	1	558	0	2	1	0.2540	0.1200	0	0	0.649	0	82	82
62	1	559	9	2	2	0.2540	0.1200	1	1	1.152	0	0	82
62	1	560	1	1	1	0.2540	0.1200	1	1	2.618	50	0	82
62	1	561	1	2	2	0.2540	0.1200	1	1	0.520	83	82	0
62	1	562	1	2	3	0.2540	0.1200	1	1	0.510	84	82	0
62	1	563	0	1	1	0.2540	0.1200	1	1	1.012	5	82	0
62	1	564	0	2	3	0.2540	0.1200	0	1	0.478	9	82	82
62	1	565	1	2	3	0.2540	0.1200	1	1	0.531	82	82	0
62	1	566	9	2	2	0.2540	0.1200	0	1	0.423	0	0	0
62	1	567	0	1	1	0.2540	0.1200	0	1	0.513	8	82	82
62	1	568	0	2	3	0.2540	0.1200	1	1	0.492	9	0	82
62	1	569	1	2	1	0.2540	0.1200	0	1	0.601	75	0	0
62	1	570	1	1	1	0.2540	0.1200	0	1	0.658	69	0	0
62	1	571	1	2	2	0.2540	0.1200	0	1	0.674	68	0	0
62	1	572	1	2	3	0.2540	0.1200	1	1	0.503	85	82	0
62	1	573	0	1	3	0.2540	0.1200	1	1	0.854	5	82	0
62	1	574	0	1	3	0.2540	0.1200	1	1	0.727	6	82	0
62	1	575	1	1	1	0.2540	0.1200	0	1	0.474	88	0	0
62	1	576	9	1	1	0.2540	0.1200	0	1	0.434	0	0	0
62	1	577	1	2	3	0.2540	0.1200	0	1	0.458	89	0	0
62	1	578	1	1	1	0.2540	0.1200	1	1	0.514	84	0	82
62	1	579	0	1	3	0.2540	0.1200	1	1	0.599	8	82	0
62	1	580	0	1	3	0.2540	0.1200	0	1	0.454	9	82	82
62	1	581	1	2	2	0.2540	0.1200	1	1	0.454	90	82	0
62	1	582	1	2	2	0.2540	0.1200	1	1	0.429	92	82	0
62	1	583	0	1	1	0.2540	0.1200	1	1	0.494	9	82	0
62	1	584	1	2	2	0.2540	0.1200	0	1	0.459	89	0	0
62	1	585	1	1	3	0.2540	0.1200	1	1	0.521	83	0	82
62	1	586	0	2	3	0.2540	0.1200	0	1	0.429	9	82	82
62	1	587	0	2	2	0.2540	0.1200	0	1	0.469	9	82	82
62	1	588	0	1	3	0.2540	0.1200	0	0	0.490	0	82	82
62	1	589	1	1	3	0.2540	0.1200	0	1	0.801	55	0	0
62	1	590	9	1	3	0.2540	0.1200	0	1	0.539	0	82	82
62	1	591	0	1	3	0.2540	0.1200	0	1	0.463	9	82	82
62	1	592	9	1	1	0.2540	0.1200	0	1	0.469	0	0	0
62	1	593	0	2	3	0.2540	0.1200	0	1	0.670	7	82	82
62	1	594	9	1	1	0.2540	0.1200	1	1	2.614	0	0	82
62	1	595	1	2	2	0.2540	0.1200	1	1	0.493	86	82	0
62	1	596	1	2	2	0.2540	0.1200	0	1	0.682	67	0	0
62	1	597	1	2	3	0.2540	0.1200	0	1	0.562	79	0	0
62	1	598	1	2	2	0.2540	0.1200	1	1	0.549	80	82	0
62	1	599	9	1	1	0.2540	0.1200	1	0	2.434	0	0	82
62	1	600	0	1	3	0.2540	0.1200	0	1	0.532	8	82	82
62	1	601	1	1	3	0.2540	0.1200	0	1	0.682	67	0	0
62	1	602	0	1	1	0.2540	0.1200	1	1	0.601	7	82	0
62	1	603	0	2	1	0.2540	0.1200	0	1	0.540	8	82	82
62	1	604	0	1	1	0.2540	0.1200	1	1	0.495	9	82	0
62	1	605	0	2	2	0.2540	0.1200	1	1	0.452	9	0	82
62	1	606	9	1	3	0.2540	0.1200	0	1	0.429	0	0	0
62	1	607	0	2	2	0.2540	0.1200	0	1	0.439	9	82	82
62	1	608	0	2	3	0.2540	0.1200	0	1	0.477	9	82	82
62	1	609	1	1	3	0.2540	0.1200	1	1	0.514	84	0	82
62	1	610	0	1	1	0.2540	0.1200	0	1	0.430	9	82	82
62	1	611	1	1	3	0.2540	0.1200	1	1	0.476	87	0	82
62	1	612	0	2	2	0.2540	0.1200	1	0	0.747	0	0	82
62	1	613	9	1	1	0.2540	0.1200	0	1	0.441	0	82	82
62	1	614	0	2	3	0.2540	0.1200	0	1	0.737	6	82	82
62	1	615	1	2	3	0.2540	0.1200	1	1	0.526	82	82	0
62	1	616	0	2	2	0.2540	0.1200	0	1	0.520	8	82	82
62	1	617	0	2	3	0.2540	0.1200	0	1	0.454	9	82	82
62	1	618	1	1	1	0.2540	0.1200	0	1	0.437	91	0	0
62	1	619	0	2	2	0.2540	0.1200	1	1	0.462	9	0	82
62	1	620	1	1	1	0.2540	0.1200	0	1	0.371	98	0	0
62	1	621	1	1	1	0.2540	0.1200	1	1	0.692	66	0	82
62	1	622	9	1	1	0.2540	0.1200	0	1	0.403	0	82	82
62	1	623	1	1	3	0.2540	0.1200	1	1	0.540	81	0	82
62	1	624	1	1	3	0.2540	0.1200	0	1	0.424	93	0	0
62	1	625	0	1	1	0.2540	0.1200	0	1	0.384	10	82	82
62	1	626	0	1	1	0.2540	0.1200	1	1	0.490	9	82	0
62	1	627	0	2	3	0.2540	0.1200	1	1	0.551	8	0	82
62	1	628	0	2	3	0.2540	0.1200	1	1	0.611	7	0	82
62	1	629	0	2	2	0.2540	0.1200	0	1	0.462	9	82	82
62	1	630	0	1	3	0.2540	0.1200	0	1	0.780	6	82	82
62	1	631	0	1	3	0.2540	0.1200	1	1	0.645	7	82	0
62	1	632	0	1	1	0.2540	0.1200	1	1	0.627	7	82	0
62	1	633	0	1	3	0.2540	0.1200	1	1	0.549	8	82	0
62	1	634	1	1	3	0.2540	0.1200	1	1	0.386	96	0	82
62	1	635	1	1	1	0.2540	0.1200	0	1	0.515	84	0	0
62	1	636	0	1	1	0.2540	0.1200	1	0	1.143	0	82	0
62	1	637	1	1	3	0.2540	0.1200	0	1	0.875	50	0	0
62	1	638	0	1	3	0.2540	0.1200	1	1	0.563	8	82	0
62	1	639	0	1	1	0.2540	0.1200	0	1	0.412	9	82	82
62	1	640	1	1	3	0.2540	0.1200	1	1	0.452	90	0	82
62	1	641	1	2	2	0.2540	0.1200	0	0	0.657	0	0	0
62	1	642	1	2	1	0.2540	0.1200	0	0	0.665	0	0	0
62	1	643	1	1	2	0.2540	0.1200	1	1	1.050	50	0	82
62	1	644	1	1	3	0.2540	0.1200	1	1	0.707	64	0	82
62	1	645	0	1	3	0.2540	0.1200	1	1	0.592	8	82	0
62	1	646	1	2	3	0.2540	0.1200	0	1	0.658	69	0	0
62	1	647	1	2	3	0.2540	0.1200	1	1	0.481	87	82	0
62	1	648	9	1	3	0.2540	0.1200	0	1	0.701	0	0	0
62	1	649	1	2	2	0.2540	0.1200	1	1	0.723	63	82	0
62	1	650	9	2	1	0.2540	0.1200	1	1	0.729	0	0	82
62	1	651	9	1	1	0.2540	0.1200	0	1	0.517	0	82	82
62	1	652	1	1	1	0.2540	0.1200	0	1	0.490	86	0	0
62	1	653	0	1	2	0.2540	0.1200	1	1	0.578	8	82	0
62	1	654	9	1	3	0.2540	0.1200	1	1	0.771	0	0	82
62	1	655	1	1	3	0.2540	0.1200	0	1	0.469	88	0	0
62	1	656	9	1	2	0.2540	0.1200	0	1	0.523	0	0	0
62	1	657	0	2	1	0.2540	0.1200	0	1	0.977	5	82	82
62	1	658	1	2	1	0.2540	0.1200	1	1	0.561	79	82	0
62	1	659	0	1	3	0.2540	0.1200	1	0	2.020	0	82	0
62	1	660	0	1	3	0.2540	0.1200	0	1	0.611	7	82	82
62	1	661	1	1	3	0.2540	0.1200	1	1	0.801	55	0	82
62	1	662	0	2	1	0.2540	0.1200	1	1	0.491	9	0	82
62	1	663	0	2	1	0.2540	0.1200	0	1	0.473	9	82	82
62	1	664	1	1	3	0.2540	0.1200	1	1	0.920	50	0	82
62	1	665	9	1	3	0.2540	0.1200	0	1	0.491	0	82	82
62	1	666	1	1	2	0.2540	0.1200	0	1	0.585	76	0	0
62	1	667	0	2	2	0.2540	0.1200	1	1	0.490	9	0	82
62	1	668	9	2	2	0.2540	0.1200	0	1	0.414	0	82	82
62	1	669	9	2	1	0.2540	0.1200	0	1	0.702	0	82	82
62	1	670	0	1	2	0.2540	0.1200	0	1	0.587	8	82	82
62	1	671	0	2	2	0.2540	0.1200	1	1	0.501	8	0	82
62	1	672	1	1	3	0.2540	0.1200	0	1	0.530	82	0	0
62	1	673	0	2	3	0.2540	0.1200	0	1	0.613	7	82	82
62	1	674	0	2	2	0.2540	0.1200	1	1	0.575	8	0	82
62	1	675	0	2	2	0.2540	0.1200	0	1	0.530	8	82	82
62	1	676	0	1	3	0.2540	0.1200	1	1	0.751	6	82	0
62	1	677	1	2	3	0.2540	0.1200	0	1	0.715	63	0	0
62	1	678	0	2	2	0.2540	0.1200	0	1	0.434	9	82	82
62	1	679	1	2	3	0.2540	0.1200	1	1	0.595	76	82	0
62	1	680	0	2	2	0.2540	0.1200	0	1	0.414	9	82	82
62	1	681	1	1	2	0.2540	0.1200	0	1	2.787	50	0	0
62	1	682	1	1	3	0.2540	0.1200	1	1	1.333	50	0	82
62	1	683	9	1	3	0.2540	0.1200	1	1	0.672	0	82	0
62	1	684	0	2	3	0.2540	0.1200	1	1	0.589	8	0	82
62	1	685	0	1	1	0.2540	0.1200	1	1	0.541	8	82	0
62	1	686	0	2	2	0.2540	0.1200	1	1	0.552	8	0	82
62	1	687	9	2	1	0.2540	0.1200	0	1	0.738	0	0	0
62	1	688	1	2	3	0.2540	0.1200	0	1	0.622	73	0	0
62	1	689	0	1	1	0.2540	0.1200	0	1	0.559	8	82	82
62	1	690	1	2	3	0.2540	0.1200	1	1	0.499	85	82	0
62	1	691	1	2	1	0.2540	0.1200	0	0	0.592	0	0	0
62	1	692	9	2	2	0.2540	0.1200	1	1	0.537	0	0	82
62	1	693	0	2	2	0.2540	0.1200	1	1	0.476	9	0	82
62	1	694	1	2	3	0.2540	0.1200	1	1	0.499	85	82	0
62	1	695	1	2	2	0.2540	0.1200	1	1	0.433	92	82	0
62	1	696	0	2	3	0.2540	0.1200	1	1	0.456	9	0	82
62	1	697	1	2	1	0.2540	0.1200	1	1	0.528	82	82	0
62	1	698	1	1	1	0.2540	0.1200	0	1	0.779	57	0	0
62	1	699	0	2	3	0.2540	0.1200	0	1	0.555	8	82	82
62	1	700	0	1	1	0.2540	0.1200	1	1	2.149	5	82	0
62	1	701	1	1	3	0.2540	0.1200	0	1	0.498	85	0	0
62	1	702	0	1	1	0.2540	0.1200	0	1	0.465	9	82	82
62	1	703	0	1	3	0.2540	0.1200	0	1	0.462	9	82	82
62	1	704	0	2	2	0.2540	0.1200	0	1	0.828	5	82	82
62	1	705	0	1	2	0.2540	0.1200	0	1	0.675	7	82	82
62	1	706	0	2	3	0.2540	0.1200	1	1	0.688	7	0	82
62	1	707	9	1	3	0.2540	0.1200	1	1	0.600	0	82	0
62	1	708	0	2	3	0.2540	0.1200	1	1	0.577	8	0	82
62	1	709	1	2	2	0.2540	0.1200	1	1	0.434	92	82	0
62	1	710	0	2	2	0.2540	0.1200	1	1	1.228	5	0	82
62	1	711	1	1	1	0.2540	0.1200	1	1	1.364	50	0	82
62	1	712	0	1	3	0.2540	0.1200	1	1	0.735	6	82	0
62	1	713	9	1	1	0.2540	0.1200	1	1	0.677	0	0	82
62	1	714	1	1	1	0.2540	0.1200	0	1	0.604	75	0	0
62	1	715	0	1	1	0.2540	0.1200	0	1	0.455	9	82	82
62	1	716	1	2	2	0.2540	0.1200	1	1	0.439	91	82	0
62	1	717	9	2	2	0.2540	0.1200	1	1	0.438	0	82	0
62	1	718	1	1	1	0.2540	0.1200	0	1	0.444	91	0	0
62	1	719	1	2	2	0.2540	0.1200	1	1	0.419	93	82	0
62	1	720	0	1	2	0.2540	0.1200	1	0	0.517	0	82	0
