sub	sess	t	rew	loc	cue	co1	co2	or	resp	rt	rew_tot	left_col	right_col
130	1	1	1	2	3	0.1824	0.2670	1	1	0.833	52	82	0
130	1	2	0	2	3	0.1824	0.2670	0	1	0.786	6	82	82
130	1	3	1	1	1	0.1824	0.2670	1	1	0.580	77	0	82
130	1	4	0	2	3	0.1824	0.2670	1	1	0.932	5	0	82
130	1	5	1	1	3	0.1824	0.2670	0	1	0.697	65	0	0
130	1	6	0	2	2	0.1824	0.2670	0	1	0.629	7	82	82
130	1	7	1	1	1	0.1824	0.2670	0	1	0.614	74	0	0
130	1	8	9	1	3	0.1824	0.2670	1	1	0.888	0	0	82
130	1	9	0	2	3	0.1824	0.2670	0	1	0.736	6	82	82
130	1	10	1	2	3	0.1824	0.2670	1	1	0.740	61	82	0
130	1	11	1	2	3	0.1824	0.2670	1	1	0.624	73	82	0
130	1	12	0	1	3	0.1824	0.2670	1	1	0.783	6	82	0
130	1	13	0	2	2	0.1824	0.2670	0	1	0.611	7	82	82
130	1	14	0	2	2	0.1824	0.2670	1	1	0.661	7	0	82
130	1	15	9	2	2	0.1824	0.2670	1	1	0.507	0	0	82
130	1	16	9	2	3	0.1824	0.2670	1	1	0.654	0	82	0
130	1	17	0	1	1	0.1824	0.2670	0	1	0.676	7	82	82
130	1	18	1	1	1	0.1824	0.2670	1	1	0.521	83	0	82
130	1	19	0	2	2	0.1824	0.2670	0	1	0.663	7	82	82
130	1	20	0	2	3	0.1824	0.2670	0	1	0.789	6	82	82
130	1	21	1	1	1	0.1824	0.2670	0	1	0.786	56	0	0
130	1	22	1	1	1	0.1824	0.2670	0	1	0.514	84	0	0
130	1	23	0	2	2	0.1824	0.2670	1	1	0.534	8	0	82
130	1	24	9	2	3	0.1824	0.2670	0	1	0.731	0	82	82
130	1	25	0	1	1	0.1824	0.2670	0	1	0.630	7	82	82
130	1	26	9	1	1	0.1824	0.2670	0	1	0.597	0	0	0
130	1	27	1	1	1	0.1824	0.2670	1	1	0.886	50	0	82
130	1	28	1	2	3	0.1824	0.2670	0	1	0.596	75	0	0
130	1	29	0	2	2	0.1824	0.2670	0	1	0.420	9	82	82
130	1	30	0	2	3	0.1824	0.2670	0	1	1.062	5	82	82
130	1	31	9	2	3	0.1824	0.2670	0	1	1.038	0	0	0
130	1	32	1	2	3	0.1824	0.2670	0	1	0.599	75	0	0
130	1	33	0	1	3	0.1824	0.2670	0	1	1.778	5	82	82
130	1	34	0	1	3	0.1824	0.2670	1	0	1.293	0	82	0
130	1	35	9	2	3	0.1824	0.2670	1	1	0.896	0	82	0
130	1	36	0	1	3	0.1824	0.2670	1	1	1.140	5	82	0
130	1	37	0	2	1	0.1824	0.2670	0	1	0.810	5	82	82
130	1	38	9	1	3	0.1824	0.2670	1	1	0.746	0	0	82
130	1	39	1	2	2	0.1824	0.2670	0	1	0.511	84	0	0
130	1	40	0	2	2	0.1824	0.2670	1	1	0.636	7	0	82
130	1	41	1	1	1	0.1824	0.2670	0	1	0.789	56	0	0
130	1	42	0	1	1	0.1824	0.2670	1	1	0.512	8	82	0
130	1	43	1	1	3	0.1824	0.2670	1	1	0.694	66	0	82
130	1	44	9	1	3	0.1824	0.2670	0	1	0.578	0	82	82
130	1	45	1	2	2	0.1824	0.2670	0	1	0.490	86	0	0
130	1	46	1	1	1	0.1824	0.2670	1	1	0.497	85	0	82
130	1	47	1	2	2	0.1824	0.2670	0	1	0.382	97	0	0
130	1	48	0	1	3	0.1824	0.2670	1	1	0.953	5	82	0
130	1	49	1	1	3	0.1824	0.2670	1	1	0.626	72	0	82
130	1	50	9	1	2	0.1824	0.2670	1	1	0.690	0	0	82
130	1	51	0	1	3	0.1824	0.2670	0	1	0.745	6	82	82
130	1	52	0	2	2	0.1824	0.2670	0	1	0.357	10	82	82
130	1	53	9	2	3	0.1824	0.2670	1	1	0.713	0	82	0
130	1	54	1	1	1	0.1824	0.2670	1	1	0.588	76	0	82
130	1	55	0	1	3	0.1824	0.2670	1	1	0.639	7	82	0
130	1	56	1	1	1	0.1824	0.2670	1	1	0.544	81	0	82
130	1	57	1	2	3	0.1824	0.2670	1	1	1.388	50	82	0
130	1	58	0	1	2	0.1824	0.2670	0	1	0.680	7	82	82
130	1	59	1	2	3	0.1824	0.2670	0	1	0.814	54	0	0
130	1	60	0	2	2	0.1824	0.2670	1	1	0.496	9	0	82
130	1	61	1	2	2	0.1824	0.2670	0	1	0.473	88	0	0
130	1	62	1	2	1	0.1824	0.2670	0	1	1.094	50	0	0
130	1	63	0	1	3	0.1824	0.2670	1	1	0.722	6	82	0
130	1	64	9	2	2	0.1824	0.2670	1	1	0.430	0	82	0
130	1	65	0	1	1	0.1824	0.2670	0	1	0.631	7	82	82
130	1	66	1	1	2	0.1824	0.2670	1	0	1.095	0	0	82
130	1	67	1	1	3	0.1824	0.2670	0	1	0.651	70	0	0
130	1	68	1	1	1	0.1824	0.2670	0	1	0.521	83	0	0
130	1	69	9	2	3	0.1824	0.2670	1	1	0.726	0	82	0
130	1	70	1	2	2	0.1824	0.2670	0	1	0.457	89	0	0
130	1	71	9	1	1	0.1824	0.2670	1	1	0.527	0	0	82
130	1	72	1	1	3	0.1824	0.2670	0	1	0.572	78	0	0
130	1	73	1	2	1	0.1824	0.2670	1	0	0.806	0	82	0
130	1	74	1	1	1	0.1824	0.2670	0	1	0.631	72	0	0
130	1	75	9	1	1	0.1824	0.2670	0	1	0.567	0	0	0
130	1	76	0	1	1	0.1824	0.2670	0	1	0.689	7	82	82
130	1	77	1	1	3	0.1824	0.2670	1	1	0.831	52	0	82
130	1	78	0	2	2	0.1824	0.2670	1	1	0.519	8	0	82
130	1	79	9	1	3	0.1824	0.2670	0	1	0.588	0	0	0
130	1	80	0	2	3	0.1824	0.2670	0	1	0.966	5	82	82
130	1	81	0	1	3	0.1824	0.2670	0	1	0.693	7	82	82
130	1	82	0	2	3	0.1824	0.2670	1	1	0.705	6	0	82
130	1	83	1	2	2	0.1824	0.2670	0	1	0.558	79	0	0
130	1	84	1	1	1	0.1824	0.2670	1	1	0.480	87	0	82
130	1	85	9	2	3	0.1824	0.2670	0	1	0.518	0	0	0
130	1	86	1	2	3	0.1824	0.2670	0	1	0.452	90	0	0
130	1	87	9	2	1	0.1824	0.2670	0	1	0.714	0	82	82
130	1	88	1	2	2	0.1824	0.2670	0	1	0.444	91	0	0
130	1	89	1	2	3	0.1824	0.2670	1	1	0.627	72	82	0
130	1	90	9	1	1	0.1824	0.2670	0	1	0.572	0	0	0
130	1	91	9	2	3	0.1824	0.2670	0	1	0.519	0	82	82
130	1	92	0	1	3	0.1824	0.2670	1	1	1.349	5	82	0
130	1	93	0	1	3	0.1824	0.2670	0	1	1.032	5	82	82
130	1	94	1	2	1	0.1824	0.2670	1	1	0.718	63	82	0
130	1	95	9	2	2	0.1824	0.2670	0	1	0.443	0	82	82
130	1	96	1	2	3	0.1824	0.2670	0	1	0.608	74	0	0
130	1	97	0	2	2	0.1824	0.2670	0	1	0.451	9	82	82
130	1	98	0	1	3	0.1824	0.2670	0	1	0.907	5	82	82
130	1	99	1	1	3	0.1824	0.2670	0	1	0.593	76	0	0
130	1	100	0	2	2	0.1824	0.2670	0	1	0.458	9	82	82
130	1	101	9	1	3	0.1824	0.2670	1	1	0.711	0	82	0
130	1	102	1	1	1	0.1824	0.2670	1	1	0.579	77	0	82
130	1	103	0	1	2	0.1824	0.2670	1	0	1.503	0	82	0
130	1	104	1	1	1	0.1824	0.2670	0	1	0.628	72	0	0
130	1	105	9	1	2	0.1824	0.2670	0	1	0.757	0	0	0
130	1	106	1	2	1	0.1824	0.2670	1	1	0.672	68	82	0
130	1	107	1	1	3	0.1824	0.2670	0	1	0.550	80	0	0
130	1	108	1	2	3	0.1824	0.2670	0	1	0.475	87	0	0
130	1	109	0	1	3	0.1824	0.2670	1	1	0.712	6	82	0
130	1	110	1	1	1	0.1824	0.2670	1	0	1.293	0	0	82
130	1	111	0	2	3	0.1824	0.2670	0	1	0.612	7	82	82
130	1	112	1	2	2	0.1824	0.2670	1	1	1.191	50	82	0
130	1	113	0	1	1	0.1824	0.2670	0	1	0.615	7	82	82
130	1	114	1	1	3	0.1824	0.2670	0	1	0.526	82	0	0
130	1	115	0	2	2	0.1824	0.2670	0	1	0.396	10	82	82
130	1	116	0	1	1	0.1824	0.2670	0	1	0.396	10	82	82
130	1	117	9	1	1	0.1824	0.2670	0	1	0.502	0	82	82
130	1	118	0	2	1	0.1824	0.2670	1	1	0.869	5	0	82
130	1	119	0	2	2	0.1824	0.2670	0	1	0.390	10	82	82
130	1	120	0	2	2	0.1824	0.2670	1	1	0.521	8	0	82
130	1	121	0	2	3	0.1824	0.2670	1	1	0.614	7	0	82
130	1	122	0	1	1	0.1824	0.2670	1	1	0.696	7	82	0
130	1	123	1	1	3	0.1824	0.2670	1	1	0.564	79	0	82
130	1	124	1	1	3	0.1824	0.2670	1	1	0.461	89	0	82
130	1	125	0	2	2	0.1824	0.2670	1	1	0.565	8	0	82
130	1	126	1	1	1	0.1824	0.2670	1	1	0.481	87	0	82
130	1	127	0	2	3	0.1824	0.2670	1	1	0.575	8	0	82
130	1	128	0	1	3	0.1824	0.2670	0	1	0.559	8	82	82
130	1	129	1	1	3	0.1824	0.2670	1	1	0.587	76	0	82
130	1	130	1	1	3	0.1824	0.2670	0	1	0.518	83	0	0
130	1	131	1	2	3	0.1824	0.2670	0	1	0.762	59	0	0
130	1	132	9	1	1	0.1824	0.2670	1	1	0.630	0	82	0
130	1	133	0	2	1	0.1824	0.2670	1	1	0.564	8	0	82
130	1	134	0	2	3	0.1824	0.2670	0	1	1.240	5	82	82
130	1	135	9	2	2	0.1824	0.2670	0	1	0.383	0	0	0
130	1	136	9	2	3	0.1824	0.2670	1	1	0.603	0	0	82
130	1	137	0	1	1	0.1824	0.2670	1	1	0.596	8	82	0
130	1	138	1	1	2	0.1824	0.2670	0	0	0.534	0	0	0
130	1	139	1	1	3	0.1824	0.2670	0	1	0.579	77	0	0
130	1	140	1	2	2	0.1824	0.2670	1	1	0.485	87	82	0
130	1	141	0	2	3	0.1824	0.2670	0	1	0.498	9	82	82
130	1	142	0	1	3	0.1824	0.2670	1	1	0.616	7	82	0
130	1	143	1	2	2	0.1824	0.2670	1	1	0.616	73	82	0
130	1	144	0	2	1	0.1824	0.2670	0	1	0.578	8	82	82
130	1	145	1	1	3	0.1824	0.2670	1	1	0.651	70	0	82
130	1	146	0	2	2	0.1824	0.2670	1	1	0.458	9	0	82
130	1	147	0	2	3	0.1824	0.2670	1	1	0.849	5	0	82
130	1	148	0	1	3	0.1824	0.2670	0	1	0.935	5	82	82
130	1	149	9	1	1	0.1824	0.2670	1	1	0.490	0	82	0
130	1	150	0	1	3	0.1824	0.2670	1	1	1.296	5	82	0
130	1	151	1	1	3	0.1824	0.2670	0	1	0.572	78	0	0
130	1	152	9	1	3	0.1824	0.2670	0	1	0.501	0	82	82
130	1	153	0	1	1	0.1824	0.2670	0	1	0.475	9	82	82
130	1	154	0	2	3	0.1824	0.2670	0	1	0.585	8	82	82
130	1	155	1	2	2	0.1824	0.2670	0	1	0.469	88	0	0
130	1	156	1	1	1	0.1824	0.2670	0	0	0.580	0	0	0
130	1	157	1	1	3	0.1824	0.2670	1	1	0.662	69	0	82
130	1	158	1	2	2	0.1824	0.2670	1	0	0.382	0	82	0
130	1	159	9	1	1	0.1824	0.2670	1	1	0.432	0	0	82
130	1	160	9	2	1	0.1824	0.2670	0	1	0.689	0	0	0
130	1	161	1	1	2	0.1824	0.2670	0	1	0.862	50	0	0
130	1	162	1	2	1	0.1824	0.2670	1	1	0.877	50	82	0
130	1	163	0	1	1	0.1824	0.2670	1	1	1.252	5	82	0
130	1	164	1	1	1	0.1824	0.2670	0	1	0.692	66	0	0
130	1	165	0	2	1	0.1824	0.2670	1	1	0.752	6	0	82
130	1	166	0	2	3	0.1824	0.2670	1	1	0.596	8	0	82
130	1	167	1	2	2	0.1824	0.2670	1	0	1.390	0	82	0
130	1	168	1	1	2	0.1824	0.2670	1	1	0.527	82	0	82
130	1	169	1	1	1	0.1824	0.2670	1	1	0.489	86	0	82
130	1	170	1	2	3	0.1824	0.2670	0	1	0.606	74	0	0
130	1	171	1	2	2	0.1824	0.2670	1	1	0.639	71	82	0
130	1	172	9	1	2	0.1824	0.2670	0	1	0.809	0	82	82
130	1	173	1	1	2	0.1824	0.2670	1	1	0.690	66	0	82
130	1	174	9	2	3	0.1824	0.2670	1	0	0.983	0	0	82
130	1	175	1	2	2	0.1824	0.2670	1	1	0.744	61	82	0
130	1	176	0	1	3	0.1824	0.2670	1	1	0.675	7	82	0
130	1	177	0	1	1	0.1824	0.2670	1	1	0.488	9	82	0
130	1	178	9	1	2	0.1824	0.2670	1	1	0.604	0	82	0
130	1	179	1	2	3	0.1824	0.2670	1	1	0.790	56	82	0
130	1	180	9	1	1	0.1824	0.2670	1	1	0.514	0	82	0
130	1	181	1	2	3	0.1824	0.2670	1	1	0.714	64	82	0
130	1	182	1	2	2	0.1824	0.2670	1	1	0.656	69	82	0
130	1	183	9	2	2	0.1824	0.2670	0	0	1.031	0	82	82
130	1	184	0	2	2	0.1824	0.2670	1	1	0.608	7	0	82
130	1	185	0	2	3	0.1824	0.2670	0	1	0.809	5	82	82
130	1	186	9	2	2	0.1824	0.2670	1	1	0.481	0	82	0
130	1	187	0	2	3	0.1824	0.2670	1	1	0.573	8	0	82
130	1	188	1	2	2	0.1824	0.2670	0	1	0.568	78	0	0
130	1	189	9	2	2	0.1824	0.2670	0	1	0.459	0	82	82
130	1	190	0	2	3	0.1824	0.2670	0	1	0.475	9	82	82
130	1	191	0	2	2	0.1824	0.2670	1	1	0.498	9	0	82
130	1	192	0	1	3	0.1824	0.2670	0	1	0.615	7	82	82
130	1	193	0	2	2	0.1824	0.2670	1	1	0.599	8	0	82
130	1	194	0	1	1	0.1824	0.2670	1	1	0.562	8	82	0
130	1	195	0	2	3	0.1824	0.2670	1	1	0.581	8	0	82
130	1	196	0	2	2	0.1824	0.2670	0	1	0.541	8	82	82
130	1	197	0	1	3	0.1824	0.2670	0	1	0.633	7	82	82
130	1	198	0	1	1	0.1824	0.2670	1	1	0.539	8	82	0
130	1	199	9	2	2	0.1824	0.2670	0	1	0.527	0	0	0
130	1	200	0	1	1	0.1824	0.2670	0	1	0.546	8	82	82
130	1	201	1	2	2	0.1824	0.2670	0	1	1.070	50	0	0
130	1	202	1	2	1	0.1824	0.2670	0	1	0.484	87	0	0
130	1	203	0	1	1	0.1824	0.2670	1	1	0.594	8	82	0
130	1	204	1	2	3	0.1824	0.2670	0	1	0.468	88	0	0
130	1	205	0	1	1	0.1824	0.2670	0	1	0.762	6	82	82
130	1	206	1	1	3	0.1824	0.2670	1	1	0.551	80	0	82
130	1	207	1	2	3	0.1824	0.2670	1	1	0.554	80	82	0
130	1	208	9	2	2	0.1824	0.2670	0	1	0.493	0	0	0
130	1	209	9	2	2	0.1824	0.2670	1	1	0.498	0	0	82
130	1	210	0	1	1	0.1824	0.2670	0	1	0.567	8	82	82
130	1	211	1	2	3	0.1824	0.2670	1	1	0.611	74	82	0
130	1	212	1	2	3	0.1824	0.2670	1	1	0.557	79	82	0
130	1	213	9	1	1	0.1824	0.2670	1	1	0.478	0	0	82
130	1	214	9	2	1	0.1824	0.2670	1	1	0.893	0	82	0
130	1	215	1	2	3	0.1824	0.2670	0	1	0.752	60	0	0
130	1	216	0	2	3	0.1824	0.2670	1	1	0.549	8	0	82
130	1	217	0	1	3	0.1824	0.2670	1	1	0.694	7	82	0
130	1	218	9	2	2	0.1824	0.2670	1	1	0.453	0	82	0
130	1	219	9	2	1	0.1824	0.2670	1	1	0.743	0	0	82
130	1	220	1	2	3	0.1824	0.2670	1	1	0.562	79	82	0
130	1	221	1	1	1	0.1824	0.2670	1	1	0.648	70	0	82
130	1	222	1	1	1	0.1824	0.2670	0	1	0.609	74	0	0
130	1	223	9	1	1	0.1824	0.2670	0	1	0.545	0	0	0
130	1	224	1	1	3	0.1824	0.2670	0	1	0.563	79	0	0
130	1	225	0	1	1	0.1824	0.2670	0	1	0.463	9	82	82
130	1	226	9	1	3	0.1824	0.2670	1	1	0.575	0	0	82
130	1	227	9	1	3	0.1824	0.2670	0	1	0.439	0	82	82
130	1	228	0	2	3	0.1824	0.2670	1	1	0.710	6	0	82
130	1	229	0	1	3	0.1824	0.2670	0	1	0.634	7	82	82
130	1	230	1	1	2	0.1824	0.2670	0	1	0.579	77	0	0
130	1	231	0	1	1	0.1824	0.2670	1	1	0.524	8	82	0
130	1	232	1	2	3	0.1824	0.2670	1	1	0.617	73	82	0
130	1	233	1	2	2	0.1824	0.2670	1	1	0.483	87	82	0
130	1	234	1	2	3	0.1824	0.2670	0	1	0.539	81	0	0
130	1	235	0	2	2	0.1824	0.2670	1	1	0.409	9	0	82
130	1	236	0	2	3	0.1824	0.2670	0	1	0.450	9	82	82
130	1	237	1	1	1	0.1824	0.2670	1	1	0.488	86	0	82
130	1	238	1	1	3	0.1824	0.2670	1	1	0.551	80	0	82
130	1	239	9	2	3	0.1824	0.2670	0	1	0.484	0	0	0
130	1	240	1	2	2	0.1824	0.2670	1	1	0.442	91	82	0
130	1	241	1	1	3	0.1824	0.2670	0	1	0.912	50	0	0
130	1	242	9	1	1	0.1824	0.2670	1	1	0.444	0	82	0
130	1	243	0	1	2	0.1824	0.2670	0	0	0.634	0	82	82
130	1	244	9	1	3	0.1824	0.2670	1	1	0.569	0	82	0
130	1	245	0	1	1	0.1824	0.2670	1	1	0.485	9	82	0
130	1	246	1	2	3	0.1824	0.2670	0	1	0.580	77	0	0
130	1	247	1	1	3	0.1824	0.2670	0	1	0.622	73	0	0
130	1	248	0	2	1	0.1824	0.2670	1	1	0.774	6	0	82
130	1	249	1	1	1	0.1824	0.2670	0	1	0.576	77	0	0
130	1	250	0	2	3	0.1824	0.2670	1	1	0.626	7	0	82
130	1	251	1	1	3	0.1824	0.2670	1	1	0.516	83	0	82
130	1	252	0	1	3	0.1824	0.2670	1	1	0.640	7	82	0
130	1	253	1	1	2	0.1824	0.2670	1	1	0.545	81	0	82
130	1	254	1	2	2	0.1824	0.2670	1	1	0.590	76	82	0
130	1	255	0	1	3	0.1824	0.2670	1	1	0.665	7	82	0
130	1	256	0	2	1	0.1824	0.2670	0	1	0.536	8	82	82
130	1	257	1	1	3	0.1824	0.2670	0	1	0.588	76	0	0
130	1	258	1	2	3	0.1824	0.2670	1	1	0.508	84	82	0
130	1	259	1	2	3	0.1824	0.2670	0	1	0.490	86	0	0
130	1	260	1	1	1	0.1824	0.2670	0	1	0.591	76	0	0
130	1	261	9	2	3	0.1824	0.2670	0	1	0.514	0	82	82
130	1	262	1	2	2	0.1824	0.2670	1	1	0.528	82	82	0
130	1	263	0	1	2	0.1824	0.2670	1	1	0.764	6	82	0
130	1	264	1	1	1	0.1824	0.2670	0	1	0.528	82	0	0
130	1	265	1	1	3	0.1824	0.2670	1	1	0.484	87	0	82
130	1	266	0	2	2	0.1824	0.2670	0	1	0.435	9	82	82
130	1	267	0	1	2	0.1824	0.2670	1	1	0.609	7	82	0
130	1	268	9	1	3	0.1824	0.2670	0	1	0.543	0	82	82
130	1	269	9	1	1	0.1824	0.2670	0	1	0.436	0	82	82
130	1	270	0	2	3	0.1824	0.2670	1	1	0.596	8	0	82
130	1	271	0	1	1	0.1824	0.2670	1	1	0.399	10	82	0
130	1	272	1	1	3	0.1824	0.2670	1	1	0.457	89	0	82
130	1	273	9	1	3	0.1824	0.2670	1	1	0.495	0	82	0
130	1	274	1	2	3	0.1824	0.2670	1	1	0.669	68	82	0
130	1	275	0	1	3	0.1824	0.2670	0	1	1.126	5	82	82
130	1	276	9	2	2	0.1824	0.2670	1	1	0.483	0	82	0
130	1	277	0	2	2	0.1824	0.2670	0	1	0.496	9	82	82
130	1	278	0	2	3	0.1824	0.2670	1	1	0.511	8	0	82
130	1	279	9	1	3	0.1824	0.2670	0	1	0.621	0	0	0
130	1	280	0	2	3	0.1824	0.2670	0	1	0.436	9	82	82
130	1	281	1	2	2	0.1824	0.2670	1	1	0.575	78	82	0
130	1	282	9	2	2	0.1824	0.2670	0	1	0.471	0	0	0
130	1	283	0	1	3	0.1824	0.2670	1	1	0.711	6	82	0
130	1	284	0	1	1	0.1824	0.2670	0	1	0.530	8	82	82
130	1	285	9	2	2	0.1824	0.2670	0	1	0.440	0	82	82
130	1	286	1	1	3	0.1824	0.2670	0	1	0.680	67	0	0
130	1	287	1	2	3	0.1824	0.2670	0	1	0.462	89	0	0
130	1	288	0	1	1	0.1824	0.2670	0	1	0.564	8	82	82
130	1	289	0	2	2	0.1824	0.2670	1	1	0.504	8	0	82
130	1	290	1	2	2	0.1824	0.2670	1	1	0.422	93	82	0
130	1	291	0	1	1	0.1824	0.2670	1	1	0.543	8	82	0
130	1	292	1	2	3	0.1824	0.2670	1	1	0.508	84	82	0
130	1	293	9	1	1	0.1824	0.2670	0	1	0.576	0	82	82
130	1	294	1	2	2	0.1824	0.2670	0	1	0.444	91	0	0
130	1	295	1	2	1	0.1824	0.2670	0	1	0.515	84	0	0
130	1	296	0	1	3	0.1824	0.2670	0	1	0.576	8	82	82
130	1	297	0	1	3	0.1824	0.2670	0	1	0.602	7	82	82
130	1	298	9	2	2	0.1824	0.2670	1	0	0.771	0	0	82
130	1	299	0	1	1	0.1824	0.2670	1	1	0.628	7	82	0
130	1	300	0	1	2	0.1824	0.2670	1	1	0.900	5	82	0
130	1	301	0	2	2	0.1824	0.2670	1	1	0.638	7	0	82
130	1	302	0	1	1	0.1824	0.2670	0	1	0.596	8	82	82
130	1	303	1	1	1	0.1824	0.2670	0	1	0.495	86	0	0
130	1	304	1	1	3	0.1824	0.2670	0	1	0.526	82	0	0
130	1	305	1	1	3	0.1824	0.2670	1	1	0.555	80	0	82
130	1	306	1	2	3	0.1824	0.2670	0	1	0.791	56	0	0
130	1	307	9	1	1	0.1824	0.2670	0	1	0.530	0	82	82
130	1	308	9	2	2	0.1824	0.2670	1	1	0.486	0	0	82
130	1	309	0	2	2	0.1824	0.2670	0	1	0.523	8	82	82
130	1	310	1	2	2	0.1824	0.2670	0	1	0.409	94	0	0
130	1	311	0	1	1	0.1824	0.2670	0	1	0.491	9	82	82
130	1	312	0	2	1	0.1824	0.2670	0	1	0.475	9	82	82
130	1	313	1	1	3	0.1824	0.2670	1	1	0.544	81	0	82
130	1	314	0	2	3	0.1824	0.2670	1	1	0.508	8	0	82
130	1	315	1	2	2	0.1824	0.2670	0	1	0.467	88	0	0
130	1	316	0	2	3	0.1824	0.2670	1	1	0.466	9	0	82
130	1	317	1	2	2	0.1824	0.2670	0	1	0.402	95	0	0
130	1	318	1	1	3	0.1824	0.2670	1	1	0.460	89	0	82
130	1	319	1	2	2	0.1824	0.2670	0	1	0.393	96	0	0
130	1	320	0	2	2	0.1824	0.2670	0	1	0.353	10	82	82
130	1	321	1	2	2	0.1824	0.2670	1	1	0.696	65	82	0
130	1	322	0	2	3	0.1824	0.2670	0	1	0.406	9	82	82
130	1	323	9	1	3	0.1824	0.2670	0	1	0.592	0	0	0
130	1	324	0	2	3	0.1824	0.2670	0	1	0.369	10	82	82
130	1	325	1	1	1	0.1824	0.2670	1	1	-0.062	100	0	82
130	1	326	9	1	1	0.1824	0.2670	1	1	0.375	0	0	82
130	1	327	9	2	3	0.1824	0.2670	0	1	0.401	0	0	0
130	1	328	0	2	3	0.1824	0.2670	0	1	0.339	10	82	82
130	1	329	0	1	2	0.1824	0.2670	0	1	0.270	10	82	82
130	1	330	1	1	2	0.1824	0.2670	0	1	0.342	100	0	0
130	1	331	1	2	2	0.1824	0.2670	0	1	0.363	99	0	0
130	1	332	0	2	2	0.1824	0.2670	1	0	0.358	0	0	82
130	1	333	0	1	1	0.1824	0.2670	1	1	0.498	9	82	0
130	1	334	1	1	1	0.1824	0.2670	0	0	0.383	0	0	0
130	1	335	0	1	1	0.1824	0.2670	1	1	0.432	9	82	0
130	1	336	1	2	2	0.1824	0.2670	1	1	0.425	92	82	0
130	1	337	0	1	1	0.1824	0.2670	1	1	0.338	10	82	0
130	1	338	9	1	3	0.1824	0.2670	0	0	0.564	0	0	0
130	1	339	0	2	2	0.1824	0.2670	0	1	0.398	10	82	82
130	1	340	9	1	3	0.1824	0.2670	1	1	0.560	0	82	0
130	1	341	1	2	3	0.1824	0.2670	1	1	0.529	82	82	0
130	1	342	0	1	3	0.1824	0.2670	1	1	0.662	7	82	0
130	1	343	0	1	2	0.1824	0.2670	0	1	0.580	8	82	82
130	1	344	9	1	3	0.1824	0.2670	1	1	0.485	0	0	82
130	1	345	0	1	1	0.1824	0.2670	0	0	0.379	0	82	82
130	1	346	0	2	3	0.1824	0.2670	1	1	0.685	7	0	82
130	1	347	0	1	3	0.1824	0.2670	0	1	0.629	7	82	82
130	1	348	1	2	3	0.1824	0.2670	0	1	0.565	79	0	0
130	1	349	9	2	3	0.1824	0.2670	1	1	0.559	0	0	82
130	1	350	0	1	3	0.1824	0.2670	0	1	0.683	7	82	82
130	1	351	1	1	1	0.1824	0.2670	1	1	0.593	76	0	82
130	1	352	0	2	2	0.1824	0.2670	1	1	0.442	9	0	82
130	1	353	0	1	3	0.1824	0.2670	0	1	0.552	8	82	82
130	1	354	1	2	1	0.1824	0.2670	0	1	0.581	77	0	0
130	1	355	9	2	3	0.1824	0.2670	0	1	0.390	0	82	82
130	1	356	9	2	3	0.1824	0.2670	1	1	0.519	0	0	82
130	1	357	1	1	3	0.1824	0.2670	0	1	0.777	57	0	0
130	1	358	0	2	2	0.1824	0.2670	0	0	0.643	0	82	82
130	1	359	1	1	1	0.1824	0.2670	0	0	0.459	0	0	0
130	1	360	1	1	1	0.1824	0.2670	1	1	0.424	93	0	82
130	1	361	9	2	2	0.1824	0.2670	1	1	0.498	0	0	82
130	1	362	1	2	1	0.1824	0.2670	0	1	0.469	88	0	0
130	1	363	1	2	3	0.1824	0.2670	0	1	0.429	92	0	0
130	1	364	0	2	3	0.1824	0.2670	0	1	0.367	10	82	82
130	1	365	1	1	1	0.1824	0.2670	1	0	0.337	0	0	82
130	1	366	1	1	1	0.1824	0.2670	1	1	0.373	98	0	82
130	1	367	1	1	1	0.1824	0.2670	0	1	0.505	85	0	0
130	1	368	9	1	1	0.1824	0.2670	1	1	0.288	0	0	82
130	1	369	9	1	1	0.1824	0.2670	1	1	0.471	0	0	82
130	1	370	1	1	1	0.1824	0.2670	1	1	0.312	100	0	82
130	1	371	9	2	3	0.1824	0.2670	1	0	0.437	0	82	0
130	1	372	0	1	3	0.1824	0.2670	0	0	0.412	0	82	82
130	1	373	1	2	2	0.1824	0.2670	1	1	0.447	90	82	0
130	1	374	0	1	3	0.1824	0.2670	0	1	0.552	8	82	82
130	1	375	0	2	3	0.1824	0.2670	1	1	0.884	5	0	82
130	1	376	1	2	1	0.1824	0.2670	1	1	0.544	81	82	0
130	1	377	0	2	3	0.1824	0.2670	0	1	0.485	9	82	82
130	1	378	1	2	2	0.1824	0.2670	1	1	0.428	92	82	0
130	1	379	0	2	1	0.1824	0.2670	1	1	0.502	8	0	82
130	1	380	1	2	2	0.1824	0.2670	1	1	0.380	97	82	0
130	1	381	1	1	1	0.1824	0.2670	0	1	0.573	78	0	0
130	1	382	0	1	2	0.1824	0.2670	1	1	0.791	6	82	0
130	1	383	9	1	3	0.1824	0.2670	0	1	0.496	0	0	0
130	1	384	0	2	2	0.1824	0.2670	1	1	0.621	7	0	82
130	1	385	9	1	3	0.1824	0.2670	1	1	0.439	0	82	0
130	1	386	1	2	2	0.1824	0.2670	1	1	0.368	98	82	0
130	1	387	9	1	2	0.1824	0.2670	1	1	0.588	0	0	82
130	1	388	9	1	3	0.1824	0.2670	0	1	0.622	0	0	0
130	1	389	0	2	3	0.1824	0.2670	1	1	0.527	8	0	82
130	1	390	1	2	2	0.1824	0.2670	1	1	0.323	100	82	0
130	1	391	0	2	3	0.1824	0.2670	1	1	0.511	8	0	82
130	1	392	1	1	3	0.1824	0.2670	0	1	0.613	74	0	0
130	1	393	0	2	2	0.1824	0.2670	0	1	0.407	9	82	82
130	1	394	1	1	3	0.1824	0.2670	0	1	0.536	81	0	0
130	1	395	0	1	3	0.1824	0.2670	1	1	0.572	8	82	0
130	1	396	1	1	3	0.1824	0.2670	0	1	0.464	89	0	0
130	1	397	1	2	2	0.1824	0.2670	1	1	0.502	85	82	0
130	1	398	1	1	3	0.1824	0.2670	0	0	0.426	0	0	0
130	1	399	9	2	2	0.1824	0.2670	1	1	0.474	0	82	0
130	1	400	0	2	1	0.1824	0.2670	0	1	0.425	9	82	82
130	1	401	9	2	2	0.1824	0.2670	0	1	0.456	0	0	0
130	1	402	9	1	3	0.1824	0.2670	1	1	0.464	0	0	82
130	1	403	1	1	2	0.1824	0.2670	0	0	0.565	0	0	0
130	1	404	1	1	2	0.1824	0.2670	0	1	0.543	81	0	0
130	1	405	1	2	3	0.1824	0.2670	1	1	0.521	83	82	0
130	1	406	0	2	3	0.1824	0.2670	0	1	0.453	9	82	82
130	1	407	0	1	3	0.1824	0.2670	1	1	0.574	8	82	0
130	1	408	1	1	3	0.1824	0.2670	0	0	0.432	0	0	0
130	1	409	1	1	3	0.1824	0.2670	0	1	0.482	87	0	0
130	1	410	1	1	3	0.1824	0.2670	1	0	0.447	0	0	82
130	1	411	9	2	2	0.1824	0.2670	0	1	0.470	0	82	82
130	1	412	1	2	3	0.1824	0.2670	1	1	0.452	90	82	0
130	1	413	0	1	3	0.1824	0.2670	0	1	0.605	7	82	82
130	1	414	0	1	1	0.1824	0.2670	0	1	0.407	9	82	82
130	1	415	0	1	1	0.1824	0.2670	0	1	0.391	10	82	82
130	1	416	0	2	2	0.1824	0.2670	1	1	0.440	9	0	82
130	1	417	9	2	3	0.1824	0.2670	0	1	0.536	0	82	82
130	1	418	9	1	3	0.1824	0.2670	0	1	0.742	0	82	82
130	1	419	1	1	1	0.1824	0.2670	1	1	0.523	83	0	82
130	1	420	0	1	3	0.1824	0.2670	1	1	0.567	8	82	0
130	1	421	1	2	2	0.1824	0.2670	0	1	1.165	50	0	0
130	1	422	1	1	2	0.1824	0.2670	0	0	0.496	0	0	0
130	1	423	9	2	2	0.1824	0.2670	1	1	0.547	0	0	82
130	1	424	1	1	1	0.1824	0.2670	0	1	0.566	78	0	0
130	1	425	1	1	1	0.1824	0.2670	0	1	0.455	89	0	0
130	1	426	0	2	3	0.1824	0.2670	1	1	0.725	6	0	82
130	1	427	0	2	3	0.1824	0.2670	0	1	0.459	9	82	82
130	1	428	9	2	3	0.1824	0.2670	0	1	0.410	0	0	0
130	1	429	0	1	3	0.1824	0.2670	0	0	0.613	0	82	82
130	1	430	1	1	2	0.1824	0.2670	1	1	0.901	50	0	82
130	1	431	0	2	3	0.1824	0.2670	0	1	0.443	9	82	82
130	1	432	1	1	1	0.1824	0.2670	0	1	0.498	85	0	0
130	1	433	1	1	3	0.1824	0.2670	0	1	0.504	85	0	0
130	1	434	9	2	3	0.1824	0.2670	1	1	0.604	0	0	82
130	1	435	1	1	3	0.1824	0.2670	0	1	0.550	80	0	0
130	1	436	9	1	3	0.1824	0.2670	0	1	0.466	0	0	0
130	1	437	1	1	2	0.1824	0.2670	1	0	0.299	0	0	82
130	1	438	1	2	2	0.1824	0.2670	1	1	0.616	73	82	0
130	1	439	1	1	3	0.1824	0.2670	0	1	0.520	83	0	0
130	1	440	0	2	2	0.1824	0.2670	0	1	0.397	10	82	82
130	1	441	9	1	3	0.1824	0.2670	1	1	0.671	0	0	82
130	1	442	1	1	3	0.1824	0.2670	1	1	0.468	88	0	82
130	1	443	0	1	1	0.1824	0.2670	1	1	0.425	9	82	0
130	1	444	0	2	1	0.1824	0.2670	1	1	0.586	8	0	82
130	1	445	1	2	2	0.1824	0.2670	0	1	0.483	87	0	0
130	1	446	0	1	3	0.1824	0.2670	1	1	0.498	9	82	0
130	1	447	9	2	3	0.1824	0.2670	0	1	0.424	0	0	0
130	1	448	0	1	1	0.1824	0.2670	1	1	0.841	5	82	0
130	1	449	0	1	3	0.1824	0.2670	0	1	0.569	8	82	82
130	1	450	9	1	1	0.1824	0.2670	0	1	0.515	0	0	0
130	1	451	1	2	2	0.1824	0.2670	1	1	0.458	89	82	0
130	1	452	0	1	3	0.1824	0.2670	1	1	0.601	7	82	0
130	1	453	0	2	2	0.1824	0.2670	1	1	0.377	10	0	82
130	1	454	0	1	1	0.1824	0.2670	1	1	0.675	7	82	0
130	1	455	9	2	1	0.1824	0.2670	0	1	0.825	0	82	82
130	1	456	1	1	1	0.1824	0.2670	1	1	0.506	84	0	82
130	1	457	0	1	2	0.1824	0.2670	0	1	0.616	7	82	82
130	1	458	9	1	1	0.1824	0.2670	0	1	0.409	0	0	0
130	1	459	0	1	1	0.1824	0.2670	0	1	0.362	10	82	82
130	1	460	0	1	1	0.1824	0.2670	0	1	0.477	9	82	82
130	1	461	1	2	3	0.1824	0.2670	0	1	0.483	87	0	0
130	1	462	0	2	2	0.1824	0.2670	0	1	0.352	10	82	82
130	1	463	0	2	2	0.1824	0.2670	0	1	0.305	10	82	82
130	1	464	1	2	2	0.1824	0.2670	0	1	0.360	99	0	0
130	1	465	0	1	3	0.1824	0.2670	1	1	0.539	8	82	0
130	1	466	1	1	3	0.1824	0.2670	1	1	0.425	92	0	82
130	1	467	0	2	2	0.1824	0.2670	1	1	0.610	7	0	82
130	1	468	0	2	1	0.1824	0.2670	1	0	0.461	0	0	82
130	1	469	1	1	3	0.1824	0.2670	0	1	0.628	72	0	0
130	1	470	0	1	3	0.1824	0.2670	0	1	0.508	8	82	82
130	1	471	1	1	1	0.1824	0.2670	0	1	0.482	87	0	0
130	1	472	9	2	3	0.1824	0.2670	1	0	0.430	0	0	82
130	1	473	0	2	3	0.1824	0.2670	0	1	0.493	9	82	82
130	1	474	1	1	1	0.1824	0.2670	0	1	1.252	50	0	0
130	1	475	1	1	3	0.1824	0.2670	1	1	0.541	81	0	82
130	1	476	1	2	3	0.1824	0.2670	1	1	0.479	87	82	0
130	1	477	1	2	2	0.1824	0.2670	0	1	0.508	84	0	0
130	1	478	9	2	3	0.1824	0.2670	0	1	0.467	0	0	0
130	1	479	1	1	1	0.1824	0.2670	0	1	0.529	82	0	0
130	1	480	1	1	1	0.1824	0.2670	1	1	0.477	87	0	82
130	1	481	0	1	1	0.1824	0.2670	0	1	0.570	8	82	82
130	1	482	0	2	3	0.1824	0.2670	0	1	0.470	9	82	82
130	1	483	0	1	3	0.1824	0.2670	1	1	0.557	8	82	0
130	1	484	9	2	3	0.1824	0.2670	1	1	0.514	0	0	82
130	1	485	0	1	1	0.1824	0.2670	0	1	0.607	7	82	82
130	1	486	0	2	3	0.1824	0.2670	0	1	0.425	9	82	82
130	1	487	0	2	3	0.1824	0.2670	0	1	0.351	10	82	82
130	1	488	9	2	2	0.1824	0.2670	0	1	0.355	0	0	0
130	1	489	0	1	1	0.1824	0.2670	0	0	0.416	0	82	82
130	1	490	0	1	1	0.1824	0.2670	1	1	0.511	8	82	0
130	1	491	0	1	2	0.1824	0.2670	0	0	0.620	0	82	82
130	1	492	1	1	1	0.1824	0.2670	1	1	0.494	86	0	82
130	1	493	0	2	3	0.1824	0.2670	1	1	0.571	8	0	82
130	1	494	9	1	1	0.1824	0.2670	1	1	0.494	0	82	0
130	1	495	1	1	3	0.1824	0.2670	1	1	0.444	91	0	82
130	1	496	1	2	2	0.1824	0.2670	1	1	0.475	87	82	0
130	1	497	0	2	1	0.1824	0.2670	0	1	0.618	7	82	82
130	1	498	0	1	3	0.1824	0.2670	0	1	0.715	6	82	82
130	1	499	1	2	3	0.1824	0.2670	0	1	0.430	92	0	0
130	1	500	0	1	2	0.1824	0.2670	0	1	0.830	5	82	82
130	1	501	0	1	2	0.1824	0.2670	1	1	0.535	8	82	0
130	1	502	9	2	3	0.1824	0.2670	1	1	0.539	0	0	82
130	1	503	0	2	2	0.1824	0.2670	1	1	0.589	8	0	82
130	1	504	0	2	2	0.1824	0.2670	1	1	0.344	10	0	82
130	1	505	9	2	3	0.1824	0.2670	1	1	0.331	0	82	0
130	1	506	0	2	3	0.1824	0.2670	0	1	0.449	9	82	82
130	1	507	1	2	2	0.1824	0.2670	0	1	0.361	99	0	0
130	1	508	1	2	3	0.1824	0.2670	0	1	0.362	99	0	0
130	1	509	0	1	3	0.1824	0.2670	0	0	0.571	0	82	82
130	1	510	1	1	1	0.1824	0.2670	1	1	0.382	97	0	82
130	1	511	1	2	1	0.1824	0.2670	0	0	0.030	0	0	0
130	1	512	1	2	3	0.1824	0.2670	0	1	0.313	100	0	0
130	1	513	0	1	3	0.1824	0.2670	0	0	0.477	0	82	82
130	1	514	1	1	3	0.1824	0.2670	1	1	0.508	84	0	82
130	1	515	0	1	3	0.1824	0.2670	1	1	0.600	7	82	0
130	1	516	1	1	3	0.1824	0.2670	1	1	0.410	94	0	82
130	1	517	1	1	3	0.1824	0.2670	0	1	0.553	80	0	0
130	1	518	0	1	1	0.1824	0.2670	1	0	0.605	0	82	0
130	1	519	0	2	2	0.1824	0.2670	0	1	0.416	9	82	82
130	1	520	0	1	1	0.1824	0.2670	0	1	0.522	8	82	82
130	1	521	0	2	2	0.1824	0.2670	0	1	0.392	10	82	82
130	1	522	1	2	3	0.1824	0.2670	1	0	0.444	0	82	0
130	1	523	0	1	3	0.1824	0.2670	1	1	0.309	10	82	0
130	1	524	0	1	3	0.1824	0.2670	0	1	0.457	9	82	82
130	1	525	0	1	1	0.1824	0.2670	0	1	0.455	9	82	82
130	1	526	9	1	2	0.1824	0.2670	1	1	0.598	0	82	0
130	1	527	0	2	3	0.1824	0.2670	1	1	0.455	9	0	82
130	1	528	9	2	2	0.1824	0.2670	1	1	0.396	0	0	82
130	1	529	9	1	1	0.1824	0.2670	0	0	0.348	0	0	0
130	1	530	1	2	1	0.1824	0.2670	1	1	0.489	86	82	0
130	1	531	1	2	3	0.1824	0.2670	0	1	0.421	93	0	0
130	1	532	1	2	2	0.1824	0.2670	0	1	0.365	98	0	0
130	1	533	0	2	2	0.1824	0.2670	0	1	0.322	10	82	82
130	1	534	9	2	3	0.1824	0.2670	0	1	0.341	0	82	82
130	1	535	0	1	3	0.1824	0.2670	0	1	0.304	10	82	82
130	1	536	0	1	1	0.1824	0.2670	0	1	0.560	8	82	82
130	1	537	1	2	2	0.1824	0.2670	1	1	0.506	84	82	0
130	1	538	0	2	3	0.1824	0.2670	1	1	0.464	9	0	82
130	1	539	9	2	2	0.1824	0.2670	0	1	0.478	0	0	0
130	1	540	9	2	2	0.1824	0.2670	0	1	0.467	0	82	82
130	1	541	1	1	3	0.1824	0.2670	1	1	0.594	76	0	82
130	1	542	0	2	3	0.1824	0.2670	1	1	0.483	9	0	82
130	1	543	1	2	3	0.1824	0.2670	1	1	0.393	96	82	0
130	1	544	1	2	2	0.1824	0.2670	0	1	0.436	91	0	0
130	1	545	1	2	2	0.1824	0.2670	0	1	0.434	92	0	0
130	1	546	1	2	2	0.1824	0.2670	0	1	0.315	100	0	0
130	1	547	0	2	1	0.1824	0.2670	0	1	0.465	9	82	82
130	1	548	1	2	3	0.1824	0.2670	1	1	0.401	95	82	0
130	1	549	1	1	1	0.1824	0.2670	1	1	0.442	91	0	82
130	1	550	9	1	2	0.1824	0.2670	0	1	0.769	0	0	0
130	1	551	1	1	3	0.1824	0.2670	1	1	0.475	88	0	82
130	1	552	0	2	3	0.1824	0.2670	1	1	0.794	6	0	82
130	1	553	9	2	2	0.1824	0.2670	0	0	0.419	0	0	0
130	1	554	0	2	3	0.1824	0.2670	1	1	0.492	9	0	82
130	1	555	1	1	1	0.1824	0.2670	0	1	0.545	81	0	0
130	1	556	1	1	1	0.1824	0.2670	0	1	0.389	96	0	0
130	1	557	0	2	3	0.1824	0.2670	1	1	0.526	8	0	82
130	1	558	9	1	3	0.1824	0.2670	1	1	0.488	0	82	0
130	1	559	0	1	3	0.1824	0.2670	1	1	0.582	8	82	0
130	1	560	0	2	2	0.1824	0.2670	0	1	0.447	9	82	82
130	1	561	0	1	1	0.1824	0.2670	1	1	0.477	9	82	0
130	1	562	1	1	2	0.1824	0.2670	1	1	0.523	83	0	82
130	1	563	9	1	3	0.1824	0.2670	0	1	0.518	0	82	82
130	1	564	1	1	3	0.1824	0.2670	1	1	0.522	83	0	82
130	1	565	0	2	2	0.1824	0.2670	0	1	0.384	10	82	82
130	1	566	1	2	2	0.1824	0.2670	0	1	0.400	95	0	0
130	1	567	1	2	3	0.1824	0.2670	0	1	0.433	92	0	0
130	1	568	0	2	3	0.1824	0.2670	1	1	0.457	9	0	82
130	1	569	0	1	1	0.1824	0.2670	1	1	0.407	9	82	0
130	1	570	1	2	2	0.1824	0.2670	0	1	0.368	98	0	0
130	1	571	0	2	2	0.1824	0.2670	1	1	0.379	10	0	82
130	1	572	9	1	3	0.1824	0.2670	1	1	0.413	0	82	0
130	1	573	0	1	1	0.1824	0.2670	1	1	0.414	9	82	0
130	1	574	0	2	2	0.1824	0.2670	1	1	0.381	10	0	82
130	1	575	0	1	1	0.1824	0.2670	1	1	0.358	10	82	0
130	1	576	1	2	3	0.1824	0.2670	0	1	0.529	82	0	0
130	1	577	1	2	2	0.1824	0.2670	1	1	0.447	90	82	0
130	1	578	9	1	3	0.1824	0.2670	0	1	0.615	0	82	82
130	1	579	9	1	1	0.1824	0.2670	1	1	0.473	0	0	82
130	1	580	1	1	1	0.1824	0.2670	1	1	0.398	95	0	82
130	1	581	1	2	3	0.1824	0.2670	1	1	0.475	87	82	0
130	1	582	0	1	1	0.1824	0.2670	1	1	0.482	9	82	0
130	1	583	1	1	1	0.1824	0.2670	0	1	0.446	90	0	0
130	1	584	0	1	3	0.1824	0.2670	1	1	0.535	8	82	0
130	1	585	1	1	3	0.1824	0.2670	1	1	0.460	89	0	82
130	1	586	9	1	1	0.1824	0.2670	0	1	0.443	0	0	0
130	1	587	1	2	1	0.1824	0.2670	1	1	0.845	50	82	0
130	1	588	1	1	1	0.1824	0.2670	0	1	0.739	61	0	0
130	1	589	1	2	2	0.1824	0.2670	1	1	0.448	90	82	0
130	1	590	0	2	2	0.1824	0.2670	0	1	0.447	9	82	82
130	1	591	0	1	3	0.1824	0.2670	1	1	0.527	8	82	0
130	1	592	1	2	2	0.1824	0.2670	0	1	0.364	99	0	0
130	1	593	9	2	2	0.1824	0.2670	1	1	0.432	0	0	82
130	1	594	1	1	1	0.1824	0.2670	1	1	0.448	90	0	82
130	1	595	1	2	3	0.1824	0.2670	0	1	0.473	88	0	0
130	1	596	0	2	1	0.1824	0.2670	0	1	0.490	9	82	82
130	1	597	0	2	2	0.1824	0.2670	0	1	0.326	10	82	82
130	1	598	0	2	3	0.1824	0.2670	1	0	0.315	0	0	82
130	1	599	0	2	3	0.1824	0.2670	0	1	0.454	9	82	82
130	1	600	0	2	2	0.1824	0.2670	1	1	0.461	9	0	82
130	1	601	9	1	1	0.1824	0.2670	1	1	0.442	0	0	82
130	1	602	9	1	3	0.1824	0.2670	1	1	0.440	0	82	0
130	1	603	1	2	3	0.1824	0.2670	0	1	0.496	85	0	0
130	1	604	1	1	3	0.1824	0.2670	1	1	0.413	94	0	82
130	1	605	1	1	3	0.1824	0.2670	1	1	0.317	100	0	82
130	1	606	0	1	1	0.1824	0.2670	0	0	0.539	0	82	82
130	1	607	0	1	1	0.1824	0.2670	1	1	0.373	10	82	0
130	1	608	1	1	1	0.1824	0.2670	1	0	0.640	0	0	82
130	1	609	0	2	2	0.1824	0.2670	1	1	0.360	10	0	82
130	1	610	0	1	1	0.1824	0.2670	0	0	0.674	0	82	82
130	1	611	0	2	2	0.1824	0.2670	1	1	0.433	9	0	82
130	1	612	0	1	3	0.1824	0.2670	0	1	0.657	7	82	82
130	1	613	0	2	3	0.1824	0.2670	1	0	0.543	0	0	82
130	1	614	1	1	1	0.1824	0.2670	0	1	0.523	83	0	0
130	1	615	9	2	3	0.1824	0.2670	1	1	0.414	0	82	0
130	1	616	0	2	2	0.1824	0.2670	1	1	0.286	10	0	82
130	1	617	9	1	3	0.1824	0.2670	0	1	0.667	0	82	82
130	1	618	0	1	1	0.1824	0.2670	0	1	0.402	9	82	82
130	1	619	1	2	3	0.1824	0.2670	0	1	0.435	91	0	0
130	1	620	0	2	2	0.1824	0.2670	0	1	0.348	10	82	82
130	1	621	0	1	3	0.1824	0.2670	1	1	0.668	7	82	0
130	1	622	9	1	1	0.1824	0.2670	1	1	0.499	0	82	0
130	1	623	1	1	3	0.1824	0.2670	1	1	0.416	93	0	82
130	1	624	1	2	1	0.1824	0.2670	0	1	0.686	66	0	0
130	1	625	0	1	1	0.1824	0.2670	1	1	0.478	9	82	0
130	1	626	0	1	1	0.1824	0.2670	1	1	0.428	9	82	0
130	1	627	1	2	3	0.1824	0.2670	1	1	0.454	90	82	0
130	1	628	1	2	3	0.1824	0.2670	1	1	0.476	87	82	0
130	1	629	1	2	2	0.1824	0.2670	0	1	0.497	85	0	0
130	1	630	1	2	3	0.1824	0.2670	1	1	0.432	92	82	0
130	1	631	1	2	3	0.1824	0.2670	0	1	0.409	94	0	0
130	1	632	0	2	3	0.1824	0.2670	0	1	0.368	10	82	82
130	1	633	0	1	1	0.1824	0.2670	0	1	0.538	8	82	82
130	1	634	0	1	3	0.1824	0.2670	0	1	0.495	9	82	82
130	1	635	9	1	3	0.1824	0.2670	1	1	0.517	0	0	82
130	1	636	9	1	1	0.1824	0.2670	0	1	0.459	0	82	82
130	1	637	1	2	3	0.1824	0.2670	1	1	0.680	67	82	0
130	1	638	1	2	3	0.1824	0.2670	1	1	0.334	100	82	0
130	1	639	1	1	1	0.1824	0.2670	0	0	0.364	0	0	0
130	1	640	0	1	3	0.1824	0.2670	1	1	0.446	9	82	0
130	1	641	9	1	1	0.1824	0.2670	0	1	0.499	0	82	82
130	1	642	1	1	3	0.1824	0.2670	1	1	0.657	69	0	82
130	1	643	1	1	3	0.1824	0.2670	1	1	0.464	89	0	82
130	1	644	9	2	2	0.1824	0.2670	0	1	0.422	0	82	82
130	1	645	1	1	1	0.1824	0.2670	1	1	0.421	93	0	82
130	1	646	0	1	1	0.1824	0.2670	1	1	0.327	10	82	0
130	1	647	1	1	3	0.1824	0.2670	0	1	0.498	85	0	0
130	1	648	1	1	3	0.1824	0.2670	0	1	0.469	88	0	0
130	1	649	9	1	3	0.1824	0.2670	1	0	0.299	0	0	82
130	1	650	0	2	2	0.1824	0.2670	0	1	0.401	9	82	82
130	1	651	0	1	3	0.1824	0.2670	0	1	0.452	9	82	82
130	1	652	0	1	1	0.1824	0.2670	0	1	0.428	9	82	82
130	1	653	1	1	3	0.1824	0.2670	0	1	0.332	100	0	0
130	1	654	9	2	3	0.1824	0.2670	0	1	0.400	0	82	82
130	1	655	9	1	3	0.1824	0.2670	0	1	0.539	0	0	0
130	1	656	0	2	3	0.1824	0.2670	1	1	0.565	8	0	82
130	1	657	0	1	1	0.1824	0.2670	1	1	0.417	9	82	0
130	1	658	0	1	3	0.1824	0.2670	1	1	0.483	9	82	0
130	1	659	9	2	1	0.1824	0.2670	0	1	0.530	0	0	0
130	1	660	9	2	1	0.1824	0.2670	1	1	0.487	0	82	0
130	1	661	1	1	1	0.1824	0.2670	1	1	0.446	90	0	82
130	1	662	0	2	3	0.1824	0.2670	0	1	0.431	9	82	82
130	1	663	1	2	3	0.1824	0.2670	1	1	0.408	94	82	0
130	1	664	1	2	2	0.1824	0.2670	0	1	0.434	92	0	0
130	1	665	0	2	2	0.1824	0.2670	1	1	0.321	10	0	82
130	1	666	0	2	3	0.1824	0.2670	0	1	0.373	10	82	82
130	1	667	1	1	2	0.1824	0.2670	1	1	0.584	77	0	82
130	1	668	1	2	2	0.1824	0.2670	1	1	0.419	93	82	0
130	1	669	9	2	2	0.1824	0.2670	0	1	0.461	0	82	82
130	1	670	9	2	3	0.1824	0.2670	0	1	0.390	0	0	0
130	1	671	1	1	3	0.1824	0.2670	0	1	0.519	83	0	0
130	1	672	0	1	2	0.1824	0.2670	0	1	0.451	9	82	82
130	1	673	0	1	3	0.1824	0.2670	0	1	0.427	9	82	82
130	1	674	1	1	1	0.1824	0.2670	0	1	0.420	93	0	0
130	1	675	0	2	2	0.1824	0.2670	0	1	0.340	10	82	82
130	1	676	0	2	2	0.1824	0.2670	1	1	0.552	8	0	82
130	1	677	0	1	1	0.1824	0.2670	0	1	0.485	9	82	82
130	1	678	1	2	3	0.1824	0.2670	0	1	0.396	95	0	0
130	1	679	1	2	3	0.1824	0.2670	0	1	0.387	96	0	0
130	1	680	1	1	2	0.1824	0.2670	0	1	0.519	83	0	0
130	1	681	1	2	2	0.1824	0.2670	0	1	0.410	94	0	0
130	1	682	1	2	1	0.1824	0.2670	0	1	0.388	96	0	0
130	1	683	1	2	2	0.1824	0.2670	1	1	0.413	94	82	0
130	1	684	0	2	3	0.1824	0.2670	0	1	0.448	9	82	82
130	1	685	0	1	1	0.1824	0.2670	1	1	0.517	8	82	0
130	1	686	0	1	3	0.1824	0.2670	0	1	0.545	8	82	82
130	1	687	9	1	1	0.1824	0.2670	0	1	0.404	0	82	82
130	1	688	1	2	1	0.1824	0.2670	1	1	0.655	69	82	0
130	1	689	9	2	2	0.1824	0.2670	1	1	0.417	0	82	0
130	1	690	0	2	2	0.1824	0.2670	1	1	0.299	10	0	82
130	1	691	0	1	2	0.1824	0.2670	1	1	0.312	10	82	0
130	1	692	0	1	3	0.1824	0.2670	1	1	0.472	9	82	0
130	1	693	1	2	2	0.1824	0.2670	1	1	0.360	99	82	0
130	1	694	9	1	1	0.1824	0.2670	1	1	0.325	0	82	0
130	1	695	0	2	2	0.1824	0.2670	1	1	0.401	9	0	82
130	1	696	1	2	3	0.1824	0.2670	1	1	0.281	100	82	0
130	1	697	9	1	2	0.1824	0.2670	0	0	0.279	0	82	82
130	1	698	0	2	3	0.1824	0.2670	0	1	0.431	9	82	82
130	1	699	1	1	1	0.1824	0.2670	1	1	0.334	100	0	82
130	1	700	9	2	1	0.1824	0.2670	1	1	0.372	0	0	82
130	1	701	1	2	2	0.1824	0.2670	1	0	0.427	0	82	0
130	1	702	1	1	1	0.1824	0.2670	1	1	0.385	96	0	82
130	1	703	1	2	3	0.1824	0.2670	0	1	0.451	90	0	0
130	1	704	0	2	1	0.1824	0.2670	1	1	0.500	9	0	82
130	1	705	1	2	3	0.1824	0.2670	1	1	0.482	87	82	0
130	1	706	0	2	2	0.1824	0.2670	0	1	0.368	10	82	82
130	1	707	1	2	3	0.1824	0.2670	0	1	0.436	91	0	0
130	1	708	9	2	3	0.1824	0.2670	0	1	0.374	0	82	82
130	1	709	9	2	2	0.1824	0.2670	1	1	0.447	0	82	0
130	1	710	1	2	3	0.1824	0.2670	1	1	0.423	93	82	0
130	1	711	9	2	2	0.1824	0.2670	1	1	0.352	0	82	0
130	1	712	1	2	2	0.1824	0.2670	0	1	0.435	92	0	0
130	1	713	0	2	2	0.1824	0.2670	0	1	0.393	10	82	82
130	1	714	0	1	2	0.1824	0.2670	1	1	0.556	8	82	0
130	1	715	9	2	3	0.1824	0.2670	1	1	0.407	0	82	0
130	1	716	1	1	3	0.1824	0.2670	0	0	0.434	0	0	0
130	1	717	1	1	1	0.1824	0.2670	0	1	0.450	90	0	0
130	1	718	9	1	1	0.1824	0.2670	1	1	0.392	0	82	0
130	1	719	9	1	1	0.1824	0.2670	0	1	0.513	0	82	82
130	1	720	0	2	3	0.1824	0.2670	1	0	0.540	0	0	82
