sub	sess	t	rew	loc	cue	co1	co2	or	resp	rt	rew_tot	left_col	right_col
3	1	1	1	2	3	0.0562	0.0634	0	1	0.650	70	82	82
3	1	2	9	2	1	0.0562	0.0634	1	1	0.600	0	0	82
3	1	3	0	1	1	0.0562	0.0634	0	1	0.741	6	0	0
3	1	4	1	2	2	0.0562	0.0634	1	1	0.518	83	0	82
3	1	5	1	1	3	0.0562	0.0634	0	1	0.739	61	82	82
3	1	6	0	2	3	0.0562	0.0634	1	1	0.482	9	82	0
3	1	7	0	1	1	0.0562	0.0634	0	1	0.539	8	0	0
3	1	8	0	1	3	0.0562	0.0634	1	1	0.568	8	0	82
3	1	9	1	1	1	0.0562	0.0634	0	0	0.616	0	82	82
3	1	10	0	1	3	0.0562	0.0634	0	1	0.648	7	0	0
3	1	11	1	1	1	0.0562	0.0634	0	1	0.590	76	82	82
3	1	12	1	2	2	0.0562	0.0634	0	1	0.638	71	82	82
3	1	13	0	1	1	0.0562	0.0634	0	1	0.654	7	0	0
3	1	14	0	1	3	0.0562	0.0634	1	1	0.727	6	0	82
3	1	15	1	2	3	0.0562	0.0634	1	1	0.553	80	0	82
3	1	16	9	2	2	0.0562	0.0634	0	1	0.493	0	0	0
3	1	17	0	2	3	0.0562	0.0634	1	1	0.481	9	82	0
3	1	18	1	1	1	0.0562	0.0634	0	1	0.671	68	82	82
3	1	19	9	1	3	0.0562	0.0634	0	1	0.571	0	0	0
3	1	20	0	2	3	0.0562	0.0634	1	1	0.593	8	82	0
3	1	21	0	1	1	0.0562	0.0634	1	0	0.639	0	0	82
3	1	22	1	2	2	0.0562	0.0634	0	1	0.580	77	82	82
3	1	23	0	1	3	0.0562	0.0634	1	1	0.539	8	0	82
3	1	24	9	1	3	0.0562	0.0634	1	1	0.542	0	0	82
3	1	25	1	2	3	0.0562	0.0634	1	0	0.839	0	0	82
3	1	26	1	2	2	0.0562	0.0634	1	1	0.694	66	0	82
3	1	27	1	1	2	0.0562	0.0634	0	1	0.835	51	82	82
3	1	28	0	2	3	0.0562	0.0634	1	1	0.621	7	82	0
3	1	29	0	1	1	0.0562	0.0634	1	1	0.528	8	0	82
3	1	30	1	1	3	0.0562	0.0634	1	1	0.732	62	82	0
3	1	31	1	2	2	0.0562	0.0634	1	1	0.668	68	0	82
3	1	32	9	1	3	0.0562	0.0634	1	1	0.604	0	0	82
3	1	33	9	2	3	0.0562	0.0634	1	1	0.660	0	82	0
3	1	34	1	2	3	0.0562	0.0634	1	1	0.770	58	0	82
3	1	35	1	2	1	0.0562	0.0634	0	1	0.806	54	82	82
3	1	36	9	1	3	0.0562	0.0634	0	1	0.608	0	82	82
3	1	37	0	2	3	0.0562	0.0634	1	0	0.742	0	82	0
3	1	38	0	1	3	0.0562	0.0634	1	1	0.476	9	0	82
3	1	39	0	2	3	0.0562	0.0634	0	1	0.739	6	0	0
3	1	40	0	2	2	0.0562	0.0634	0	1	0.465	9	0	0
3	1	41	9	2	2	0.0562	0.0634	0	1	0.350	0	0	0
3	1	42	1	1	1	0.0562	0.0634	0	0	0.469	0	82	82
3	1	43	9	2	1	0.0562	0.0634	1	1	0.881	0	82	0
3	1	44	9	1	3	0.0562	0.0634	0	1	0.708	0	0	0
3	1	45	1	1	1	0.0562	0.0634	1	1	0.654	70	82	0
3	1	46	1	2	3	0.0562	0.0634	0	1	0.788	56	82	82
3	1	47	9	2	1	0.0562	0.0634	0	1	1.429	0	0	0
3	1	48	1	2	3	0.0562	0.0634	1	1	0.722	63	0	82
3	1	49	0	1	1	0.0562	0.0634	1	1	0.791	6	0	82
3	1	50	1	1	1	0.0562	0.0634	1	1	0.551	80	82	0
3	1	51	9	2	3	0.0562	0.0634	1	1	0.691	0	0	82
3	1	52	1	1	3	0.0562	0.0634	0	0	1.126	0	82	82
3	1	53	1	1	3	0.0562	0.0634	1	1	0.507	84	82	0
3	1	54	9	2	2	0.0562	0.0634	0	0	1.291	0	0	0
3	1	55	1	2	2	0.0562	0.0634	1	0	0.939	0	0	82
3	1	56	1	2	3	0.0562	0.0634	1	1	0.517	83	0	82
3	1	57	1	2	3	0.0562	0.0634	0	1	0.524	83	82	82
3	1	58	0	2	3	0.0562	0.0634	0	1	0.544	8	0	0
3	1	59	1	2	2	0.0562	0.0634	0	1	0.399	95	82	82
3	1	60	0	2	3	0.0562	0.0634	0	1	0.372	10	0	0
3	1	61	0	2	2	0.0562	0.0634	1	1	0.550	8	82	0
3	1	62	9	1	3	0.0562	0.0634	0	1	0.774	0	0	0
3	1	63	1	2	3	0.0562	0.0634	0	1	0.450	90	82	82
3	1	64	1	1	3	0.0562	0.0634	0	1	0.715	64	82	82
3	1	65	1	1	3	0.0562	0.0634	1	1	0.593	76	82	0
3	1	66	0	2	1	0.0562	0.0634	1	0	0.657	0	82	0
3	1	67	9	1	1	0.0562	0.0634	1	1	0.634	0	82	0
3	1	68	1	2	1	0.0562	0.0634	0	1	0.499	85	82	82
3	1	69	1	1	3	0.0562	0.0634	1	1	0.536	81	82	0
3	1	70	0	2	2	0.0562	0.0634	0	1	0.519	8	0	0
3	1	71	9	1	3	0.0562	0.0634	1	1	0.495	0	82	0
3	1	72	0	2	2	0.0562	0.0634	0	1	0.526	8	0	0
3	1	73	1	1	1	0.0562	0.0634	1	1	0.815	53	82	0
3	1	74	1	1	1	0.0562	0.0634	0	1	0.543	81	82	82
3	1	75	0	2	3	0.0562	0.0634	0	1	0.674	7	0	0
3	1	76	0	1	1	0.0562	0.0634	1	1	0.550	8	0	82
3	1	77	0	1	3	0.0562	0.0634	0	1	0.490	9	0	0
3	1	78	1	1	3	0.0562	0.0634	1	1	0.635	72	82	0
3	1	79	1	2	3	0.0562	0.0634	1	1	0.715	63	0	82
3	1	80	1	2	2	0.0562	0.0634	0	1	0.458	89	82	82
3	1	81	0	2	2	0.0562	0.0634	1	1	0.611	7	82	0
3	1	82	1	2	2	0.0562	0.0634	0	1	0.439	91	82	82
3	1	83	1	2	1	0.0562	0.0634	0	1	0.615	74	82	82
3	1	84	1	1	3	0.0562	0.0634	1	1	0.542	81	82	0
3	1	85	1	1	2	0.0562	0.0634	1	1	0.527	82	82	0
3	1	86	1	1	1	0.0562	0.0634	0	0	0.599	0	82	82
3	1	87	9	2	3	0.0562	0.0634	1	1	0.484	0	0	82
3	1	88	1	2	2	0.0562	0.0634	0	1	0.457	89	82	82
3	1	89	0	1	1	0.0562	0.0634	0	0	0.903	0	0	0
3	1	90	1	2	2	0.0562	0.0634	1	1	0.522	83	0	82
3	1	91	1	1	1	0.0562	0.0634	1	1	0.576	77	82	0
3	1	92	1	1	1	0.0562	0.0634	0	1	0.702	65	82	82
3	1	93	0	2	3	0.0562	0.0634	1	0	0.780	0	82	0
3	1	94	1	1	3	0.0562	0.0634	1	1	0.825	52	82	0
3	1	95	9	2	3	0.0562	0.0634	1	1	0.873	0	82	0
3	1	96	1	2	3	0.0562	0.0634	0	1	0.582	77	82	82
3	1	97	0	1	3	0.0562	0.0634	0	1	0.680	7	0	0
3	1	98	9	2	3	0.0562	0.0634	0	1	0.603	0	0	0
3	1	99	9	1	2	0.0562	0.0634	0	1	0.654	0	0	0
3	1	100	1	2	2	0.0562	0.0634	1	1	0.732	62	0	82
3	1	101	0	1	1	0.0562	0.0634	1	1	0.591	8	0	82
3	1	102	1	2	2	0.0562	0.0634	1	1	0.667	68	0	82
3	1	103	1	2	1	0.0562	0.0634	0	1	0.456	89	82	82
3	1	104	0	1	3	0.0562	0.0634	0	1	1.001	5	0	0
3	1	105	9	2	2	0.0562	0.0634	1	1	0.504	0	82	0
3	1	106	1	1	2	0.0562	0.0634	0	1	0.734	62	82	82
3	1	107	0	1	1	0.0562	0.0634	1	1	0.756	6	0	82
3	1	108	9	1	3	0.0562	0.0634	0	1	0.837	0	82	82
3	1	109	1	2	3	0.0562	0.0634	0	1	0.731	62	82	82
3	1	110	1	1	2	0.0562	0.0634	1	1	0.731	62	82	0
3	1	111	9	1	1	0.0562	0.0634	1	1	1.141	0	0	82
3	1	112	1	1	1	0.0562	0.0634	1	1	0.715	64	82	0
3	1	113	0	1	2	0.0562	0.0634	1	1	0.694	7	0	82
3	1	114	1	1	1	0.0562	0.0634	0	1	0.789	56	82	82
3	1	115	0	2	2	0.0562	0.0634	0	1	0.705	6	0	0
3	1	116	0	1	1	0.0562	0.0634	1	1	0.568	8	0	82
3	1	117	1	2	2	0.0562	0.0634	0	1	0.800	55	82	82
3	1	118	9	2	2	0.0562	0.0634	0	1	0.506	0	82	82
3	1	119	9	2	3	0.0562	0.0634	1	0	0.839	0	0	82
3	1	120	1	1	1	0.0562	0.0634	1	1	0.611	74	82	0
3	1	121	1	2	3	0.0562	0.0634	0	1	0.562	79	82	82
3	1	122	0	2	1	0.0562	0.0634	1	1	0.480	9	82	0
3	1	123	9	2	3	0.0562	0.0634	0	1	0.529	0	82	82
3	1	124	1	2	2	0.0562	0.0634	0	1	0.493	86	82	82
3	1	125	0	1	3	0.0562	0.0634	0	1	0.603	7	0	0
3	1	126	0	2	3	0.0562	0.0634	0	1	0.552	8	0	0
3	1	127	9	1	3	0.0562	0.0634	1	1	0.604	0	0	82
3	1	128	1	1	1	0.0562	0.0634	1	1	0.497	85	82	0
3	1	129	9	1	1	0.0562	0.0634	0	1	0.553	0	0	0
3	1	130	1	1	1	0.0562	0.0634	1	0	0.589	0	82	0
3	1	131	0	2	3	0.0562	0.0634	0	1	0.530	8	0	0
3	1	132	0	2	2	0.0562	0.0634	0	1	0.446	9	0	0
3	1	133	9	2	3	0.0562	0.0634	0	1	0.427	0	0	0
3	1	134	1	2	3	0.0562	0.0634	0	1	0.480	87	82	82
3	1	135	1	1	3	0.0562	0.0634	0	0	0.706	0	82	82
3	1	136	1	1	1	0.0562	0.0634	0	0	0.785	0	82	82
3	1	137	0	2	3	0.0562	0.0634	0	1	0.530	8	0	0
3	1	138	0	1	1	0.0562	0.0634	0	0	0.850	0	0	0
3	1	139	1	1	1	0.0562	0.0634	1	1	0.715	64	82	0
3	1	140	0	2	3	0.0562	0.0634	0	0	0.641	0	0	0
3	1	141	0	2	2	0.0562	0.0634	0	1	0.558	8	0	0
3	1	142	1	2	2	0.0562	0.0634	0	1	0.422	93	82	82
3	1	143	9	2	3	0.0562	0.0634	0	1	0.407	0	82	82
3	1	144	1	2	3	0.0562	0.0634	1	1	0.485	86	0	82
3	1	145	0	1	1	0.0562	0.0634	0	1	0.877	5	0	0
3	1	146	0	1	2	0.0562	0.0634	0	1	0.627	7	0	0
3	1	147	1	2	2	0.0562	0.0634	1	1	0.558	79	0	82
3	1	148	1	2	2	0.0562	0.0634	0	1	0.461	89	82	82
3	1	149	0	1	3	0.0562	0.0634	0	1	0.666	7	0	0
3	1	150	1	1	3	0.0562	0.0634	0	1	0.502	85	82	82
3	1	151	0	1	1	0.0562	0.0634	0	1	0.506	8	0	0
3	1	152	9	1	1	0.0562	0.0634	0	1	0.693	0	82	82
3	1	153	1	1	1	0.0562	0.0634	1	1	0.534	82	82	0
3	1	154	1	1	3	0.0562	0.0634	1	1	0.493	86	82	0
3	1	155	0	1	1	0.0562	0.0634	1	1	0.750	6	0	82
3	1	156	0	2	3	0.0562	0.0634	1	0	0.545	0	82	0
3	1	157	1	1	3	0.0562	0.0634	0	1	0.482	87	82	82
3	1	158	1	1	1	0.0562	0.0634	1	1	0.452	90	82	0
3	1	159	0	2	2	0.0562	0.0634	1	1	0.775	6	82	0
3	1	160	0	1	1	0.0562	0.0634	0	1	0.497	9	0	0
3	1	161	1	2	1	0.0562	0.0634	1	1	0.718	63	0	82
3	1	162	1	2	2	0.0562	0.0634	1	1	0.560	79	0	82
3	1	163	1	2	3	0.0562	0.0634	1	1	0.507	84	0	82
3	1	164	0	2	1	0.0562	0.0634	0	1	0.487	9	0	0
3	1	165	0	1	3	0.0562	0.0634	0	0	0.925	0	0	0
3	1	166	9	1	3	0.0562	0.0634	0	1	0.818	0	82	82
3	1	167	0	2	2	0.0562	0.0634	0	1	0.495	9	0	0
3	1	168	1	1	2	0.0562	0.0634	1	1	0.724	63	82	0
3	1	169	0	1	3	0.0562	0.0634	1	1	0.544	8	0	82
3	1	170	0	1	1	0.0562	0.0634	1	1	0.613	7	0	82
3	1	171	9	1	1	0.0562	0.0634	0	0	0.566	0	82	82
3	1	172	1	2	2	0.0562	0.0634	1	1	0.434	92	0	82
3	1	173	0	2	3	0.0562	0.0634	1	1	0.675	7	82	0
3	1	174	1	2	3	0.0562	0.0634	1	1	0.539	81	0	82
3	1	175	0	1	3	0.0562	0.0634	0	1	0.884	5	0	0
3	1	176	1	1	3	0.0562	0.0634	0	0	0.478	0	82	82
3	1	177	0	2	2	0.0562	0.0634	1	1	0.612	7	82	0
3	1	178	0	1	1	0.0562	0.0634	1	1	0.420	9	0	82
3	1	179	1	1	3	0.0562	0.0634	1	1	0.763	59	82	0
3	1	180	0	2	2	0.0562	0.0634	1	1	0.567	8	82	0
3	1	181	9	1	1	0.0562	0.0634	0	1	0.617	0	0	0
3	1	182	0	1	3	0.0562	0.0634	0	1	0.485	9	0	0
3	1	183	0	1	2	0.0562	0.0634	1	1	0.484	9	0	82
3	1	184	0	2	2	0.0562	0.0634	0	1	0.612	7	0	0
3	1	185	0	2	1	0.0562	0.0634	0	1	0.913	5	0	0
3	1	186	0	1	3	0.0562	0.0634	0	1	0.530	8	0	0
3	1	187	1	2	2	0.0562	0.0634	0	1	0.550	80	82	82
3	1	188	0	2	3	0.0562	0.0634	1	0	0.843	0	82	0
3	1	189	0	1	3	0.0562	0.0634	1	1	0.590	8	0	82
3	1	190	9	1	3	0.0562	0.0634	0	1	0.703	0	0	0
3	1	191	0	2	2	0.0562	0.0634	0	1	0.516	8	0	0
3	1	192	0	1	3	0.0562	0.0634	1	1	0.632	7	0	82
3	1	193	9	2	3	0.0562	0.0634	0	1	0.738	0	0	0
3	1	194	0	2	3	0.0562	0.0634	0	1	0.574	8	0	0
3	1	195	9	2	2	0.0562	0.0634	1	1	0.772	0	0	82
3	1	196	0	2	3	0.0562	0.0634	0	1	0.540	8	0	0
3	1	197	1	2	1	0.0562	0.0634	1	0	0.585	0	0	82
3	1	198	0	2	2	0.0562	0.0634	1	1	0.724	6	82	0
3	1	199	1	2	1	0.0562	0.0634	1	1	0.483	87	0	82
3	1	200	9	2	2	0.0562	0.0634	0	1	0.478	0	0	0
3	1	201	9	1	2	0.0562	0.0634	0	1	0.783	0	82	82
3	1	202	0	2	2	0.0562	0.0634	0	1	0.582	8	0	0
3	1	203	9	2	3	0.0562	0.0634	1	1	0.524	0	0	82
3	1	204	0	2	2	0.0562	0.0634	1	1	0.573	8	82	0
3	1	205	9	1	1	0.0562	0.0634	0	1	0.582	0	0	0
3	1	206	9	2	2	0.0562	0.0634	1	1	0.522	0	82	0
3	1	207	9	2	1	0.0562	0.0634	0	1	0.561	0	82	82
3	1	208	1	2	2	0.0562	0.0634	1	1	0.695	65	0	82
3	1	209	0	1	3	0.0562	0.0634	0	1	0.693	7	0	0
3	1	210	1	1	1	0.0562	0.0634	0	1	0.490	86	82	82
3	1	211	0	2	3	0.0562	0.0634	1	1	0.523	8	82	0
3	1	212	1	2	3	0.0562	0.0634	0	1	0.549	80	82	82
3	1	213	1	1	2	0.0562	0.0634	0	1	0.698	65	82	82
3	1	214	0	1	1	0.0562	0.0634	0	1	0.488	9	0	0
3	1	215	9	2	2	0.0562	0.0634	1	1	0.517	0	82	0
3	1	216	1	1	3	0.0562	0.0634	1	1	0.602	75	82	0
3	1	217	1	1	1	0.0562	0.0634	0	0	0.462	0	82	82
3	1	218	9	2	2	0.0562	0.0634	1	1	0.646	0	0	82
3	1	219	0	2	3	0.0562	0.0634	1	1	0.389	10	82	0
3	1	220	1	1	3	0.0562	0.0634	1	1	0.652	70	82	0
3	1	221	0	2	1	0.0562	0.0634	1	1	0.570	8	82	0
3	1	222	1	1	1	0.0562	0.0634	0	1	0.727	62	82	82
3	1	223	0	1	1	0.0562	0.0634	0	1	0.525	8	0	0
3	1	224	0	2	2	0.0562	0.0634	0	1	0.504	8	0	0
3	1	225	1	2	3	0.0562	0.0634	0	1	0.440	91	82	82
3	1	226	0	2	2	0.0562	0.0634	0	1	0.400	9	0	0
3	1	227	0	1	1	0.0562	0.0634	1	1	0.396	10	0	82
3	1	228	1	2	3	0.0562	0.0634	1	0	0.457	0	0	82
3	1	229	0	1	3	0.0562	0.0634	0	1	0.503	8	0	0
3	1	230	0	1	1	0.0562	0.0634	1	0	0.521	0	0	82
3	1	231	1	1	3	0.0562	0.0634	1	1	0.551	80	82	0
3	1	232	1	2	3	0.0562	0.0634	0	1	0.612	74	82	82
3	1	233	9	2	3	0.0562	0.0634	0	1	0.465	0	0	0
3	1	234	0	2	2	0.0562	0.0634	1	0	0.613	0	82	0
3	1	235	9	1	1	0.0562	0.0634	1	1	0.538	0	0	82
3	1	236	0	1	1	0.0562	0.0634	0	0	0.514	0	0	0
3	1	237	0	2	3	0.0562	0.0634	0	1	0.453	9	0	0
3	1	238	1	2	3	0.0562	0.0634	1	1	0.517	83	0	82
3	1	239	0	1	3	0.0562	0.0634	1	1	0.523	8	0	82
3	1	240	0	2	1	0.0562	0.0634	0	1	0.478	9	0	0
3	1	241	0	2	1	0.0562	0.0634	1	1	0.664	7	82	0
3	1	242	1	2	2	0.0562	0.0634	0	1	0.420	93	82	82
3	1	243	9	1	3	0.0562	0.0634	1	1	0.562	0	0	82
3	1	244	0	1	2	0.0562	0.0634	0	1	0.675	7	0	0
3	1	245	9	1	1	0.0562	0.0634	0	1	0.572	0	0	0
3	1	246	1	1	3	0.0562	0.0634	0	0	0.521	0	82	82
3	1	247	9	2	2	0.0562	0.0634	1	1	0.743	0	0	82
3	1	248	1	2	3	0.0562	0.0634	1	0	0.723	0	0	82
3	1	249	9	1	2	0.0562	0.0634	1	1	0.941	0	0	82
3	1	250	9	1	1	0.0562	0.0634	0	0	1.734	0	82	82
3	1	251	1	1	3	0.0562	0.0634	0	1	0.775	57	82	82
3	1	252	9	2	2	0.0562	0.0634	0	1	0.500	0	82	82
3	1	253	0	1	1	0.0562	0.0634	1	1	0.648	7	0	82
3	1	254	1	1	1	0.0562	0.0634	0	1	0.533	82	82	82
3	1	255	1	2	3	0.0562	0.0634	1	1	0.813	54	0	82
3	1	256	0	2	2	0.0562	0.0634	1	1	0.690	7	82	0
3	1	257	1	2	2	0.0562	0.0634	1	0	1.776	0	0	82
3	1	258	1	1	3	0.0562	0.0634	0	1	0.697	65	82	82
3	1	259	9	1	1	0.0562	0.0634	1	0	1.027	0	0	82
3	1	260	1	2	2	0.0562	0.0634	0	1	0.514	84	82	82
3	1	261	0	2	2	0.0562	0.0634	0	1	0.405	9	0	0
3	1	262	1	1	1	0.0562	0.0634	1	0	0.456	0	82	0
3	1	263	9	1	1	0.0562	0.0634	1	1	0.483	0	82	0
3	1	264	9	1	1	0.0562	0.0634	1	1	0.718	0	82	0
3	1	265	9	2	3	0.0562	0.0634	1	1	0.779	0	82	0
3	1	266	1	2	3	0.0562	0.0634	1	0	0.541	0	0	82
3	1	267	1	1	1	0.0562	0.0634	1	1	0.445	91	82	0
3	1	268	1	1	3	0.0562	0.0634	0	1	0.516	83	82	82
3	1	269	1	1	3	0.0562	0.0634	1	1	0.472	88	82	0
3	1	270	9	1	1	0.0562	0.0634	1	1	0.471	0	82	0
3	1	271	1	1	2	0.0562	0.0634	1	1	0.383	97	82	0
3	1	272	0	1	2	0.0562	0.0634	1	1	0.360	10	0	82
3	1	273	9	1	3	0.0562	0.0634	1	1	0.471	0	82	0
3	1	274	0	1	2	0.0562	0.0634	1	1	0.405	9	0	82
3	1	275	0	2	2	0.0562	0.0634	0	0	0.554	0	0	0
3	1	276	1	2	2	0.0562	0.0634	1	1	0.761	59	0	82
3	1	277	0	2	3	0.0562	0.0634	0	1	0.597	8	0	0
3	1	278	9	1	1	0.0562	0.0634	1	1	0.490	0	0	82
3	1	279	1	1	1	0.0562	0.0634	0	1	0.616	73	82	82
3	1	280	1	1	3	0.0562	0.0634	0	1	0.578	77	82	82
3	1	281	0	1	3	0.0562	0.0634	1	1	0.723	6	0	82
3	1	282	0	2	3	0.0562	0.0634	0	1	0.603	7	0	0
3	1	283	0	1	3	0.0562	0.0634	1	1	0.769	6	0	82
3	1	284	0	2	3	0.0562	0.0634	0	1	0.404	9	0	0
3	1	285	0	2	3	0.0562	0.0634	0	1	0.394	10	0	0
3	1	286	9	1	1	0.0562	0.0634	0	0	0.470	0	82	82
3	1	287	0	1	3	0.0562	0.0634	1	1	0.571	8	0	82
3	1	288	0	2	3	0.0562	0.0634	1	1	0.564	8	82	0
3	1	289	0	1	2	0.0562	0.0634	0	0	0.503	0	0	0
3	1	290	9	2	2	0.0562	0.0634	1	0	0.525	0	0	82
3	1	291	9	2	3	0.0562	0.0634	1	1	0.575	0	82	0
3	1	292	0	1	2	0.0562	0.0634	0	1	0.549	8	0	0
3	1	293	0	1	3	0.0562	0.0634	1	0	1.182	0	0	82
3	1	294	0	2	3	0.0562	0.0634	1	1	0.654	7	82	0
3	1	295	1	2	2	0.0562	0.0634	0	1	0.509	84	82	82
3	1	296	0	1	1	0.0562	0.0634	0	1	0.715	6	0	0
3	1	297	1	2	2	0.0562	0.0634	1	1	0.721	63	0	82
3	1	298	0	1	3	0.0562	0.0634	1	0	0.887	0	0	82
3	1	299	0	1	3	0.0562	0.0634	1	0	0.840	0	0	82
3	1	300	9	2	2	0.0562	0.0634	0	1	0.578	0	82	82
3	1	301	0	1	1	0.0562	0.0634	0	1	0.657	7	0	0
3	1	302	0	1	3	0.0562	0.0634	1	1	0.527	8	0	82
3	1	303	1	2	3	0.0562	0.0634	1	1	0.639	71	0	82
3	1	304	1	2	3	0.0562	0.0634	0	1	0.461	89	82	82
3	1	305	1	2	2	0.0562	0.0634	1	1	0.493	86	0	82
3	1	306	0	2	2	0.0562	0.0634	0	1	0.434	9	0	0
3	1	307	1	2	3	0.0562	0.0634	0	1	0.661	69	82	82
3	1	308	1	2	3	0.0562	0.0634	0	1	0.474	88	82	82
3	1	309	9	2	3	0.0562	0.0634	0	1	0.394	0	82	82
3	1	310	1	2	3	0.0562	0.0634	0	1	0.376	97	82	82
3	1	311	0	2	2	0.0562	0.0634	1	1	0.512	8	82	0
3	1	312	1	1	3	0.0562	0.0634	1	0	0.618	0	82	0
3	1	313	1	1	3	0.0562	0.0634	0	1	1.246	50	82	82
3	1	314	0	2	2	0.0562	0.0634	1	1	0.696	7	82	0
3	1	315	0	2	2	0.0562	0.0634	1	1	0.677	7	82	0
3	1	316	1	1	3	0.0562	0.0634	1	1	0.702	65	82	0
3	1	317	0	1	1	0.0562	0.0634	1	1	1.296	5	0	82
3	1	318	0	2	3	0.0562	0.0634	0	1	0.480	9	0	0
3	1	319	0	1	3	0.0562	0.0634	0	1	0.591	8	0	0
3	1	320	0	1	1	0.0562	0.0634	1	1	0.566	8	0	82
3	1	321	1	2	3	0.0562	0.0634	1	1	0.624	73	0	82
3	1	322	1	1	3	0.0562	0.0634	1	1	1.014	50	82	0
3	1	323	1	1	1	0.0562	0.0634	0	1	0.581	77	82	82
3	1	324	0	2	3	0.0562	0.0634	1	1	0.653	7	82	0
3	1	325	1	1	3	0.0562	0.0634	0	1	0.559	79	82	82
3	1	326	1	2	3	0.0562	0.0634	0	1	0.669	68	82	82
3	1	327	9	2	2	0.0562	0.0634	1	1	0.752	0	82	0
3	1	328	0	2	2	0.0562	0.0634	1	1	0.530	8	82	0
3	1	329	9	2	2	0.0562	0.0634	0	1	0.503	0	82	82
3	1	330	1	1	1	0.0562	0.0634	1	0	0.707	0	82	0
3	1	331	1	1	1	0.0562	0.0634	0	1	1.419	50	82	82
3	1	332	9	1	3	0.0562	0.0634	0	1	0.684	0	82	82
3	1	333	1	2	2	0.0562	0.0634	0	1	0.454	90	82	82
3	1	334	1	2	2	0.0562	0.0634	0	0	0.538	0	82	82
3	1	335	0	2	2	0.0562	0.0634	1	1	0.550	8	82	0
3	1	336	0	2	3	0.0562	0.0634	1	1	1.368	5	82	0
3	1	337	1	1	2	0.0562	0.0634	0	0	0.958	0	82	82
3	1	338	0	1	1	0.0562	0.0634	0	1	0.539	8	0	0
3	1	339	1	1	3	0.0562	0.0634	0	1	0.628	72	82	82
3	1	340	9	1	3	0.0562	0.0634	1	1	0.554	0	82	0
3	1	341	0	1	3	0.0562	0.0634	0	1	0.487	9	0	0
3	1	342	0	2	2	0.0562	0.0634	1	1	0.680	7	82	0
3	1	343	9	1	3	0.0562	0.0634	1	1	0.840	0	82	0
3	1	344	9	2	3	0.0562	0.0634	0	1	0.770	0	82	82
3	1	345	0	2	2	0.0562	0.0634	1	1	0.514	8	82	0
3	1	346	0	1	3	0.0562	0.0634	0	1	0.488	9	0	0
3	1	347	0	2	3	0.0562	0.0634	1	0	0.690	0	82	0
3	1	348	1	2	1	0.0562	0.0634	1	1	0.428	92	0	82
3	1	349	9	1	2	0.0562	0.0634	1	1	0.628	0	82	0
3	1	350	0	1	1	0.0562	0.0634	0	1	0.499	9	0	0
3	1	351	1	2	2	0.0562	0.0634	1	1	0.499	85	0	82
3	1	352	1	1	1	0.0562	0.0634	1	1	0.662	69	82	0
3	1	353	0	1	3	0.0562	0.0634	0	1	0.536	8	0	0
3	1	354	1	1	3	0.0562	0.0634	0	1	0.509	84	82	82
3	1	355	0	2	1	0.0562	0.0634	0	1	0.479	9	0	0
3	1	356	1	1	1	0.0562	0.0634	1	0	0.498	0	82	0
3	1	357	0	2	2	0.0562	0.0634	0	1	0.522	8	0	0
3	1	358	0	1	1	0.0562	0.0634	0	1	0.480	9	0	0
3	1	359	0	1	3	0.0562	0.0634	1	1	0.440	9	0	82
3	1	360	0	1	1	0.0562	0.0634	1	1	0.601	7	0	82
3	1	361	1	1	3	0.0562	0.0634	1	1	0.482	87	82	0
3	1	362	9	2	2	0.0562	0.0634	0	1	0.513	0	0	0
3	1	363	0	1	1	0.0562	0.0634	0	1	0.586	8	0	0
3	1	364	9	1	3	0.0562	0.0634	0	1	0.475	0	82	82
3	1	365	9	1	1	0.0562	0.0634	0	1	0.689	0	82	82
3	1	366	0	1	3	0.0562	0.0634	1	1	0.499	9	0	82
3	1	367	1	2	3	0.0562	0.0634	0	1	0.676	67	82	82
3	1	368	0	2	3	0.0562	0.0634	0	1	0.494	9	0	0
3	1	369	9	1	1	0.0562	0.0634	0	1	0.511	0	0	0
3	1	370	9	2	2	0.0562	0.0634	1	1	0.574	0	0	82
3	1	371	1	1	1	0.0562	0.0634	1	1	0.482	87	82	0
3	1	372	9	1	3	0.0562	0.0634	0	1	0.679	0	0	0
3	1	373	1	2	1	0.0562	0.0634	0	0	0.738	0	82	82
3	1	374	1	1	3	0.0562	0.0634	1	1	0.610	74	82	0
3	1	375	9	1	3	0.0562	0.0634	1	1	0.520	0	82	0
3	1	376	9	1	1	0.0562	0.0634	0	1	0.637	0	0	0
3	1	377	0	1	2	0.0562	0.0634	0	1	0.528	8	0	0
3	1	378	0	2	2	0.0562	0.0634	0	1	0.643	7	0	0
3	1	379	1	2	3	0.0562	0.0634	1	1	0.527	82	0	82
3	1	380	0	2	2	0.0562	0.0634	1	1	0.790	6	82	0
3	1	381	1	2	2	0.0562	0.0634	0	1	0.441	91	82	82
3	1	382	0	2	3	0.0562	0.0634	1	1	0.583	8	82	0
3	1	383	1	1	1	0.0562	0.0634	1	1	0.550	80	82	0
3	1	384	1	1	1	0.0562	0.0634	1	1	0.651	70	82	0
3	1	385	0	2	2	0.0562	0.0634	1	0	0.476	0	82	0
3	1	386	1	2	2	0.0562	0.0634	0	1	0.385	97	82	82
3	1	387	0	1	3	0.0562	0.0634	0	1	0.379	10	0	0
3	1	388	9	2	2	0.0562	0.0634	0	1	0.348	0	0	0
3	1	389	1	2	3	0.0562	0.0634	1	1	0.659	69	0	82
3	1	390	1	2	1	0.0562	0.0634	0	1	0.410	94	82	82
3	1	391	1	1	1	0.0562	0.0634	0	0	0.507	0	82	82
3	1	392	9	2	2	0.0562	0.0634	1	1	0.612	0	82	0
3	1	393	0	1	3	0.0562	0.0634	0	0	0.577	0	0	0
3	1	394	1	2	3	0.0562	0.0634	0	1	0.487	86	82	82
3	1	395	9	2	3	0.0562	0.0634	1	1	0.546	0	0	82
3	1	396	0	1	1	0.0562	0.0634	0	1	0.751	6	0	0
3	1	397	9	1	3	0.0562	0.0634	0	1	0.706	0	82	82
3	1	398	0	1	1	0.0562	0.0634	1	1	0.645	7	0	82
3	1	399	1	1	3	0.0562	0.0634	1	1	0.600	75	82	0
3	1	400	1	2	3	0.0562	0.0634	0	1	0.525	82	82	82
3	1	401	1	1	3	0.0562	0.0634	0	1	0.504	85	82	82
3	1	402	1	1	1	0.0562	0.0634	0	1	0.526	82	82	82
3	1	403	9	1	2	0.0562	0.0634	0	1	0.462	0	0	0
3	1	404	0	2	3	0.0562	0.0634	0	1	0.358	10	0	0
3	1	405	0	2	2	0.0562	0.0634	1	1	0.540	8	82	0
3	1	406	0	2	3	0.0562	0.0634	1	1	0.575	8	82	0
3	1	407	0	1	1	0.0562	0.0634	1	0	0.550	0	0	82
3	1	408	0	1	3	0.0562	0.0634	1	0	0.914	0	0	82
3	1	409	9	1	3	0.0562	0.0634	0	1	0.641	0	82	82
3	1	410	1	2	3	0.0562	0.0634	1	1	0.708	64	0	82
3	1	411	0	2	1	0.0562	0.0634	0	1	0.455	9	0	0
3	1	412	0	2	3	0.0562	0.0634	0	1	0.370	10	0	0
3	1	413	1	1	3	0.0562	0.0634	0	1	0.633	72	82	82
3	1	414	0	1	3	0.0562	0.0634	1	1	0.664	7	0	82
3	1	415	0	2	3	0.0562	0.0634	0	1	0.543	8	0	0
3	1	416	1	1	2	0.0562	0.0634	0	1	0.546	80	82	82
3	1	417	0	1	1	0.0562	0.0634	1	1	0.609	7	0	82
3	1	418	1	1	3	0.0562	0.0634	0	1	0.653	70	82	82
3	1	419	0	2	2	0.0562	0.0634	0	1	0.539	8	0	0
3	1	420	0	2	2	0.0562	0.0634	1	1	0.858	5	82	0
3	1	421	1	1	3	0.0562	0.0634	1	1	0.725	62	82	0
3	1	422	1	1	1	0.0562	0.0634	0	1	0.612	74	82	82
3	1	423	9	1	3	0.0562	0.0634	1	1	0.484	0	82	0
3	1	424	0	1	1	0.0562	0.0634	1	1	0.494	9	0	82
3	1	425	0	1	3	0.0562	0.0634	0	1	0.482	9	0	0
3	1	426	0	1	3	0.0562	0.0634	0	1	0.362	10	0	0
3	1	427	1	2	3	0.0562	0.0634	0	1	0.479	87	82	82
3	1	428	1	1	1	0.0562	0.0634	0	1	0.325	100	82	82
3	1	429	1	2	2	0.0562	0.0634	0	1	0.459	89	82	82
3	1	430	1	2	3	0.0562	0.0634	0	1	0.407	94	82	82
3	1	431	9	1	1	0.0562	0.0634	1	1	0.558	0	82	0
3	1	432	0	1	3	0.0562	0.0634	1	1	0.665	7	0	82
3	1	433	9	2	2	0.0562	0.0634	1	1	0.438	0	82	0
3	1	434	1	1	2	0.0562	0.0634	1	1	0.445	91	82	0
3	1	435	9	1	3	0.0562	0.0634	0	1	0.545	0	0	0
3	1	436	1	1	3	0.0562	0.0634	1	1	0.503	85	82	0
3	1	437	1	1	1	0.0562	0.0634	0	1	0.547	80	82	82
3	1	438	0	2	3	0.0562	0.0634	0	1	0.522	8	0	0
3	1	439	0	1	3	0.0562	0.0634	0	1	0.669	7	0	0
3	1	440	9	2	3	0.0562	0.0634	1	0	0.544	0	82	0
3	1	441	1	1	1	0.0562	0.0634	0	1	0.780	57	82	82
3	1	442	0	2	2	0.0562	0.0634	0	1	0.409	9	0	0
3	1	443	9	1	1	0.0562	0.0634	1	1	0.602	0	82	0
3	1	444	0	1	1	0.0562	0.0634	1	1	0.536	8	0	82
3	1	445	0	1	3	0.0562	0.0634	1	1	0.422	9	0	82
3	1	446	9	1	1	0.0562	0.0634	0	0	0.521	0	0	0
3	1	447	0	1	3	0.0562	0.0634	0	1	0.452	9	0	0
3	1	448	1	2	3	0.0562	0.0634	1	1	0.486	86	0	82
3	1	449	1	1	3	0.0562	0.0634	1	1	0.492	86	82	0
3	1	450	0	1	3	0.0562	0.0634	0	1	0.473	9	0	0
3	1	451	9	2	2	0.0562	0.0634	1	1	0.363	0	0	82
3	1	452	0	1	1	0.0562	0.0634	0	0	0.806	0	0	0
3	1	453	9	2	3	0.0562	0.0634	0	1	0.458	0	82	82
3	1	454	0	2	2	0.0562	0.0634	0	1	0.411	9	0	0
3	1	455	1	1	1	0.0562	0.0634	1	0	0.570	0	82	0
3	1	456	9	2	2	0.0562	0.0634	0	1	0.570	0	82	82
3	1	457	1	2	2	0.0562	0.0634	0	1	0.374	98	82	82
3	1	458	9	2	3	0.0562	0.0634	0	1	0.465	0	0	0
3	1	459	9	1	3	0.0562	0.0634	1	0	0.580	0	82	0
3	1	460	9	1	1	0.0562	0.0634	1	1	0.495	0	0	82
3	1	461	9	2	3	0.0562	0.0634	0	1	0.400	0	82	82
3	1	462	0	2	3	0.0562	0.0634	1	0	0.614	0	82	0
3	1	463	9	1	1	0.0562	0.0634	1	0	0.940	0	82	0
3	1	464	0	2	3	0.0562	0.0634	0	1	0.435	9	0	0
3	1	465	1	1	3	0.0562	0.0634	0	1	0.511	84	82	82
3	1	466	1	2	3	0.0562	0.0634	1	1	0.402	95	0	82
3	1	467	1	1	2	0.0562	0.0634	1	1	0.452	90	82	0
3	1	468	0	1	1	0.0562	0.0634	1	1	0.583	8	0	82
3	1	469	1	2	3	0.0562	0.0634	0	1	0.480	87	82	82
3	1	470	1	1	1	0.0562	0.0634	1	1	0.547	80	82	0
3	1	471	9	1	1	0.0562	0.0634	0	1	0.615	0	82	82
3	1	472	1	1	3	0.0562	0.0634	0	1	0.824	53	82	82
3	1	473	0	2	2	0.0562	0.0634	1	0	0.476	0	82	0
3	1	474	1	1	3	0.0562	0.0634	0	1	0.537	81	82	82
3	1	475	0	2	3	0.0562	0.0634	1	0	0.592	0	82	0
3	1	476	1	2	2	0.0562	0.0634	1	1	1.208	50	0	82
3	1	477	9	1	1	0.0562	0.0634	0	1	0.883	0	82	82
3	1	478	9	1	3	0.0562	0.0634	1	1	0.570	0	82	0
3	1	479	1	2	2	0.0562	0.0634	1	1	0.902	50	0	82
3	1	480	0	1	1	0.0562	0.0634	0	1	0.836	5	0	0
3	1	481	1	2	2	0.0562	0.0634	1	0	0.472	0	0	82
3	1	482	0	2	1	0.0562	0.0634	1	1	0.981	5	82	0
3	1	483	1	2	3	0.0562	0.0634	1	1	0.452	90	0	82
3	1	484	9	2	2	0.0562	0.0634	0	1	0.469	0	82	82
3	1	485	1	2	3	0.0562	0.0634	1	1	0.435	92	0	82
3	1	486	0	2	2	0.0562	0.0634	0	1	0.442	9	0	0
3	1	487	0	2	2	0.0562	0.0634	1	1	0.540	8	82	0
3	1	488	1	2	1	0.0562	0.0634	1	1	0.365	98	0	82
3	1	489	1	1	1	0.0562	0.0634	0	1	0.968	50	82	82
3	1	490	9	2	1	0.0562	0.0634	1	1	0.695	0	0	82
3	1	491	1	1	1	0.0562	0.0634	1	1	0.540	81	82	0
3	1	492	0	1	1	0.0562	0.0634	0	1	0.487	9	0	0
3	1	493	1	1	1	0.0562	0.0634	1	0	0.735	0	82	0
3	1	494	0	1	1	0.0562	0.0634	0	1	0.446	9	0	0
3	1	495	0	1	1	0.0562	0.0634	1	1	0.565	8	0	82
3	1	496	1	2	3	0.0562	0.0634	1	1	0.765	59	0	82
3	1	497	0	2	2	0.0562	0.0634	1	1	0.710	6	82	0
3	1	498	0	1	3	0.0562	0.0634	1	1	0.768	6	0	82
3	1	499	0	2	2	0.0562	0.0634	0	1	0.497	9	0	0
3	1	500	0	2	1	0.0562	0.0634	1	1	1.307	5	82	0
3	1	501	1	2	2	0.0562	0.0634	0	1	0.386	96	82	82
3	1	502	0	1	2	0.0562	0.0634	1	0	0.505	0	0	82
3	1	503	0	1	3	0.0562	0.0634	1	1	0.482	9	0	82
3	1	504	1	2	2	0.0562	0.0634	0	1	0.438	91	82	82
3	1	505	1	2	3	0.0562	0.0634	1	1	0.506	84	0	82
3	1	506	0	1	3	0.0562	0.0634	0	0	0.684	0	0	0
3	1	507	1	2	3	0.0562	0.0634	0	1	0.409	94	82	82
3	1	508	9	1	2	0.0562	0.0634	1	1	0.571	0	0	82
3	1	509	1	2	2	0.0562	0.0634	0	1	0.352	100	82	82
3	1	510	0	2	2	0.0562	0.0634	0	1	0.371	10	0	0
3	1	511	9	1	2	0.0562	0.0634	0	0	0.751	0	82	82
3	1	512	0	1	1	0.0562	0.0634	1	1	0.538	8	0	82
3	1	513	9	2	3	0.0562	0.0634	0	1	0.806	0	82	82
3	1	514	9	1	3	0.0562	0.0634	1	1	0.897	0	0	82
3	1	515	1	2	3	0.0562	0.0634	1	0	0.592	0	0	82
3	1	516	9	1	3	0.0562	0.0634	1	1	0.985	0	0	82
3	1	517	9	2	3	0.0562	0.0634	1	1	0.694	0	82	0
3	1	518	1	2	2	0.0562	0.0634	1	0	0.718	0	0	82
3	1	519	1	1	3	0.0562	0.0634	0	1	0.542	81	82	82
3	1	520	1	1	1	0.0562	0.0634	0	1	0.641	71	82	82
3	1	521	0	2	3	0.0562	0.0634	1	0	0.627	0	82	0
3	1	522	1	2	2	0.0562	0.0634	1	0	0.601	0	0	82
3	1	523	9	2	3	0.0562	0.0634	1	1	0.747	0	82	0
3	1	524	0	2	2	0.0562	0.0634	0	1	0.496	9	0	0
3	1	525	1	2	3	0.0562	0.0634	1	1	0.521	83	0	82
3	1	526	1	2	3	0.0562	0.0634	1	1	0.454	90	0	82
3	1	527	0	2	2	0.0562	0.0634	0	1	0.330	10	0	0
3	1	528	9	2	2	0.0562	0.0634	0	1	0.408	0	0	0
3	1	529	0	1	3	0.0562	0.0634	1	1	0.632	7	0	82
3	1	530	0	1	1	0.0562	0.0634	1	1	0.476	9	0	82
3	1	531	1	2	2	0.0562	0.0634	1	1	0.619	73	0	82
3	1	532	1	2	2	0.0562	0.0634	0	1	0.397	95	82	82
3	1	533	0	2	3	0.0562	0.0634	0	1	0.596	8	0	0
3	1	534	0	1	1	0.0562	0.0634	1	1	0.552	8	0	82
3	1	535	1	2	3	0.0562	0.0634	1	1	0.475	88	0	82
3	1	536	1	2	2	0.0562	0.0634	1	1	0.461	89	0	82
3	1	537	0	2	3	0.0562	0.0634	0	1	0.507	8	0	0
3	1	538	1	2	2	0.0562	0.0634	0	1	0.395	96	82	82
3	1	539	1	2	2	0.0562	0.0634	0	1	0.407	94	82	82
3	1	540	0	2	2	0.0562	0.0634	0	1	0.725	6	0	0
3	1	541	1	2	3	0.0562	0.0634	0	1	0.472	88	82	82
3	1	542	0	1	3	0.0562	0.0634	1	0	0.583	0	0	82
3	1	543	1	1	1	0.0562	0.0634	0	1	0.468	88	82	82
3	1	544	1	2	3	0.0562	0.0634	0	1	0.412	94	82	82
3	1	545	0	2	2	0.0562	0.0634	1	1	0.406	9	82	0
3	1	546	0	1	3	0.0562	0.0634	0	1	0.463	9	0	0
3	1	547	9	2	1	0.0562	0.0634	0	1	0.458	0	82	82
3	1	548	1	1	1	0.0562	0.0634	1	1	0.488	86	82	0
3	1	549	9	2	1	0.0562	0.0634	1	0	0.691	0	82	0
3	1	550	1	2	3	0.0562	0.0634	1	1	0.589	76	0	82
3	1	551	0	1	2	0.0562	0.0634	0	1	0.871	5	0	0
3	1	552	1	1	1	0.0562	0.0634	0	1	0.411	94	82	82
3	1	553	0	1	2	0.0562	0.0634	0	1	0.642	7	0	0
3	1	554	0	1	3	0.0562	0.0634	1	0	0.621	0	0	82
3	1	555	1	2	1	0.0562	0.0634	1	1	0.959	50	0	82
3	1	556	0	2	2	0.0562	0.0634	0	0	0.601	0	0	0
3	1	557	1	2	2	0.0562	0.0634	1	1	0.494	86	0	82
3	1	558	9	2	3	0.0562	0.0634	0	0	0.768	0	0	0
3	1	559	0	2	3	0.0562	0.0634	1	1	0.481	9	82	0
3	1	560	9	2	2	0.0562	0.0634	1	1	0.584	0	0	82
3	1	561	9	1	1	0.0562	0.0634	1	1	0.703	0	0	82
3	1	562	1	1	1	0.0562	0.0634	0	1	0.487	86	82	82
3	1	563	0	2	2	0.0562	0.0634	1	1	0.645	7	82	0
3	1	564	1	1	3	0.0562	0.0634	1	1	0.519	83	82	0
3	1	565	1	1	3	0.0562	0.0634	1	1	0.524	83	82	0
3	1	566	0	2	2	0.0562	0.0634	1	1	0.500	8	82	0
3	1	567	0	1	1	0.0562	0.0634	1	1	0.458	9	0	82
3	1	568	9	2	1	0.0562	0.0634	0	1	0.428	0	0	0
3	1	569	1	1	3	0.0562	0.0634	0	1	0.629	72	82	82
3	1	570	9	2	3	0.0562	0.0634	1	0	0.568	0	0	82
3	1	571	0	2	3	0.0562	0.0634	1	1	0.539	8	82	0
3	1	572	9	2	2	0.0562	0.0634	0	1	0.605	0	0	0
3	1	573	1	1	2	0.0562	0.0634	1	1	0.882	50	82	0
3	1	574	1	1	1	0.0562	0.0634	1	1	0.548	80	82	0
3	1	575	0	1	2	0.0562	0.0634	1	1	0.784	6	0	82
3	1	576	0	1	3	0.0562	0.0634	0	1	0.599	8	0	0
3	1	577	1	2	3	0.0562	0.0634	0	1	0.415	93	82	82
3	1	578	1	2	2	0.0562	0.0634	1	0	0.690	0	0	82
3	1	579	0	2	2	0.0562	0.0634	1	1	0.561	8	82	0
3	1	580	9	1	3	0.0562	0.0634	1	1	0.661	0	0	82
3	1	581	9	2	2	0.0562	0.0634	1	1	0.491	0	82	0
3	1	582	0	2	3	0.0562	0.0634	1	1	0.358	10	82	0
3	1	583	1	2	2	0.0562	0.0634	1	1	0.326	100	0	82
3	1	584	0	2	3	0.0562	0.0634	1	1	0.493	9	82	0
3	1	585	9	1	3	0.0562	0.0634	0	0	0.478	0	0	0
3	1	586	9	1	3	0.0562	0.0634	0	1	0.487	0	82	82
3	1	587	1	2	2	0.0562	0.0634	1	1	0.734	62	0	82
3	1	588	1	1	3	0.0562	0.0634	1	1	0.595	75	82	0
3	1	589	1	2	2	0.0562	0.0634	0	1	0.696	65	82	82
3	1	590	1	1	1	0.0562	0.0634	0	1	0.844	51	82	82
3	1	591	1	1	1	0.0562	0.0634	0	1	0.592	76	82	82
3	1	592	0	1	2	0.0562	0.0634	0	1	0.697	7	0	0
3	1	593	0	1	3	0.0562	0.0634	0	1	0.619	7	0	0
3	1	594	1	2	3	0.0562	0.0634	0	1	0.536	81	82	82
3	1	595	1	1	3	0.0562	0.0634	0	1	0.670	68	82	82
3	1	596	0	2	2	0.0562	0.0634	0	1	0.425	9	0	0
3	1	597	0	2	3	0.0562	0.0634	0	1	0.461	9	0	0
3	1	598	1	1	1	0.0562	0.0634	1	0	0.540	0	82	0
3	1	599	0	1	3	0.0562	0.0634	0	1	1.074	5	0	0
3	1	600	9	1	3	0.0562	0.0634	0	1	0.494	0	0	0
3	1	601	0	1	1	0.0562	0.0634	0	1	0.494	9	0	0
3	1	602	0	1	3	0.0562	0.0634	1	1	0.682	7	0	82
3	1	603	1	1	2	0.0562	0.0634	0	1	0.539	81	82	82
3	1	604	9	1	1	0.0562	0.0634	1	1	0.432	0	0	82
3	1	605	0	1	1	0.0562	0.0634	0	1	1.269	5	0	0
3	1	606	1	2	1	0.0562	0.0634	1	0	0.531	0	0	82
3	1	607	1	2	1	0.0562	0.0634	0	1	0.985	50	82	82
3	1	608	0	1	1	0.0562	0.0634	0	1	0.559	8	0	0
3	1	609	1	2	2	0.0562	0.0634	0	1	0.560	79	82	82
3	1	610	0	2	3	0.0562	0.0634	0	1	0.419	9	0	0
3	1	611	0	1	1	0.0562	0.0634	0	1	0.640	7	0	0
3	1	612	9	2	3	0.0562	0.0634	0	1	0.463	0	0	0
3	1	613	0	1	1	0.0562	0.0634	0	1	0.455	9	0	0
3	1	614	1	1	3	0.0562	0.0634	1	1	0.680	67	82	0
3	1	615	1	1	3	0.0562	0.0634	0	1	0.471	88	82	82
3	1	616	0	1	1	0.0562	0.0634	0	1	0.526	8	0	0
3	1	617	1	1	3	0.0562	0.0634	0	0	0.752	0	82	82
3	1	618	1	2	2	0.0562	0.0634	0	1	0.391	96	82	82
3	1	619	9	1	2	0.0562	0.0634	1	1	0.504	0	82	0
3	1	620	0	2	1	0.0562	0.0634	0	1	0.373	10	0	0
3	1	621	0	2	2	0.0562	0.0634	1	1	0.561	8	82	0
3	1	622	1	1	3	0.0562	0.0634	0	1	0.618	73	82	82
3	1	623	9	2	2	0.0562	0.0634	0	1	0.464	0	82	82
3	1	624	1	2	2	0.0562	0.0634	0	1	0.389	96	82	82
3	1	625	0	1	3	0.0562	0.0634	1	1	0.591	8	0	82
3	1	626	0	2	1	0.0562	0.0634	0	1	0.410	9	0	0
3	1	627	9	1	1	0.0562	0.0634	0	1	0.524	0	82	82
3	1	628	1	2	3	0.0562	0.0634	0	1	0.380	97	82	82
3	1	629	0	2	2	0.0562	0.0634	0	1	0.371	10	0	0
3	1	630	1	2	2	0.0562	0.0634	1	1	0.702	65	0	82
3	1	631	1	1	1	0.0562	0.0634	0	1	0.634	72	82	82
3	1	632	1	2	2	0.0562	0.0634	0	1	0.642	71	82	82
3	1	633	1	2	2	0.0562	0.0634	0	1	0.540	81	82	82
3	1	634	0	2	3	0.0562	0.0634	0	1	0.500	9	0	0
3	1	635	0	2	3	0.0562	0.0634	1	1	0.520	8	82	0
3	1	636	1	1	3	0.0562	0.0634	1	1	0.721	63	82	0
3	1	637	9	1	3	0.0562	0.0634	1	0	0.632	0	0	82
3	1	638	1	1	1	0.0562	0.0634	1	1	0.466	88	82	0
3	1	639	0	2	2	0.0562	0.0634	1	1	0.475	9	82	0
3	1	640	1	1	1	0.0562	0.0634	1	0	0.622	0	82	0
3	1	641	0	2	1	0.0562	0.0634	1	1	0.644	7	82	0
3	1	642	1	2	3	0.0562	0.0634	1	1	0.477	87	0	82
3	1	643	0	1	1	0.0562	0.0634	0	1	0.430	9	0	0
3	1	644	1	1	3	0.0562	0.0634	0	1	0.424	93	82	82
3	1	645	0	1	1	0.0562	0.0634	0	1	0.439	9	0	0
3	1	646	9	2	2	0.0562	0.0634	0	1	0.518	0	82	82
3	1	647	0	2	3	0.0562	0.0634	0	1	0.394	10	0	0
3	1	648	0	2	3	0.0562	0.0634	0	1	0.521	8	0	0
3	1	649	0	2	2	0.0562	0.0634	1	1	0.552	8	82	0
3	1	650	0	2	3	0.0562	0.0634	1	1	0.518	8	82	0
3	1	651	0	1	1	0.0562	0.0634	1	1	0.516	8	0	82
3	1	652	1	1	3	0.0562	0.0634	0	1	0.583	77	82	82
3	1	653	0	2	3	0.0562	0.0634	1	1	0.531	8	82	0
3	1	654	1	2	3	0.0562	0.0634	0	1	0.408	94	82	82
3	1	655	0	1	3	0.0562	0.0634	0	1	0.485	9	0	0
3	1	656	1	1	1	0.0562	0.0634	1	1	0.520	83	82	0
3	1	657	0	1	3	0.0562	0.0634	1	1	0.450	9	0	82
3	1	658	1	1	3	0.0562	0.0634	0	1	0.526	82	82	82
3	1	659	0	2	2	0.0562	0.0634	1	1	0.389	10	82	0
3	1	660	0	2	3	0.0562	0.0634	0	1	0.542	8	0	0
3	1	661	9	2	3	0.0562	0.0634	0	1	0.396	0	0	0
3	1	662	0	1	2	0.0562	0.0634	1	1	0.484	9	0	82
3	1	663	0	2	3	0.0562	0.0634	1	1	0.428	9	82	0
3	1	664	1	2	3	0.0562	0.0634	0	1	0.401	95	82	82
3	1	665	0	1	1	0.0562	0.0634	1	1	0.576	8	0	82
3	1	666	1	1	3	0.0562	0.0634	1	1	0.629	72	82	0
3	1	667	1	1	1	0.0562	0.0634	1	1	0.479	87	82	0
3	1	668	0	2	3	0.0562	0.0634	1	0	0.482	0	82	0
3	1	669	0	2	2	0.0562	0.0634	1	1	0.367	10	82	0
3	1	670	0	1	3	0.0562	0.0634	0	0	0.469	0	0	0
3	1	671	1	1	3	0.0562	0.0634	1	1	0.642	71	82	0
3	1	672	1	1	2	0.0562	0.0634	0	1	1.451	50	82	82
3	1	673	1	2	2	0.0562	0.0634	1	1	0.485	86	0	82
3	1	674	1	1	2	0.0562	0.0634	0	0	1.071	0	82	82
3	1	675	1	1	1	0.0562	0.0634	0	0	0.874	0	82	82
3	1	676	0	1	3	0.0562	0.0634	1	0	1.021	0	0	82
3	1	677	0	1	3	0.0562	0.0634	0	1	0.787	6	0	0
3	1	678	9	2	3	0.0562	0.0634	1	1	0.814	0	82	0
3	1	679	0	2	1	0.0562	0.0634	1	1	0.575	8	82	0
3	1	680	9	2	3	0.0562	0.0634	1	1	0.627	0	0	82
3	1	681	1	2	3	0.0562	0.0634	0	1	0.455	89	82	82
3	1	682	1	1	3	0.0562	0.0634	1	0	0.552	0	82	0
3	1	683	0	1	1	0.0562	0.0634	1	1	0.510	8	0	82
3	1	684	9	2	3	0.0562	0.0634	1	1	0.610	0	0	82
3	1	685	1	1	2	0.0562	0.0634	1	1	0.594	76	82	0
3	1	686	9	1	1	0.0562	0.0634	0	1	0.645	0	0	0
3	1	687	1	2	3	0.0562	0.0634	0	1	0.416	93	82	82
3	1	688	0	1	1	0.0562	0.0634	0	1	0.584	8	0	0
3	1	689	1	2	2	0.0562	0.0634	1	1	0.567	78	0	82
3	1	690	1	2	2	0.0562	0.0634	1	1	0.582	77	0	82
3	1	691	0	1	1	0.0562	0.0634	0	1	0.652	7	0	0
3	1	692	9	2	2	0.0562	0.0634	1	1	0.517	0	82	0
3	1	693	1	2	1	0.0562	0.0634	0	1	0.811	54	82	82
3	1	694	1	2	3	0.0562	0.0634	1	1	0.467	88	0	82
3	1	695	0	1	3	0.0562	0.0634	0	1	0.539	8	0	0
3	1	696	9	1	1	0.0562	0.0634	1	1	0.634	0	0	82
3	1	697	0	2	2	0.0562	0.0634	0	1	0.338	10	0	0
3	1	698	1	1	1	0.0562	0.0634	1	1	0.417	93	82	0
3	1	699	1	1	3	0.0562	0.0634	0	1	0.628	72	82	82
3	1	700	0	2	1	0.0562	0.0634	0	1	0.387	10	0	0
3	1	701	0	1	3	0.0562	0.0634	1	1	0.623	7	0	82
3	1	702	1	2	2	0.0562	0.0634	1	1	0.467	88	0	82
3	1	703	0	1	1	0.0562	0.0634	1	1	0.540	8	0	82
3	1	704	0	2	2	0.0562	0.0634	0	1	0.371	10	0	0
3	1	705	1	1	1	0.0562	0.0634	0	0	0.468	0	82	82
3	1	706	0	2	3	0.0562	0.0634	1	1	0.619	7	82	0
3	1	707	1	2	1	0.0562	0.0634	1	1	0.452	90	0	82
3	1	708	1	1	3	0.0562	0.0634	1	0	0.637	0	82	0
3	1	709	0	2	3	0.0562	0.0634	0	1	0.398	10	0	0
3	1	710	9	2	2	0.0562	0.0634	1	1	0.483	0	0	82
3	1	711	0	1	2	0.0562	0.0634	1	1	1.130	5	0	82
3	1	712	9	2	3	0.0562	0.0634	0	1	0.512	0	82	82
3	1	713	1	1	3	0.0562	0.0634	1	0	0.789	0	82	0
3	1	714	9	1	1	0.0562	0.0634	1	1	0.573	0	82	0
3	1	715	0	1	1	0.0562	0.0634	1	0	0.419	0	0	82
3	1	716	0	2	2	0.0562	0.0634	0	1	0.397	10	0	0
3	1	717	0	1	3	0.0562	0.0634	1	1	0.773	6	0	82
3	1	718	0	2	3	0.0562	0.0634	1	1	0.643	7	82	0
3	1	719	0	2	3	0.0562	0.0634	0	1	0.481	9	0	0
3	1	720	1	1	1	0.0562	0.0634	1	1	0.507	84	82	0
