sub	sess	t	loc	cue	co1	co2	or	resp	rt
145	1	1	2	3	0.2626	0.0500	0	1	2.776
145	1	2	2	2	0.2626	0.0500	1	0	1.343
145	1	3	1	1	0.2626	0.0500	1	1	1.322
145	1	4	2	2	0.2626	0.0500	0	0	1.246
145	1	5	2	3	0.2626	0.0500	0	0	0.935
145	1	6	1	3	0.2626	0.0500	0	0	1.379
145	1	7	2	3	0.2626	0.0500	1	0	0.715
145	1	8	1	3	0.2626	0.0500	0	1	0.657
145	1	9	2	3	0.2626	0.0500	1	1	0.797
145	1	10	1	1	0.2626	0.0500	1	1	0.944
145	1	11	1	1	0.2626	0.0500	1	1	0.978
145	1	12	2	2	0.2626	0.0500	1	0	1.164
145	1	13	1	1	0.2626	0.0500	1	1	0.822
145	1	14	2	2	0.2626	0.0500	1	1	1.007
145	1	15	1	1	0.2626	0.0500	1	1	0.913
145	1	16	1	1	0.2626	0.0500	1	1	0.684
145	1	17	2	2	0.2626	0.0500	0	1	1.018
145	1	18	2	2	0.2626	0.0500	0	1	0.994
145	1	19	1	3	0.2626	0.0500	1	0	1.067
145	1	20	1	1	0.2626	0.0500	0	1	1.243
145	1	21	2	2	0.2626	0.0500	1	1	0.727
145	1	22	2	2	0.2626	0.0500	0	1	0.779
145	1	23	1	3	0.2626	0.0500	0	1	1.019
145	1	24	2	1	0.2626	0.0500	0	1	1.085
145	1	25	2	3	0.2626	0.0500	0	1	0.753
145	1	26	1	2	0.2626	0.0500	1	1	0.932
145	1	27	1	1	0.2626	0.0500	0	1	0.727
145	1	28	1	3	0.2626	0.0500	1	1	0.666
145	1	29	1	1	0.2626	0.0500	1	1	0.929
145	1	30	1	1	0.2626	0.0500	0	1	0.669
145	1	31	1	1	0.2626	0.0500	1	1	0.738
145	1	32	2	2	0.2626	0.0500	1	1	0.845
145	1	33	1	2	0.2626	0.0500	0	1	0.867
145	1	34	1	1	0.2626	0.0500	0	1	0.700
145	1	35	1	3	0.2626	0.0500	0	1	0.657
145	1	36	1	1	0.2626	0.0500	0	1	0.576
145	1	37	2	1	0.2626	0.0500	0	1	1.082
145	1	38	2	2	0.2626	0.0500	1	1	0.878
145	1	39	2	1	0.2626	0.0500	1	1	0.956
145	1	40	2	3	0.2626	0.0500	1	1	1.017
145	1	41	1	1	0.2626	0.0500	0	1	0.814
145	1	42	2	2	0.2626	0.0500	1	1	0.583
145	1	43	2	3	0.2626	0.0500	1	1	0.689
145	1	44	1	3	0.2626	0.0500	1	1	1.253
145	1	45	2	2	0.2626	0.0500	0	1	0.670
145	1	46	2	2	0.2626	0.0500	0	1	1.517
145	1	47	2	2	0.2626	0.0500	0	1	2.186
145	1	48	1	2	0.2626	0.0500	0	0	0.972
145	1	49	1	3	0.2626	0.0500	1	1	1.078
145	1	50	2	2	0.2626	0.0500	1	1	0.874
145	1	51	1	1	0.2626	0.0500	0	1	0.961
145	1	52	2	3	0.2626	0.0500	0	0	1.090
145	1	53	2	1	0.2626	0.0500	1	1	0.647
145	1	54	1	1	0.2626	0.0500	0	0	0.542
145	1	55	1	2	0.2626	0.0500	1	0	2.128
145	1	56	2	2	0.2626	0.0500	0	1	0.588
145	1	57	1	3	0.2626	0.0500	0	1	0.808
145	1	58	1	1	0.2626	0.0500	1	1	1.649
145	1	59	1	1	0.2626	0.0500	0	0	0.955
145	1	60	1	1	0.2626	0.0500	1	1	1.119
145	1	61	1	1	0.2626	0.0500	1	1	1.854
145	1	62	2	3	0.2626	0.0500	1	1	0.877
145	1	63	1	3	0.2626	0.0500	1	0	0.812
145	1	64	1	3	0.2626	0.0500	1	1	0.732
145	1	65	1	1	0.2626	0.0500	0	1	0.633
145	1	66	1	1	0.2626	0.0500	1	1	0.985
145	1	67	2	2	0.2626	0.0500	0	0	1.202
145	1	68	1	1	0.2626	0.0500	1	1	0.666
145	1	69	1	1	0.2626	0.0500	1	1	1.001
145	1	70	2	3	0.2626	0.0500	0	0	0.930
145	1	71	1	1	0.2626	0.0500	1	0	2.534
145	1	72	2	2	0.2626	0.0500	1	0	1.651
145	1	73	2	2	0.2626	0.0500	1	1	0.681
145	1	74	2	2	0.2626	0.0500	0	0	4.473
145	1	75	1	3	0.2626	0.0500	1	0	1.831
145	1	76	1	1	0.2626	0.0500	0	1	1.028
145	1	77	1	3	0.2626	0.0500	0	0	1.516
145	1	78	1	2	0.2626	0.0500	1	1	3.102
145	1	79	1	1	0.2626	0.0500	0	0	0.523
145	1	80	2	2	0.2626	0.0500	0	0	3.080
145	1	81	1	3	0.2626	0.0500	0	1	0.904
145	1	82	2	2	0.2626	0.0500	0	1	3.716
145	1	83	2	3	0.2626	0.0500	1	0	2.880
145	1	84	1	1	0.2626	0.0500	0	1	3.207
145	1	85	2	1	0.2626	0.0500	0	1	1.689
145	1	86	1	1	0.2626	0.0500	0	1	1.352
145	1	87	1	2	0.2626	0.0500	1	0	3.796
145	1	88	2	1	0.2626	0.0500	1	0	2.206
145	1	89	2	3	0.2626	0.0500	0	0	1.073
145	1	90	1	3	0.2626	0.0500	0	1	0.727
145	1	91	2	3	0.2626	0.0500	0	1	1.162
145	1	92	2	3	0.2626	0.0500	1	0	1.964
145	1	93	2	3	0.2626	0.0500	0	1	3.398
145	1	94	2	2	0.2626	0.0500	1	0	0.865
145	1	95	2	3	0.2626	0.0500	1	1	1.177
145	1	96	2	1	0.2626	0.0500	1	0	3.673
145	1	97	2	2	0.2626	0.0500	1	1	4.575
145	1	98	1	3	0.2626	0.0500	1	1	0.866
145	1	99	2	2	0.2626	0.0500	1	1	1.903
145	1	100	2	1	0.2626	0.0500	0	1	5.125
145	1	101	2	2	0.2626	0.0500	1	1	1.058
145	1	102	2	2	0.2626	0.0500	0	1	2.167
145	1	103	1	1	0.2626	0.0500	0	1	1.801
145	1	104	1	1	0.2626	0.0500	0	1	4.513
145	1	105	2	2	0.2626	0.0500	0	1	3.086
145	1	106	2	2	0.2626	0.0500	1	0	0.955
145	1	107	1	2	0.2626	0.0500	0	1	0.768
145	1	108	2	2	0.2626	0.0500	1	0	3.243
145	1	109	2	2	0.2626	0.0500	0	1	3.227
145	1	110	1	2	0.2626	0.0500	0	1	5.331
145	1	111	1	1	0.2626	0.0500	1	1	0.726
145	1	112	2	2	0.2626	0.0500	0	1	2.737
