sub	sess	t	rew	loc	cue	co1	co2	or	resp	rt	rew_tot	left_col	right_col
145	1	1	0	2	3	0.2626	0.0500	1	1	1.361	5	82	0
145	1	2	9	2	2	0.2626	0.0500	0	1	1.042	0	82	82
145	1	3	9	2	2	0.2626	0.0500	0	1	0.873	0	82	82
145	1	4	0	2	2	0.2626	0.0500	0	0	0.961	0	0	0
145	1	5	0	2	3	0.2626	0.0500	0	1	0.684	7	0	0
145	1	6	0	2	2	0.2626	0.0500	1	1	0.658	7	82	0
145	1	7	1	2	2	0.2626	0.0500	0	1	0.783	57	82	82
145	1	8	1	1	3	0.2626	0.0500	0	1	0.841	51	82	82
145	1	9	1	1	3	0.2626	0.0500	1	1	0.783	57	82	0
145	1	10	0	2	3	0.2626	0.0500	1	1	0.656	7	82	0
145	1	11	0	1	3	0.2626	0.0500	1	1	0.848	5	0	82
145	1	12	1	2	3	0.2626	0.0500	0	1	0.728	62	82	82
145	1	13	1	1	3	0.2626	0.0500	0	1	0.582	77	82	82
145	1	14	1	2	3	0.2626	0.0500	1	1	0.825	52	0	82
145	1	15	0	2	2	0.2626	0.0500	0	1	0.505	8	0	0
145	1	16	9	1	3	0.2626	0.0500	1	1	0.983	0	0	82
145	1	17	1	1	1	0.2626	0.0500	1	1	0.704	65	82	0
145	1	18	0	1	3	0.2626	0.0500	0	1	0.767	6	0	0
145	1	19	0	1	1	0.2626	0.0500	0	0	0.868	0	0	0
145	1	20	1	2	3	0.2626	0.0500	0	1	1.162	50	82	82
145	1	21	1	2	2	0.2626	0.0500	1	1	0.760	59	0	82
145	1	22	1	2	3	0.2626	0.0500	0	1	0.962	50	82	82
145	1	23	0	1	3	0.2626	0.0500	0	1	0.740	6	0	0
145	1	24	9	2	3	0.2626	0.0500	1	1	0.698	0	82	0
145	1	25	1	2	1	0.2626	0.0500	0	1	0.870	50	82	82
145	1	26	1	1	1	0.2626	0.0500	1	1	0.789	56	82	0
145	1	27	0	2	3	0.2626	0.0500	1	1	0.655	7	82	0
145	1	28	1	2	3	0.2626	0.0500	0	1	0.769	58	82	82
145	1	29	1	2	1	0.2626	0.0500	1	1	0.755	59	0	82
145	1	30	1	2	3	0.2626	0.0500	0	0	0.750	0	82	82
145	1	31	0	1	1	0.2626	0.0500	1	1	0.873	5	0	82
145	1	32	1	1	3	0.2626	0.0500	1	1	0.744	61	82	0
145	1	33	1	1	1	0.2626	0.0500	0	1	1.011	50	82	82
145	1	34	9	1	2	0.2626	0.0500	1	1	0.779	0	82	0
145	1	35	9	2	3	0.2626	0.0500	1	1	0.867	0	0	82
145	1	36	9	1	1	0.2626	0.0500	0	1	0.617	0	0	0
145	1	37	1	1	1	0.2626	0.0500	0	1	0.649	70	82	82
145	1	38	0	1	1	0.2626	0.0500	0	1	0.497	9	0	0
145	1	39	0	2	1	0.2626	0.0500	1	0	1.375	0	82	0
145	1	40	0	1	1	0.2626	0.0500	0	1	0.592	8	0	0
145	1	41	0	1	3	0.2626	0.0500	0	0	0.640	0	0	0
145	1	42	9	2	2	0.2626	0.0500	0	1	0.841	0	0	0
145	1	43	0	2	3	0.2626	0.0500	0	1	0.793	6	0	0
145	1	44	0	2	3	0.2626	0.0500	0	1	0.901	5	0	0
145	1	45	9	1	1	0.2626	0.0500	0	1	0.729	0	0	0
145	1	46	0	1	1	0.2626	0.0500	1	1	0.852	5	0	82
145	1	47	1	1	3	0.2626	0.0500	1	1	1.242	50	82	0
145	1	48	0	2	3	0.2626	0.0500	0	0	0.867	0	0	0
145	1	49	1	2	2	0.2626	0.0500	0	1	1.098	50	82	82
145	1	50	0	2	1	0.2626	0.0500	0	0	0.792	0	0	0
145	1	51	1	2	2	0.2626	0.0500	1	1	0.936	50	0	82
145	1	52	0	2	3	0.2626	0.0500	1	1	0.740	6	82	0
145	1	53	0	1	1	0.2626	0.0500	0	1	0.663	7	0	0
145	1	54	1	2	2	0.2626	0.0500	1	1	0.757	59	0	82
145	1	55	1	2	2	0.2626	0.0500	0	0	0.705	0	82	82
145	1	56	0	2	2	0.2626	0.0500	0	1	0.693	7	0	0
145	1	57	9	1	1	0.2626	0.0500	0	1	0.585	0	82	82
145	1	58	0	1	1	0.2626	0.0500	0	1	0.634	7	0	0
145	1	59	1	2	3	0.2626	0.0500	1	1	0.664	69	0	82
145	1	60	9	2	2	0.2626	0.0500	0	0	0.870	0	82	82
145	1	61	0	2	3	0.2626	0.0500	0	1	0.701	6	0	0
145	1	62	0	1	1	0.2626	0.0500	1	1	0.561	8	0	82
145	1	63	9	2	2	0.2626	0.0500	1	1	0.734	0	82	0
145	1	64	0	1	3	0.2626	0.0500	1	1	0.825	5	0	82
145	1	65	0	1	3	0.2626	0.0500	1	1	0.729	6	0	82
145	1	66	1	2	3	0.2626	0.0500	0	1	0.956	50	82	82
145	1	67	1	2	1	0.2626	0.0500	1	1	0.761	59	0	82
145	1	68	0	1	2	0.2626	0.0500	1	1	1.299	5	0	82
145	1	69	1	2	1	0.2626	0.0500	0	0	0.769	0	82	82
145	1	70	9	2	3	0.2626	0.0500	1	1	1.034	0	82	0
145	1	71	1	1	3	0.2626	0.0500	1	1	0.852	50	82	0
145	1	72	1	2	2	0.2626	0.0500	1	0	0.659	0	0	82
145	1	73	1	1	1	0.2626	0.0500	0	1	0.745	61	82	82
145	1	74	0	1	2	0.2626	0.0500	0	0	0.979	0	0	0
145	1	75	1	1	1	0.2626	0.0500	1	1	0.739	61	82	0
145	1	76	9	1	1	0.2626	0.0500	0	1	0.679	0	82	82
145	1	77	0	1	1	0.2626	0.0500	1	0	0.802	0	0	82
145	1	78	9	2	3	0.2626	0.0500	1	1	1.043	0	0	82
145	1	79	0	2	2	0.2626	0.0500	0	1	0.944	5	0	0
145	1	80	0	1	3	0.2626	0.0500	1	1	1.370	5	0	82
145	1	81	0	2	3	0.2626	0.0500	1	1	0.656	7	82	0
145	1	82	1	1	3	0.2626	0.0500	1	1	1.119	50	82	0
145	1	83	1	2	3	0.2626	0.0500	1	1	0.798	55	0	82
145	1	84	1	1	3	0.2626	0.0500	1	1	0.896	50	82	0
145	1	85	1	1	1	0.2626	0.0500	1	1	1.703	50	82	0
145	1	86	1	2	3	0.2626	0.0500	0	0	0.565	0	82	82
145	1	87	0	2	3	0.2626	0.0500	0	0	2.943	0	0	0
145	1	88	9	2	3	0.2626	0.0500	0	0	1.340	0	0	0
145	1	89	0	1	3	0.2626	0.0500	1	1	1.016	5	0	82
145	1	90	9	1	3	0.2626	0.0500	0	1	0.874	0	0	0
145	1	91	0	2	3	0.2626	0.0500	1	1	0.559	8	82	0
145	1	92	1	2	3	0.2626	0.0500	1	1	2.226	50	0	82
145	1	93	1	2	3	0.2626	0.0500	1	1	0.467	88	0	82
145	1	94	0	1	1	0.2626	0.0500	1	0	1.465	0	0	82
145	1	95	0	2	3	0.2626	0.0500	0	0	5.137	0	0	0
145	1	96	1	1	3	0.2626	0.0500	0	1	0.878	50	82	82
145	1	97	1	2	3	0.2626	0.0500	0	1	1.044	50	82	82
145	1	98	0	1	2	0.2626	0.0500	0	1	4.635	5	0	0
145	1	99	1	1	3	0.2626	0.0500	0	1	0.012	100	82	82
145	1	100	1	1	3	0.2626	0.0500	1	0	0.679	0	82	0
145	1	101	0	1	3	0.2626	0.0500	1	0	4.013	0	0	82
145	1	102	1	2	3	0.2626	0.0500	1	0	6.148	0	0	82
145	1	103	0	2	2	0.2626	0.0500	1	1	0.839	5	82	0
145	1	104	0	2	2	0.2626	0.0500	1	0	6.361	0	82	0
145	1	105	1	2	2	0.2626	0.0500	0	1	4.874	50	82	82
145	1	106	0	2	1	0.2626	0.0500	1	1	0.728	6	82	0
145	1	107	1	1	1	0.2626	0.0500	0	1	3.485	50	82	82
145	1	108	0	1	2	0.2626	0.0500	1	0	4.716	0	0	82
145	1	109	0	1	1	0.2626	0.0500	0	1	0.730	6	0	0
145	1	110	0	2	3	0.2626	0.0500	0	0	0.806	0	0	0
145	1	111	1	2	1	0.2626	0.0500	0	1	11.080	50	82	82
145	1	112	0	1	2	0.2626	0.0500	0	1	0.661	7	0	0
145	1	113	0	1	3	0.2626	0.0500	0	1	0.725	6	0	0
145	1	114	9	1	1	0.2626	0.0500	1	0	5.280	0	82	0
145	1	115	1	1	1	0.2626	0.0500	1	0	1.632	0	82	0
145	1	116	9	2	2	0.2626	0.0500	0	1	4.465	0	0	0
145	1	117	1	2	2	0.2626	0.0500	0	0	1.472	0	82	82
145	1	118	1	1	2	0.2626	0.0500	1	0	0.975	0	82	0
145	1	119	0	2	2	0.2626	0.0500	1	0	8.814	0	82	0
145	1	120	0	1	3	0.2626	0.0500	1	0	4.736	0	0	82
145	1	121	1	2	2	0.2626	0.0500	0	1	4.711	50	82	82
145	1	122	1	2	3	0.2626	0.0500	0	1	0.549	80	82	82
145	1	123	9	1	3	0.2626	0.0500	0	1	1.680	0	0	0
145	1	124	9	1	2	0.2626	0.0500	1	0	1.302	0	0	82
145	1	125	1	1	1	0.2626	0.0500	1	0	5.418	0	82	0
145	1	126	1	1	3	0.2626	0.0500	0	1	5.555	50	82	82
145	1	127	1	2	2	0.2626	0.0500	0	1	1.968	50	82	82
145	1	128	0	2	2	0.2626	0.0500	0	1	0.421	9	0	0
145	1	129	1	1	1	0.2626	0.0500	0	1	5.871	50	82	82
145	1	130	1	1	3	0.2626	0.0500	1	0	1.429	0	82	0
145	1	131	0	2	3	0.2626	0.0500	0	1	1.180	5	0	0
145	1	132	1	2	2	0.2626	0.0500	0	1	1.661	50	82	82
145	1	133	0	2	2	0.2626	0.0500	1	0	4.270	0	82	0
145	1	134	0	1	2	0.2626	0.0500	0	1	1.275	5	0	0
145	1	135	0	1	3	0.2626	0.0500	1	0	1.551	0	0	82
145	1	136	0	2	2	0.2626	0.0500	0	1	4.881	5	0	0
145	1	137	0	2	2	0.2626	0.0500	0	1	1.639	5	0	0
145	1	138	1	1	1	0.2626	0.0500	1	0	4.352	0	82	0
145	1	139	1	2	2	0.2626	0.0500	1	0	0.044	0	0	82
145	1	140	0	1	3	0.2626	0.0500	0	1	5.567	5	0	0
145	1	141	9	1	3	0.2626	0.0500	1	0	4.774	0	82	0
145	1	142	1	2	2	0.2626	0.0500	0	1	1.057	50	82	82
145	1	143	1	2	2	0.2626	0.0500	1	0	1.488	0	0	82
145	1	144	0	2	1	0.2626	0.0500	1	0	7.781	0	82	0
145	1	145	0	1	3	0.2626	0.0500	0	1	0.288	10	0	0
145	1	146	0	2	3	0.2626	0.0500	0	1	2.158	5	0	0
145	1	147	1	1	3	0.2626	0.0500	0	1	1.224	50	82	82
145	1	148	0	1	1	0.2626	0.0500	1	0	0.112	0	0	82
145	1	149	1	1	1	0.2626	0.0500	1	1	0.617	73	82	0
145	1	150	0	1	3	0.2626	0.0500	0	1	1.000	5	0	0
145	1	151	9	2	3	0.2626	0.0500	0	0	4.561	0	82	82
145	1	152	9	1	3	0.2626	0.0500	0	0	1.220	0	82	82
145	1	153	0	1	3	0.2626	0.0500	0	1	2.060	5	0	0
145	1	154	1	2	2	0.2626	0.0500	0	1	0.309	100	82	82
145	1	155	0	2	3	0.2626	0.0500	1	0	2.899	0	82	0
145	1	156	1	2	3	0.2626	0.0500	1	0	3.424	0	0	82
145	1	157	9	2	2	0.2626	0.0500	1	0	5.489	0	0	82
145	1	158	1	2	2	0.2626	0.0500	0	1	2.703	50	82	82
145	1	159	1	2	2	0.2626	0.0500	1	0	1.964	0	0	82
145	1	160	1	1	2	0.2626	0.0500	0	1	3.687	50	82	82
145	1	161	1	2	3	0.2626	0.0500	0	1	3.161	50	82	82
145	1	162	9	2	3	0.2626	0.0500	1	0	2.396	0	82	0
145	1	163	1	1	1	0.2626	0.0500	1	0	1.636	0	82	0
145	1	164	9	1	1	0.2626	0.0500	1	0	6.140	0	0	82
145	1	165	0	1	2	0.2626	0.0500	1	0	2.338	0	0	82
145	1	166	0	2	2	0.2626	0.0500	0	1	0.828	5	0	0
145	1	167	0	2	2	0.2626	0.0500	1	0	-0.123	0	82	0
145	1	168	1	1	3	0.2626	0.0500	1	0	8.874	0	82	0
145	1	169	0	2	2	0.2626	0.0500	0	1	1.897	5	0	0
145	1	170	0	1	1	0.2626	0.0500	1	0	6.087	0	0	82
145	1	171	0	2	3	0.2626	0.0500	1	0	-0.105	0	82	0
145	1	172	0	2	2	0.2626	0.0500	0	1	2.162	5	0	0
145	1	173	0	1	1	0.2626	0.0500	0	1	5.548	5	0	0
145	1	174	9	1	3	0.2626	0.0500	0	1	3.329	0	0	0
145	1	175	1	2	3	0.2626	0.0500	1	0	2.159	0	0	82
145	1	176	9	2	3	0.2626	0.0500	0	1	2.072	0	0	0
145	1	177	9	2	2	0.2626	0.0500	0	1	1.470	0	0	0
145	1	178	0	1	3	0.2626	0.0500	1	0	1.123	0	0	82
145	1	179	0	2	3	0.2626	0.0500	1	0	0.046	0	82	0
145	1	180	0	2	3	0.2626	0.0500	1	0	1.688	0	82	0
145	1	181	9	1	3	0.2626	0.0500	1	0	6.488	0	82	0
145	1	182	1	2	2	0.2626	0.0500	1	0	1.270	0	0	82
145	1	183	0	2	1	0.2626	0.0500	0	1	8.255	5	0	0
145	1	184	9	1	1	0.2626	0.0500	0	1	12.176	0	82	82
145	1	185	1	1	2	0.2626	0.0500	1	0	0.649	0	82	0
145	1	186	1	2	3	0.2626	0.0500	0	1	1.015	50	82	82
145	1	187	1	1	1	0.2626	0.0500	1	0	6.729	0	82	0
145	1	188	0	1	1	0.2626	0.0500	0	1	6.532	5	0	0
145	1	189	0	1	3	0.2626	0.0500	0	1	3.630	5	0	0
145	1	190	0	1	3	0.2626	0.0500	0	1	1.439	5	0	0
145	1	191	0	1	1	0.2626	0.0500	0	1	3.225	5	0	0
145	1	192	1	1	3	0.2626	0.0500	0	1	2.961	50	82	82
145	1	193	0	2	2	0.2626	0.0500	1	0	4.860	0	82	0
145	1	194	1	2	2	0.2626	0.0500	0	1	2.033	50	82	82
145	1	195	1	2	2	0.2626	0.0500	1	0	2.057	0	0	82
145	1	196	9	2	3	0.2626	0.0500	1	0	2.743	0	82	0
145	1	197	1	1	3	0.2626	0.0500	0	1	1.274	50	82	82
145	1	198	1	1	1	0.2626	0.0500	0	1	2.706	50	82	82
145	1	199	1	2	1	0.2626	0.0500	1	0	4.529	0	0	82
145	1	200	1	1	3	0.2626	0.0500	1	0	6.030	0	82	0
145	1	201	1	1	1	0.2626	0.0500	1	1	0.939	50	82	0
145	1	202	0	1	1	0.2626	0.0500	1	1	0.711	6	0	82
145	1	203	0	1	1	0.2626	0.0500	0	1	0.750	6	0	0
145	1	204	9	1	1	0.2626	0.0500	1	0	6.255	0	82	0
145	1	205	9	1	3	0.2626	0.0500	0	1	2.141	0	82	82
145	1	206	0	1	3	0.2626	0.0500	0	1	0.161	10	0	0
145	1	207	1	1	3	0.2626	0.0500	1	1	0.939	50	82	0
145	1	208	1	1	3	0.2626	0.0500	1	0	6.072	0	82	0
145	1	209	9	2	1	0.2626	0.0500	1	1	2.765	0	0	82
145	1	210	0	2	2	0.2626	0.0500	1	0	0.961	0	82	0
145	1	211	1	2	3	0.2626	0.0500	0	1	1.051	50	82	82
145	1	212	1	1	2	0.2626	0.0500	1	0	0.857	0	82	0
145	1	213	1	1	2	0.2626	0.0500	0	1	0.720	63	82	82
145	1	214	1	1	1	0.2626	0.0500	1	1	0.755	60	82	0
145	1	215	1	2	2	0.2626	0.0500	1	0	0.678	0	0	82
145	1	216	1	1	2	0.2626	0.0500	0	1	0.829	52	82	82
145	1	217	9	2	3	0.2626	0.0500	0	1	0.797	0	0	0
145	1	218	1	1	1	0.2626	0.0500	0	0	0.734	0	82	82
145	1	219	1	1	3	0.2626	0.0500	0	1	0.745	60	82	82
145	1	220	1	1	1	0.2626	0.0500	0	1	1.926	50	82	82
145	1	221	1	2	3	0.2626	0.0500	0	1	0.751	60	82	82
145	1	222	1	1	3	0.2626	0.0500	0	1	0.769	58	82	82
145	1	223	9	1	3	0.2626	0.0500	0	1	0.587	0	82	82
145	1	224	9	1	3	0.2626	0.0500	1	1	0.628	0	0	82
145	1	225	1	2	2	0.2626	0.0500	0	0	0.845	0	82	82
145	1	226	1	1	1	0.2626	0.0500	1	1	0.627	72	82	0
145	1	227	9	2	2	0.2626	0.0500	1	1	0.867	0	0	82
145	1	228	0	2	1	0.2626	0.0500	0	1	1.208	5	0	0
145	1	229	1	2	3	0.2626	0.0500	1	1	0.794	56	0	82
145	1	230	1	2	2	0.2626	0.0500	0	1	0.748	60	82	82
145	1	231	1	1	1	0.2626	0.0500	1	1	0.609	74	82	0
145	1	232	0	2	3	0.2626	0.0500	0	1	0.778	6	0	0
145	1	233	9	1	3	0.2626	0.0500	1	1	0.909	0	82	0
145	1	234	0	2	2	0.2626	0.0500	0	1	0.739	6	0	0
145	1	235	0	1	3	0.2626	0.0500	1	0	2.525	0	0	82
145	1	236	0	2	3	0.2626	0.0500	0	1	0.784	6	0	0
145	1	237	0	2	3	0.2626	0.0500	0	1	0.737	6	0	0
145	1	238	0	2	2	0.2626	0.0500	0	1	0.702	6	0	0
145	1	239	1	1	1	0.2626	0.0500	0	1	0.874	50	82	82
145	1	240	9	2	2	0.2626	0.0500	1	1	0.811	0	82	0
145	1	241	0	2	2	0.2626	0.0500	1	1	0.671	7	82	0
145	1	242	0	2	2	0.2626	0.0500	1	1	0.671	7	82	0
145	1	243	9	2	2	0.2626	0.0500	1	1	0.661	0	82	0
145	1	244	0	1	1	0.2626	0.0500	1	1	0.508	8	0	82
145	1	245	9	1	2	0.2626	0.0500	0	1	0.946	0	82	82
145	1	246	9	2	1	0.2626	0.0500	1	1	0.679	0	82	0
145	1	247	0	2	3	0.2626	0.0500	1	1	0.659	7	82	0
145	1	248	9	2	2	0.2626	0.0500	0	1	0.673	0	82	82
145	1	249	9	1	3	0.2626	0.0500	0	1	0.869	0	0	0
145	1	250	0	2	2	0.2626	0.0500	1	1	0.557	8	82	0
145	1	251	1	1	3	0.2626	0.0500	1	1	0.649	70	82	0
145	1	252	1	1	1	0.2626	0.0500	0	0	0.807	0	82	82
145	1	253	0	2	3	0.2626	0.0500	1	1	1.970	5	82	0
145	1	254	9	1	1	0.2626	0.0500	1	1	0.620	0	0	82
145	1	255	0	1	3	0.2626	0.0500	1	1	0.572	8	0	82
145	1	256	1	1	3	0.2626	0.0500	0	1	0.777	57	82	82
145	1	257	1	1	3	0.2626	0.0500	0	1	0.657	69	82	82
145	1	258	9	1	1	0.2626	0.0500	0	1	0.681	0	0	0
145	1	259	0	1	3	0.2626	0.0500	1	1	0.545	8	0	82
145	1	260	0	2	1	0.2626	0.0500	1	1	0.693	7	82	0
145	1	261	0	1	3	0.2626	0.0500	1	1	1.277	5	0	82
145	1	262	1	2	3	0.2626	0.0500	1	1	0.707	64	0	82
145	1	263	0	2	2	0.2626	0.0500	1	1	0.599	8	82	0
145	1	264	0	1	1	0.2626	0.0500	0	1	0.783	6	0	0
145	1	265	0	1	1	0.2626	0.0500	1	1	0.655	7	0	82
145	1	266	1	1	2	0.2626	0.0500	1	0	0.887	0	82	0
145	1	267	0	2	3	0.2626	0.0500	0	0	0.389	0	0	0
145	1	268	0	1	1	0.2626	0.0500	1	1	0.381	10	0	82
145	1	269	0	1	1	0.2626	0.0500	1	1	0.464	9	0	82
145	1	270	0	1	1	0.2626	0.0500	1	1	0.536	8	0	82
145	1	271	1	2	2	0.2626	0.0500	1	1	0.837	51	0	82
145	1	272	1	1	3	0.2626	0.0500	1	1	0.651	70	82	0
145	1	273	0	1	3	0.2626	0.0500	1	1	0.545	8	0	82
145	1	274	0	1	2	0.2626	0.0500	1	1	0.507	8	0	82
145	1	275	1	2	2	0.2626	0.0500	1	1	1.194	50	0	82
145	1	276	0	1	3	0.2626	0.0500	0	0	0.666	0	0	0
145	1	277	1	1	3	0.2626	0.0500	1	1	0.480	87	82	0
145	1	278	1	1	1	0.2626	0.0500	0	1	0.724	63	82	82
145	1	279	1	2	3	0.2626	0.0500	1	1	0.985	50	0	82
145	1	280	0	1	1	0.2626	0.0500	0	0	2.499	0	0	0
145	1	281	0	2	2	0.2626	0.0500	1	1	0.645	7	82	0
145	1	282	0	2	1	0.2626	0.0500	0	0	0.636	0	0	0
145	1	283	0	1	3	0.2626	0.0500	0	0	0.702	0	0	0
145	1	284	9	2	2	0.2626	0.0500	1	1	0.660	0	0	82
145	1	285	0	2	2	0.2626	0.0500	0	1	1.277	5	0	0
145	1	286	1	1	3	0.2626	0.0500	1	1	0.667	68	82	0
145	1	287	0	1	3	0.2626	0.0500	1	1	0.595	8	0	82
145	1	288	0	1	1	0.2626	0.0500	0	0	1.741	0	0	0
145	1	289	9	2	3	0.2626	0.0500	1	1	0.688	0	0	82
145	1	290	1	2	3	0.2626	0.0500	1	1	0.733	62	0	82
145	1	291	9	1	1	0.2626	0.0500	0	1	0.746	0	82	82
145	1	292	0	1	3	0.2626	0.0500	0	0	5.100	0	0	0
145	1	293	1	2	3	0.2626	0.0500	1	1	0.706	64	0	82
145	1	294	0	2	2	0.2626	0.0500	1	1	1.439	5	82	0
145	1	295	9	1	1	0.2626	0.0500	0	1	0.766	0	0	0
145	1	296	9	1	1	0.2626	0.0500	1	1	0.633	0	0	82
145	1	297	1	1	1	0.2626	0.0500	0	1	0.664	69	82	82
145	1	298	1	2	3	0.2626	0.0500	1	0	0.902	0	0	82
145	1	299	0	2	2	0.2626	0.0500	1	1	0.684	7	82	0
145	1	300	1	2	3	0.2626	0.0500	0	1	2.882	50	82	82
145	1	301	1	2	1	0.2626	0.0500	1	1	0.731	62	0	82
145	1	302	0	1	3	0.2626	0.0500	0	1	0.816	5	0	0
145	1	303	9	1	3	0.2626	0.0500	1	0	1.154	0	0	82
145	1	304	9	1	2	0.2626	0.0500	0	1	0.708	0	0	0
145	1	305	1	2	3	0.2626	0.0500	1	1	0.690	66	0	82
145	1	306	9	2	1	0.2626	0.0500	0	0	3.601	0	82	82
145	1	307	1	2	1	0.2626	0.0500	0	0	0.739	0	82	82
145	1	308	0	2	3	0.2626	0.0500	0	1	0.824	5	0	0
145	1	309	0	2	2	0.2626	0.0500	0	1	0.743	6	0	0
145	1	310	9	1	1	0.2626	0.0500	1	0	2.344	0	82	0
145	1	311	0	2	2	0.2626	0.0500	0	1	0.629	7	0	0
145	1	312	1	1	1	0.2626	0.0500	0	1	0.820	53	82	82
145	1	313	9	2	3	0.2626	0.0500	0	1	0.771	0	82	82
145	1	314	1	2	3	0.2626	0.0500	0	1	0.655	70	82	82
145	1	315	1	2	2	0.2626	0.0500	0	1	0.645	70	82	82
145	1	316	9	2	3	0.2626	0.0500	0	1	0.631	0	0	0
145	1	317	9	1	3	0.2626	0.0500	1	1	0.696	0	82	0
145	1	318	9	2	2	0.2626	0.0500	1	0	1.573	0	82	0
145	1	319	1	1	1	0.2626	0.0500	1	1	1.018	50	82	0
145	1	320	1	2	2	0.2626	0.0500	1	0	9.057	0	0	82
145	1	321	1	2	2	0.2626	0.0500	0	1	0.748	60	82	82
145	1	322	0	1	1	0.2626	0.0500	1	1	0.609	7	0	82
145	1	323	1	1	1	0.2626	0.0500	0	1	0.665	68	82	82
145	1	324	0	2	3	0.2626	0.0500	0	1	0.713	6	0	0
145	1	325	1	2	2	0.2626	0.0500	1	1	0.560	79	0	82
145	1	326	0	2	2	0.2626	0.0500	1	1	0.441	9	82	0
145	1	327	9	1	1	0.2626	0.0500	1	1	0.695	0	82	0
145	1	328	1	2	2	0.2626	0.0500	1	1	0.605	74	0	82
145	1	329	0	2	3	0.2626	0.0500	1	1	0.613	7	82	0
145	1	330	0	1	1	0.2626	0.0500	0	1	0.709	6	0	0
145	1	331	0	2	3	0.2626	0.0500	1	1	0.570	8	82	0
145	1	332	0	2	3	0.2626	0.0500	1	1	0.499	9	82	0
145	1	333	9	2	3	0.2626	0.0500	0	0	0.698	0	82	82
145	1	334	9	1	3	0.2626	0.0500	0	1	1.256	0	82	82
145	1	335	9	1	3	0.2626	0.0500	1	1	0.565	0	0	82
145	1	336	0	1	3	0.2626	0.0500	0	0	0.881	0	0	0
145	1	337	0	1	1	0.2626	0.0500	1	1	0.463	9	0	82
145	1	338	9	2	1	0.2626	0.0500	0	0	0.814	0	0	0
145	1	339	0	1	1	0.2626	0.0500	0	1	0.777	6	0	0
145	1	340	1	1	1	0.2626	0.0500	1	1	0.636	71	82	0
145	1	341	1	1	3	0.2626	0.0500	0	1	0.772	58	82	82
145	1	342	9	1	1	0.2626	0.0500	1	1	0.560	0	0	82
145	1	343	1	1	3	0.2626	0.0500	0	1	0.500	85	82	82
145	1	344	0	2	3	0.2626	0.0500	1	1	0.871	5	82	0
145	1	345	0	1	1	0.2626	0.0500	1	0	0.863	0	0	82
145	1	346	9	2	3	0.2626	0.0500	1	1	0.960	0	0	82
145	1	347	1	1	3	0.2626	0.0500	0	1	0.620	73	82	82
145	1	348	9	2	2	0.2626	0.0500	0	1	0.772	0	0	0
145	1	349	1	1	2	0.2626	0.0500	0	1	0.672	68	82	82
145	1	350	1	2	3	0.2626	0.0500	0	1	0.895	50	82	82
145	1	351	1	1	3	0.2626	0.0500	0	1	0.765	59	82	82
145	1	352	1	2	2	0.2626	0.0500	1	1	0.625	72	0	82
145	1	353	0	2	2	0.2626	0.0500	0	0	0.640	0	0	0
145	1	354	0	1	3	0.2626	0.0500	1	1	0.889	5	0	82
145	1	355	0	1	1	0.2626	0.0500	0	1	0.720	6	0	0
145	1	356	1	1	1	0.2626	0.0500	0	1	0.607	74	82	82
145	1	357	9	2	2	0.2626	0.0500	1	1	0.767	0	0	82
145	1	358	9	2	3	0.2626	0.0500	0	0	0.904	0	82	82
145	1	359	1	1	1	0.2626	0.0500	0	1	0.638	71	82	82
145	1	360	1	2	3	0.2626	0.0500	1	1	0.767	58	0	82
145	1	361	0	2	2	0.2626	0.0500	1	1	0.668	7	82	0
145	1	362	9	1	3	0.2626	0.0500	1	1	0.914	0	0	82
145	1	363	0	1	3	0.2626	0.0500	1	1	0.885	5	0	82
145	1	364	9	2	3	0.2626	0.0500	0	1	0.884	0	82	82
145	1	365	0	1	3	0.2626	0.0500	0	1	0.731	6	0	0
145	1	366	1	2	2	0.2626	0.0500	1	1	0.688	66	0	82
145	1	367	9	1	1	0.2626	0.0500	1	1	0.572	0	0	82
145	1	368	1	1	3	0.2626	0.0500	0	1	0.605	74	82	82
145	1	369	0	2	1	0.2626	0.0500	1	1	0.749	6	82	0
145	1	370	1	2	3	0.2626	0.0500	1	1	0.882	50	0	82
145	1	371	1	1	1	0.2626	0.0500	0	1	0.606	74	82	82
145	1	372	0	2	2	0.2626	0.0500	1	1	0.737	6	82	0
145	1	373	0	1	3	0.2626	0.0500	1	1	0.556	8	0	82
145	1	374	0	2	3	0.2626	0.0500	1	1	0.631	7	82	0
145	1	375	1	2	3	0.2626	0.0500	1	1	0.663	69	0	82
145	1	376	9	2	3	0.2626	0.0500	0	0	0.655	0	0	0
145	1	377	1	1	3	0.2626	0.0500	1	1	0.630	72	82	0
145	1	378	1	2	2	0.2626	0.0500	1	1	0.693	66	0	82
145	1	379	0	2	2	0.2626	0.0500	0	0	0.676	0	0	0
145	1	380	1	2	2	0.2626	0.0500	0	0	0.699	0	82	82
145	1	381	1	1	3	0.2626	0.0500	0	1	0.790	56	82	82
145	1	382	9	1	3	0.2626	0.0500	0	1	0.630	0	82	82
145	1	383	0	2	2	0.2626	0.0500	0	0	0.704	0	0	0
145	1	384	0	1	1	0.2626	0.0500	1	1	0.636	7	0	82
145	1	385	0	1	3	0.2626	0.0500	0	1	0.643	7	0	0
145	1	386	9	2	1	0.2626	0.0500	1	0	0.858	0	82	0
145	1	387	1	2	1	0.2626	0.0500	1	1	0.698	65	0	82
145	1	388	0	2	2	0.2626	0.0500	0	1	0.695	7	0	0
145	1	389	0	2	3	0.2626	0.0500	0	1	0.619	7	0	0
145	1	390	1	2	3	0.2626	0.0500	1	0	0.645	0	0	82
145	1	391	9	1	1	0.2626	0.0500	1	1	0.699	0	0	82
145	1	392	1	1	1	0.2626	0.0500	1	1	0.881	50	82	0
145	1	393	1	1	3	0.2626	0.0500	1	1	0.593	76	82	0
145	1	394	1	2	3	0.2626	0.0500	1	1	0.716	63	0	82
145	1	395	9	1	3	0.2626	0.0500	1	1	0.611	0	82	0
145	1	396	1	2	3	0.2626	0.0500	1	0	0.715	0	0	82
145	1	397	1	2	1	0.2626	0.0500	1	1	0.456	89	0	82
145	1	398	1	1	2	0.2626	0.0500	0	1	1.624	50	82	82
145	1	399	1	2	2	0.2626	0.0500	1	1	0.679	67	0	82
145	1	400	1	2	2	0.2626	0.0500	1	1	0.671	68	0	82
145	1	401	1	2	2	0.2626	0.0500	1	1	0.600	75	0	82
145	1	402	0	2	3	0.2626	0.0500	1	1	0.633	7	82	0
145	1	403	0	2	2	0.2626	0.0500	0	1	0.738	6	0	0
145	1	404	9	1	3	0.2626	0.0500	1	1	0.672	0	0	82
145	1	405	1	2	3	0.2626	0.0500	0	0	0.701	0	82	82
145	1	406	0	2	2	0.2626	0.0500	1	0	0.603	0	82	0
145	1	407	9	2	3	0.2626	0.0500	0	1	0.740	0	0	0
145	1	408	0	2	2	0.2626	0.0500	1	1	0.626	7	82	0
145	1	409	9	2	2	0.2626	0.0500	1	1	0.697	0	0	82
145	1	410	0	2	2	0.2626	0.0500	1	1	0.847	5	82	0
145	1	411	0	2	2	0.2626	0.0500	0	1	0.638	7	0	0
145	1	412	0	2	3	0.2626	0.0500	0	1	0.567	8	0	0
145	1	413	1	2	3	0.2626	0.0500	0	1	0.808	54	82	82
145	1	414	1	1	1	0.2626	0.0500	0	1	0.672	68	82	82
145	1	415	1	1	1	0.2626	0.0500	0	1	0.576	77	82	82
145	1	416	0	2	2	0.2626	0.0500	0	0	0.620	0	0	0
145	1	417	0	1	2	0.2626	0.0500	1	1	0.885	5	0	82
145	1	418	0	1	1	0.2626	0.0500	1	1	0.613	7	0	82
145	1	419	0	1	1	0.2626	0.0500	0	1	0.550	8	0	0
145	1	420	0	1	3	0.2626	0.0500	1	1	0.905	5	0	82
145	1	421	1	2	3	0.2626	0.0500	1	1	0.644	71	0	82
145	1	422	1	1	3	0.2626	0.0500	1	1	0.732	62	82	0
145	1	423	9	1	1	0.2626	0.0500	1	1	0.520	0	0	82
145	1	424	1	1	3	0.2626	0.0500	0	1	0.693	66	82	82
145	1	425	1	1	3	0.2626	0.0500	1	0	1.107	0	82	0
145	1	426	9	2	2	0.2626	0.0500	1	0	0.615	0	82	0
145	1	427	1	2	3	0.2626	0.0500	0	1	0.641	71	82	82
145	1	428	1	2	2	0.2626	0.0500	0	1	0.703	65	82	82
145	1	429	9	2	3	0.2626	0.0500	1	0	0.518	0	0	82
145	1	430	0	2	2	0.2626	0.0500	1	0	0.652	0	82	0
145	1	431	1	2	3	0.2626	0.0500	1	1	0.755	60	0	82
145	1	432	0	2	2	0.2626	0.0500	0	0	0.751	0	0	0
145	1	433	9	2	3	0.2626	0.0500	1	1	0.707	0	0	82
145	1	434	0	1	1	0.2626	0.0500	1	1	0.626	7	0	82
145	1	435	0	2	3	0.2626	0.0500	0	0	0.793	0	0	0
145	1	436	9	2	2	0.2626	0.0500	0	1	0.602	0	82	82
145	1	437	1	1	1	0.2626	0.0500	1	1	0.501	85	82	0
145	1	438	0	2	2	0.2626	0.0500	1	1	0.667	7	82	0
145	1	439	1	1	1	0.2626	0.0500	0	1	0.658	69	82	82
145	1	440	9	1	1	0.2626	0.0500	0	1	0.705	0	0	0
145	1	441	0	1	3	0.2626	0.0500	0	1	0.553	8	0	0
145	1	442	0	2	2	0.2626	0.0500	1	1	0.605	7	82	0
145	1	443	1	1	3	0.2626	0.0500	0	1	0.584	77	82	82
145	1	444	1	1	2	0.2626	0.0500	1	1	0.833	52	82	0
145	1	445	1	2	2	0.2626	0.0500	0	1	0.632	72	82	82
145	1	446	9	2	3	0.2626	0.0500	1	0	0.776	0	82	0
145	1	447	9	2	3	0.2626	0.0500	0	1	0.873	0	0	0
145	1	448	0	2	2	0.2626	0.0500	0	1	0.617	7	0	0
145	1	449	0	1	1	0.2626	0.0500	1	1	0.594	8	0	82
145	1	450	9	2	1	0.2626	0.0500	0	0	0.684	0	82	82
145	1	451	0	2	3	0.2626	0.0500	1	1	0.808	5	82	0
145	1	452	0	1	3	0.2626	0.0500	1	1	0.624	7	0	82
145	1	453	1	1	1	0.2626	0.0500	0	1	0.591	76	82	82
145	1	454	0	1	3	0.2626	0.0500	0	1	0.562	8	0	0
145	1	455	0	1	3	0.2626	0.0500	1	1	0.772	6	0	82
145	1	456	9	1	1	0.2626	0.0500	0	1	0.533	0	82	82
145	1	457	0	2	2	0.2626	0.0500	1	1	0.792	6	82	0
145	1	458	0	1	3	0.2626	0.0500	1	1	0.842	5	0	82
145	1	459	0	1	1	0.2626	0.0500	1	1	0.764	6	0	82
145	1	460	1	2	3	0.2626	0.0500	0	1	0.832	52	82	82
145	1	461	1	1	1	0.2626	0.0500	1	0	0.899	0	82	0
145	1	462	0	1	3	0.2626	0.0500	1	1	0.529	8	0	82
145	1	463	1	2	2	0.2626	0.0500	0	1	0.563	79	82	82
145	1	464	1	1	2	0.2626	0.0500	1	0	0.728	0	82	0
145	1	465	1	2	3	0.2626	0.0500	1	0	0.794	0	0	82
145	1	466	0	1	1	0.2626	0.0500	0	1	0.706	6	0	0
145	1	467	0	1	3	0.2626	0.0500	0	1	0.848	5	0	0
145	1	468	1	2	2	0.2626	0.0500	0	1	0.663	69	82	82
145	1	469	1	2	3	0.2626	0.0500	0	1	0.614	74	82	82
145	1	470	9	1	1	0.2626	0.0500	1	1	0.727	0	82	0
145	1	471	1	1	1	0.2626	0.0500	1	1	0.893	50	82	0
145	1	472	1	1	3	0.2626	0.0500	0	1	0.675	68	82	82
145	1	473	1	2	2	0.2626	0.0500	1	0	0.610	0	0	82
145	1	474	0	2	3	0.2626	0.0500	1	0	0.618	0	82	0
145	1	475	0	1	3	0.2626	0.0500	0	1	0.796	6	0	0
145	1	476	1	1	1	0.2626	0.0500	1	1	0.598	75	82	0
145	1	477	0	2	2	0.2626	0.0500	1	1	0.647	7	82	0
145	1	478	0	1	3	0.2626	0.0500	0	1	0.614	7	0	0
145	1	479	0	1	1	0.2626	0.0500	0	1	0.568	8	0	0
145	1	480	1	2	2	0.2626	0.0500	0	0	0.698	0	82	82
145	1	481	0	1	1	0.2626	0.0500	0	1	0.533	8	0	0
145	1	482	9	1	2	0.2626	0.0500	0	1	0.512	0	82	82
145	1	483	1	2	3	0.2626	0.0500	1	1	0.651	70	0	82
145	1	484	1	2	2	0.2626	0.0500	1	1	0.761	59	0	82
145	1	485	1	1	1	0.2626	0.0500	0	1	0.619	73	82	82
145	1	486	9	2	3	0.2626	0.0500	1	1	0.723	0	0	82
145	1	487	1	2	1	0.2626	0.0500	0	0	0.776	0	82	82
145	1	488	1	1	1	0.2626	0.0500	1	1	0.418	93	82	0
145	1	489	1	1	1	0.2626	0.0500	0	1	0.498	85	82	82
145	1	490	9	2	3	0.2626	0.0500	1	1	0.743	0	82	0
145	1	491	0	1	1	0.2626	0.0500	0	1	0.732	6	0	0
145	1	492	1	1	1	0.2626	0.0500	1	1	0.599	75	82	0
145	1	493	1	2	3	0.2626	0.0500	1	0	0.809	0	0	82
145	1	494	1	1	3	0.2626	0.0500	0	1	0.530	82	82	82
145	1	495	1	1	1	0.2626	0.0500	1	1	0.557	79	82	0
145	1	496	9	2	2	0.2626	0.0500	1	0	0.937	0	82	0
145	1	497	1	1	1	0.2626	0.0500	1	1	0.469	88	82	0
145	1	498	1	1	1	0.2626	0.0500	1	1	0.548	80	82	0
145	1	499	0	2	2	0.2626	0.0500	1	0	0.646	0	82	0
145	1	500	1	1	3	0.2626	0.0500	1	1	0.549	80	82	0
145	1	501	0	1	3	0.2626	0.0500	0	1	0.738	6	0	0
145	1	502	9	2	2	0.2626	0.0500	1	1	0.527	0	82	0
145	1	503	1	2	2	0.2626	0.0500	0	0	0.843	0	82	82
145	1	504	0	1	2	0.2626	0.0500	1	0	0.666	0	0	82
145	1	505	0	2	2	0.2626	0.0500	0	0	0.768	0	0	0
145	1	506	0	2	3	0.2626	0.0500	0	1	0.667	7	0	0
145	1	507	0	1	3	0.2626	0.0500	0	1	0.587	8	0	0
145	1	508	0	1	1	0.2626	0.0500	0	0	0.503	0	0	0
145	1	509	1	2	3	0.2626	0.0500	1	1	0.867	50	0	82
145	1	510	0	1	3	0.2626	0.0500	0	1	0.625	7	0	0
145	1	511	0	1	3	0.2626	0.0500	1	1	0.944	5	0	82
145	1	512	0	1	3	0.2626	0.0500	0	0	0.875	0	0	0
145	1	513	0	2	3	0.2626	0.0500	0	1	0.883	5	0	0
145	1	514	0	2	3	0.2626	0.0500	0	1	0.559	8	0	0
145	1	515	9	1	3	0.2626	0.0500	0	1	0.787	0	82	82
145	1	516	0	1	2	0.2626	0.0500	1	0	0.599	0	0	82
145	1	517	9	2	1	0.2626	0.0500	0	0	0.504	0	0	0
145	1	518	9	2	2	0.2626	0.0500	0	1	0.534	0	82	82
145	1	519	1	1	3	0.2626	0.0500	0	1	0.580	77	82	82
145	1	520	1	2	3	0.2626	0.0500	1	0	0.748	0	0	82
145	1	521	9	1	1	0.2626	0.0500	0	1	0.723	0	0	0
145	1	522	0	1	1	0.2626	0.0500	0	1	0.793	6	0	0
145	1	523	9	2	3	0.2626	0.0500	0	1	0.667	0	82	82
145	1	524	0	2	3	0.2626	0.0500	1	1	0.688	7	82	0
145	1	525	9	2	3	0.2626	0.0500	0	0	0.960	0	82	82
145	1	526	0	2	3	0.2626	0.0500	1	0	0.692	0	82	0
145	1	527	1	2	1	0.2626	0.0500	1	1	0.578	77	0	82
145	1	528	9	1	2	0.2626	0.0500	1	0	2.422	0	82	0
145	1	529	1	2	2	0.2626	0.0500	0	0	0.686	0	82	82
145	1	530	1	2	3	0.2626	0.0500	1	1	0.661	69	0	82
145	1	531	9	1	3	0.2626	0.0500	0	1	0.770	0	82	82
145	1	532	0	2	3	0.2626	0.0500	0	0	0.645	0	0	0
145	1	533	1	1	3	0.2626	0.0500	0	1	0.678	67	82	82
145	1	534	0	2	3	0.2626	0.0500	0	1	0.653	7	0	0
145	1	535	1	2	3	0.2626	0.0500	0	1	0.675	68	82	82
145	1	536	9	1	1	0.2626	0.0500	0	0	0.626	0	82	82
145	1	537	1	1	1	0.2626	0.0500	1	1	0.601	75	82	0
145	1	538	1	2	2	0.2626	0.0500	0	1	0.665	68	82	82
145	1	539	0	2	3	0.2626	0.0500	1	0	0.743	0	82	0
145	1	540	1	2	3	0.2626	0.0500	0	1	0.640	71	82	82
145	1	541	1	2	3	0.2626	0.0500	1	0	1.000	0	0	82
145	1	542	1	1	3	0.2626	0.0500	0	1	0.625	72	82	82
145	1	543	1	1	1	0.2626	0.0500	1	1	0.882	50	82	0
145	1	544	0	2	3	0.2626	0.0500	0	0	0.906	0	0	0
145	1	545	0	1	1	0.2626	0.0500	1	1	0.589	8	0	82
145	1	546	1	1	3	0.2626	0.0500	0	1	0.768	58	82	82
145	1	547	1	2	2	0.2626	0.0500	0	1	0.785	57	82	82
145	1	548	1	2	3	0.2626	0.0500	0	1	0.629	72	82	82
145	1	549	0	1	3	0.2626	0.0500	1	1	0.731	6	0	82
145	1	550	1	1	3	0.2626	0.0500	0	1	0.941	50	82	82
145	1	551	1	2	1	0.2626	0.0500	0	0	1.329	0	82	82
145	1	552	0	2	3	0.2626	0.0500	1	1	0.708	6	82	0
145	1	553	1	1	3	0.2626	0.0500	1	1	0.631	72	82	0
145	1	554	1	2	2	0.2626	0.0500	0	0	0.686	0	82	82
145	1	555	0	1	1	0.2626	0.0500	1	1	0.518	8	0	82
145	1	556	0	2	3	0.2626	0.0500	1	0	0.805	0	82	0
145	1	557	0	2	1	0.2626	0.0500	1	1	0.591	8	82	0
145	1	558	9	1	1	0.2626	0.0500	1	1	0.472	0	82	0
145	1	559	9	1	2	0.2626	0.0500	0	1	0.648	0	0	0
145	1	560	0	1	1	0.2626	0.0500	1	1	0.431	9	0	82
145	1	561	0	1	1	0.2626	0.0500	0	1	0.709	6	0	0
145	1	562	1	1	1	0.2626	0.0500	0	1	0.497	85	82	82
145	1	563	9	1	1	0.2626	0.0500	0	1	0.543	0	0	0
145	1	564	9	2	2	0.2626	0.0500	0	1	0.803	0	0	0
145	1	565	0	1	3	0.2626	0.0500	0	1	0.588	8	0	0
145	1	566	0	1	3	0.2626	0.0500	1	1	0.654	7	0	82
145	1	567	1	1	3	0.2626	0.0500	1	1	0.596	75	82	0
145	1	568	9	1	3	0.2626	0.0500	0	0	0.773	0	0	0
145	1	569	9	1	3	0.2626	0.0500	1	1	0.912	0	0	82
145	1	570	1	2	2	0.2626	0.0500	1	0	0.589	0	0	82
145	1	571	0	1	3	0.2626	0.0500	0	1	0.864	5	0	0
145	1	572	0	2	1	0.2626	0.0500	1	1	0.871	5	82	0
145	1	573	0	2	3	0.2626	0.0500	1	0	0.581	0	82	0
145	1	574	1	1	3	0.2626	0.0500	1	1	0.567	78	82	0
145	1	575	0	2	3	0.2626	0.0500	1	1	0.690	7	82	0
145	1	576	0	1	3	0.2626	0.0500	1	1	0.648	7	0	82
145	1	577	1	2	2	0.2626	0.0500	0	1	0.705	65	82	82
145	1	578	1	2	2	0.2626	0.0500	0	1	0.614	74	82	82
145	1	579	0	1	2	0.2626	0.0500	0	1	0.606	7	0	0
145	1	580	0	1	2	0.2626	0.0500	0	1	0.553	8	0	0
145	1	581	9	1	1	0.2626	0.0500	1	1	0.587	0	82	0
145	1	582	9	2	2	0.2626	0.0500	0	1	0.494	0	0	0
145	1	583	1	1	1	0.2626	0.0500	0	1	0.940	50	82	82
145	1	584	9	2	2	0.2626	0.0500	0	1	0.631	0	0	0
145	1	585	1	1	3	0.2626	0.0500	1	1	0.735	61	82	0
145	1	586	1	2	3	0.2626	0.0500	0	1	0.909	50	82	82
145	1	587	9	1	3	0.2626	0.0500	1	1	0.923	0	82	0
145	1	588	1	2	3	0.2626	0.0500	0	1	0.600	75	82	82
145	1	589	9	1	2	0.2626	0.0500	1	0	2.064	0	0	82
145	1	590	9	1	1	0.2626	0.0500	1	1	0.583	0	82	0
145	1	591	9	2	2	0.2626	0.0500	0	1	0.648	0	82	82
145	1	592	0	2	3	0.2626	0.0500	1	0	0.671	0	82	0
145	1	593	0	1	1	0.2626	0.0500	0	1	0.591	8	0	0
145	1	594	0	2	1	0.2626	0.0500	0	1	0.747	6	0	0
145	1	595	0	2	1	0.2626	0.0500	0	1	0.572	8	0	0
145	1	596	9	1	1	0.2626	0.0500	0	1	0.696	0	82	82
145	1	597	9	1	3	0.2626	0.0500	1	1	0.767	0	82	0
145	1	598	1	2	3	0.2626	0.0500	1	1	0.722	63	0	82
145	1	599	0	1	2	0.2626	0.0500	0	1	0.695	7	0	0
145	1	600	9	2	3	0.2626	0.0500	1	1	0.789	0	82	0
145	1	601	1	1	3	0.2626	0.0500	1	1	1.007	50	82	0
145	1	602	0	1	3	0.2626	0.0500	1	1	0.487	9	0	82
145	1	603	0	1	1	0.2626	0.0500	1	0	0.551	0	0	82
145	1	604	1	2	3	0.2626	0.0500	1	0	0.740	0	0	82
145	1	605	9	2	2	0.2626	0.0500	0	1	0.543	0	82	82
145	1	606	1	1	3	0.2626	0.0500	0	1	0.556	79	82	82
145	1	607	0	2	2	0.2626	0.0500	0	1	0.999	5	0	0
145	1	608	0	2	3	0.2626	0.0500	0	1	0.632	7	0	0
145	1	609	0	2	2	0.2626	0.0500	1	1	1.184	5	82	0
145	1	610	0	2	2	0.2626	0.0500	1	0	0.442	0	82	0
145	1	611	1	1	3	0.2626	0.0500	1	0	0.659	0	82	0
145	1	612	1	2	2	0.2626	0.0500	0	0	1.666	0	82	82
145	1	613	0	1	3	0.2626	0.0500	0	1	0.703	6	0	0
145	1	614	1	1	3	0.2626	0.0500	0	1	0.125	100	82	82
145	1	615	1	1	3	0.2626	0.0500	1	0	0.309	0	82	0
145	1	616	1	2	1	0.2626	0.0500	1	1	0.008	100	0	82
145	1	617	9	1	1	0.2626	0.0500	0	1	0.499	0	82	82
145	1	618	0	1	3	0.2626	0.0500	1	1	0.486	9	0	82
145	1	619	0	1	1	0.2626	0.0500	1	1	0.444	9	0	82
145	1	620	9	1	1	0.2626	0.0500	1	1	0.316	0	0	82
145	1	621	1	2	3	0.2626	0.0500	0	1	0.823	53	82	82
145	1	622	0	2	2	0.2626	0.0500	0	1	0.301	10	0	0
145	1	623	1	2	2	0.2626	0.0500	1	0	0.488	0	0	82
145	1	624	0	2	3	0.2626	0.0500	1	0	0.688	0	82	0
145	1	625	0	2	3	0.2626	0.0500	1	1	0.438	9	82	0
145	1	626	1	2	2	0.2626	0.0500	1	0	0.471	0	0	82
145	1	627	9	1	3	0.2626	0.0500	0	0	0.437	0	82	82
145	1	628	0	2	2	0.2626	0.0500	0	1	-0.068	10	0	0
145	1	629	1	1	1	0.2626	0.0500	1	1	0.655	69	82	0
145	1	630	1	1	3	0.2626	0.0500	1	1	0.512	84	82	0
145	1	631	1	2	3	0.2626	0.0500	0	0	0.675	0	82	82
145	1	632	1	2	3	0.2626	0.0500	0	1	0.667	68	82	82
145	1	633	1	2	2	0.2626	0.0500	1	1	0.610	74	0	82
145	1	634	9	2	2	0.2626	0.0500	1	1	0.507	0	82	0
145	1	635	1	1	3	0.2626	0.0500	0	1	0.465	89	82	82
145	1	636	0	1	2	0.2626	0.0500	0	1	0.623	7	0	0
145	1	637	1	1	2	0.2626	0.0500	0	1	0.545	81	82	82
145	1	638	0	1	3	0.2626	0.0500	0	1	0.460	9	0	0
145	1	639	9	1	3	0.2626	0.0500	0	1	0.452	0	0	0
145	1	640	9	2	1	0.2626	0.0500	1	1	0.683	0	0	82
145	1	641	0	1	1	0.2626	0.0500	1	1	0.805	5	0	82
145	1	642	0	1	2	0.2626	0.0500	1	1	0.775	6	0	82
145	1	643	9	1	1	0.2626	0.0500	0	1	0.591	0	0	0
145	1	644	0	1	1	0.2626	0.0500	0	0	0.479	0	0	0
145	1	645	0	2	3	0.2626	0.0500	0	1	0.636	7	0	0
145	1	646	1	2	3	0.2626	0.0500	0	1	0.661	69	82	82
145	1	647	1	1	1	0.2626	0.0500	0	1	0.541	81	82	82
145	1	648	0	1	3	0.2626	0.0500	1	1	0.736	6	0	82
145	1	649	0	1	1	0.2626	0.0500	1	1	0.563	8	0	82
145	1	650	0	1	1	0.2626	0.0500	1	1	0.760	6	0	82
145	1	651	0	1	1	0.2626	0.0500	1	1	0.429	9	0	82
145	1	652	9	2	3	0.2626	0.0500	0	1	0.869	0	82	82
145	1	653	1	1	2	0.2626	0.0500	1	1	0.547	80	82	0
145	1	654	1	1	2	0.2626	0.0500	0	1	0.640	71	82	82
145	1	655	1	1	1	0.2626	0.0500	0	1	0.545	81	82	82
145	1	656	0	2	2	0.2626	0.0500	0	1	0.406	9	0	0
145	1	657	0	1	3	0.2626	0.0500	1	1	0.662	7	0	82
145	1	658	1	2	3	0.2626	0.0500	0	1	0.611	74	82	82
145	1	659	1	2	2	0.2626	0.0500	1	0	0.436	0	0	82
145	1	660	1	1	1	0.2626	0.0500	1	1	0.445	90	82	0
145	1	661	1	2	2	0.2626	0.0500	1	0	0.469	0	0	82
145	1	662	9	2	3	0.2626	0.0500	0	0	0.274	0	0	0
145	1	663	1	1	3	0.2626	0.0500	0	1	0.495	86	82	82
145	1	664	9	1	3	0.2626	0.0500	0	1	0.747	0	0	0
145	1	665	1	2	2	0.2626	0.0500	1	0	0.285	0	0	82
145	1	666	0	1	1	0.2626	0.0500	0	1	0.633	7	0	0
145	1	667	0	2	2	0.2626	0.0500	1	0	0.623	0	82	0
145	1	668	1	2	2	0.2626	0.0500	0	1	0.777	57	82	82
145	1	669	0	2	3	0.2626	0.0500	0	1	0.604	7	0	0
145	1	670	0	2	3	0.2626	0.0500	0	1	0.548	8	0	0
145	1	671	1	2	2	0.2626	0.0500	1	1	0.544	81	0	82
145	1	672	9	1	3	0.2626	0.0500	0	1	0.606	0	0	0
145	1	673	1	1	3	0.2626	0.0500	0	1	0.600	75	82	82
145	1	674	1	1	3	0.2626	0.0500	1	1	0.631	72	82	0
145	1	675	0	1	1	0.2626	0.0500	0	1	0.502	8	0	0
145	1	676	0	1	1	0.2626	0.0500	1	1	0.524	8	0	82
145	1	677	1	2	3	0.2626	0.0500	0	1	0.362	99	82	82
145	1	678	0	1	3	0.2626	0.0500	0	0	0.358	0	0	0
145	1	679	0	2	1	0.2626	0.0500	0	1	0.560	8	0	0
145	1	680	0	2	2	0.2626	0.0500	1	0	0.473	0	82	0
145	1	681	0	2	2	0.2626	0.0500	0	1	0.528	8	0	0
145	1	682	0	2	3	0.2626	0.0500	0	1	0.453	9	0	0
145	1	683	0	2	2	0.2626	0.0500	0	1	0.450	9	0	0
145	1	684	1	2	2	0.2626	0.0500	1	0	0.616	0	0	82
145	1	685	0	1	1	0.2626	0.0500	0	0	0.304	0	0	0
145	1	686	9	2	2	0.2626	0.0500	1	0	0.492	0	0	82
145	1	687	0	2	3	0.2626	0.0500	0	1	0.450	9	0	0
145	1	688	1	2	1	0.2626	0.0500	0	1	0.601	75	82	82
145	1	689	0	1	1	0.2626	0.0500	1	1	0.529	8	0	82
145	1	690	1	1	1	0.2626	0.0500	0	1	0.566	78	82	82
145	1	691	1	1	2	0.2626	0.0500	1	0	0.632	0	82	0
145	1	692	9	2	3	0.2626	0.0500	1	0	0.479	0	0	82
145	1	693	0	2	3	0.2626	0.0500	1	0	0.478	0	82	0
145	1	694	1	1	1	0.2626	0.0500	0	0	0.790	0	82	82
145	1	695	1	1	1	0.2626	0.0500	0	1	0.489	86	82	82
145	1	696	9	2	2	0.2626	0.0500	0	1	0.503	0	0	0
145	1	697	1	1	2	0.2626	0.0500	0	0	0.494	0	82	82
145	1	698	0	1	3	0.2626	0.0500	1	0	0.355	0	0	82
145	1	699	1	1	3	0.2626	0.0500	1	1	0.800	55	82	0
145	1	700	1	1	1	0.2626	0.0500	0	1	0.611	74	82	82
145	1	701	1	2	1	0.2626	0.0500	0	0	0.591	0	82	82
145	1	702	1	1	1	0.2626	0.0500	0	1	0.577	77	82	82
145	1	703	1	1	3	0.2626	0.0500	1	1	0.595	76	82	0
145	1	704	9	1	3	0.2626	0.0500	1	1	0.590	0	0	82
145	1	705	0	2	3	0.2626	0.0500	1	0	0.754	0	82	0
145	1	706	0	2	2	0.2626	0.0500	0	1	0.534	8	0	0
145	1	707	9	2	3	0.2626	0.0500	1	1	0.634	0	82	0
145	1	708	1	2	2	0.2626	0.0500	0	1	0.609	74	82	82
145	1	709	1	1	1	0.2626	0.0500	1	1	0.731	62	82	0
145	1	710	1	1	1	0.2626	0.0500	1	1	0.510	84	82	0
145	1	711	0	2	2	0.2626	0.0500	1	0	0.669	0	82	0
145	1	712	0	1	1	0.2626	0.0500	0	1	0.675	7	0	0
145	1	713	0	2	1	0.2626	0.0500	1	0	0.624	0	82	0
145	1	714	0	2	3	0.2626	0.0500	0	1	0.743	6	0	0
145	1	715	9	1	3	0.2626	0.0500	1	1	0.708	0	82	0
145	1	716	0	1	1	0.2626	0.0500	0	1	0.595	8	0	0
145	1	717	0	1	1	0.2626	0.0500	0	1	0.548	8	0	0
145	1	718	9	2	2	0.2626	0.0500	1	0	0.645	0	0	82
145	1	719	0	2	1	0.2626	0.0500	0	0	0.606	0	0	0
145	1	720	9	2	2	0.2626	0.0500	1	0	0.641	0	0	82
