sub	sess	t	rew	loc	cue	co1	co2	or	resp	rt	rew_tot	left_col	right_col
47	1	1	0	2	1	0.2047	0.0712	1	0	0.810	0	82	0
47	1	2	0	2	2	0.2047	0.0712	1	1	0.682	7	82	0
47	1	3	1	2	2	0.2047	0.0712	0	1	0.555	79	82	82
47	1	4	1	1	3	0.2047	0.0712	1	1	0.612	74	82	0
47	1	5	0	2	2	0.2047	0.0712	1	1	0.671	7	82	0
47	1	6	0	1	3	0.2047	0.0712	0	1	0.559	8	0	0
47	1	7	1	2	2	0.2047	0.0712	1	1	0.527	82	0	82
47	1	8	0	2	3	0.2047	0.0712	1	1	0.507	8	82	0
47	1	9	1	1	3	0.2047	0.0712	0	1	0.429	92	82	82
47	1	10	1	1	1	0.2047	0.0712	1	1	0.609	74	82	0
47	1	11	9	2	1	0.2047	0.0712	1	0	0.820	0	82	0
47	1	12	1	2	2	0.2047	0.0712	1	1	0.490	86	0	82
47	1	13	0	1	1	0.2047	0.0712	1	1	0.720	6	0	82
47	1	14	1	2	2	0.2047	0.0712	1	1	0.581	77	0	82
47	1	15	9	2	2	0.2047	0.0712	0	1	0.645	0	0	0
47	1	16	0	1	1	0.2047	0.0712	0	1	0.510	8	0	0
47	1	17	9	1	3	0.2047	0.0712	0	1	0.504	0	82	82
47	1	18	0	2	1	0.2047	0.0712	1	0	0.997	0	82	0
47	1	19	9	1	3	0.2047	0.0712	1	1	0.877	0	0	82
47	1	20	9	2	3	0.2047	0.0712	1	1	0.692	0	0	82
47	1	21	0	1	3	0.2047	0.0712	0	1	0.525	8	0	0
47	1	22	0	2	3	0.2047	0.0712	0	1	0.683	7	0	0
47	1	23	1	1	1	0.2047	0.0712	1	1	0.578	77	82	0
47	1	24	1	1	3	0.2047	0.0712	1	1	0.586	76	82	0
47	1	25	1	2	3	0.2047	0.0712	1	1	0.630	72	0	82
47	1	26	0	1	2	0.2047	0.0712	1	1	0.713	6	0	82
47	1	27	1	1	1	0.2047	0.0712	1	1	0.619	73	82	0
47	1	28	0	2	2	0.2047	0.0712	1	1	0.504	8	82	0
47	1	29	0	2	2	0.2047	0.0712	1	1	0.453	9	82	0
47	1	30	1	1	3	0.2047	0.0712	1	1	0.582	77	82	0
47	1	31	9	2	2	0.2047	0.0712	0	0	0.560	0	0	0
47	1	32	9	2	2	0.2047	0.0712	1	1	0.498	0	82	0
47	1	33	0	1	1	0.2047	0.0712	1	1	0.511	8	0	82
47	1	34	1	2	3	0.2047	0.0712	1	1	0.511	84	0	82
47	1	35	0	1	2	0.2047	0.0712	0	1	0.660	7	0	0
47	1	36	0	2	2	0.2047	0.0712	0	1	0.669	7	0	0
47	1	37	1	2	1	0.2047	0.0712	0	1	0.640	71	82	82
47	1	38	9	1	3	0.2047	0.0712	1	1	0.621	0	0	82
47	1	39	1	1	3	0.2047	0.0712	1	1	0.500	85	82	0
47	1	40	9	2	3	0.2047	0.0712	0	1	0.596	0	0	0
47	1	41	0	1	1	0.2047	0.0712	1	1	0.635	7	0	82
47	1	42	1	2	2	0.2047	0.0712	1	1	0.484	87	0	82
47	1	43	1	2	2	0.2047	0.0712	0	1	0.476	87	82	82
47	1	44	0	2	2	0.2047	0.0712	1	1	0.536	8	82	0
47	1	45	0	2	3	0.2047	0.0712	0	1	0.608	7	0	0
47	1	46	0	2	2	0.2047	0.0712	0	1	0.513	8	0	0
47	1	47	0	2	2	0.2047	0.0712	0	1	0.338	10	0	0
47	1	48	1	1	3	0.2047	0.0712	0	1	0.423	93	82	82
47	1	49	0	2	2	0.2047	0.0712	0	1	0.349	10	0	0
47	1	50	1	1	1	0.2047	0.0712	0	1	0.352	100	82	82
47	1	51	0	2	3	0.2047	0.0712	0	1	0.560	8	0	0
47	1	52	0	1	3	0.2047	0.0712	1	1	0.653	7	0	82
47	1	53	9	1	3	0.2047	0.0712	0	1	0.463	0	0	0
47	1	54	1	2	2	0.2047	0.0712	0	1	0.474	88	82	82
47	1	55	1	1	2	0.2047	0.0712	1	1	0.752	60	82	0
47	1	56	1	2	3	0.2047	0.0712	0	1	0.469	88	82	82
47	1	57	1	1	1	0.2047	0.0712	0	0	0.591	0	82	82
47	1	58	0	1	2	0.2047	0.0712	1	1	0.607	7	0	82
47	1	59	1	1	1	0.2047	0.0712	0	1	0.420	93	82	82
47	1	60	0	2	3	0.2047	0.0712	1	1	0.523	8	82	0
47	1	61	1	2	1	0.2047	0.0712	1	1	0.972	50	0	82
47	1	62	1	1	3	0.2047	0.0712	0	1	0.449	90	82	82
47	1	63	0	2	2	0.2047	0.0712	1	1	0.676	7	82	0
47	1	64	0	2	3	0.2047	0.0712	1	1	0.580	8	82	0
47	1	65	1	1	1	0.2047	0.0712	0	1	0.465	89	82	82
47	1	66	1	1	1	0.2047	0.0712	0	1	0.382	97	82	82
47	1	67	9	1	3	0.2047	0.0712	0	1	0.358	0	0	0
47	1	68	1	2	2	0.2047	0.0712	1	1	0.493	86	0	82
47	1	69	9	1	3	0.2047	0.0712	1	1	0.702	0	0	82
47	1	70	1	1	3	0.2047	0.0712	0	1	0.318	100	82	82
47	1	71	9	1	3	0.2047	0.0712	1	1	0.600	0	0	82
47	1	72	1	2	2	0.2047	0.0712	0	0	0.657	0	82	82
47	1	73	0	2	3	0.2047	0.0712	1	1	0.839	5	82	0
47	1	74	1	1	1	0.2047	0.0712	0	1	0.513	84	82	82
47	1	75	0	2	2	0.2047	0.0712	0	0	0.432	0	0	0
47	1	76	0	2	3	0.2047	0.0712	0	0	0.630	0	0	0
47	1	77	1	1	3	0.2047	0.0712	0	1	0.361	99	82	82
47	1	78	0	2	3	0.2047	0.0712	0	1	0.560	8	0	0
47	1	79	1	1	3	0.2047	0.0712	1	1	0.564	79	82	0
47	1	80	1	2	2	0.2047	0.0712	0	1	0.400	95	82	82
47	1	81	1	1	2	0.2047	0.0712	0	1	0.389	96	82	82
47	1	82	9	2	3	0.2047	0.0712	1	1	0.472	0	82	0
47	1	83	9	1	1	0.2047	0.0712	0	1	0.331	0	82	82
47	1	84	0	1	3	0.2047	0.0712	1	1	0.501	8	0	82
47	1	85	0	1	2	0.2047	0.0712	1	1	0.722	6	0	82
47	1	86	0	2	2	0.2047	0.0712	0	1	0.412	9	0	0
47	1	87	0	2	2	0.2047	0.0712	1	1	0.699	7	82	0
47	1	88	9	2	2	0.2047	0.0712	0	1	0.504	0	0	0
47	1	89	9	1	3	0.2047	0.0712	1	1	0.452	0	82	0
47	1	90	1	2	2	0.2047	0.0712	0	1	0.524	83	82	82
47	1	91	1	1	3	0.2047	0.0712	0	1	0.375	97	82	82
47	1	92	0	1	1	0.2047	0.0712	1	0	0.614	0	0	82
47	1	93	1	1	3	0.2047	0.0712	1	1	0.544	81	82	0
47	1	94	0	2	2	0.2047	0.0712	0	1	0.424	9	0	0
47	1	95	0	1	2	0.2047	0.0712	0	1	0.544	8	0	0
47	1	96	1	2	3	0.2047	0.0712	0	0	0.509	0	82	82
47	1	97	9	2	2	0.2047	0.0712	1	1	0.448	0	0	82
47	1	98	0	1	1	0.2047	0.0712	0	1	0.463	9	0	0
47	1	99	1	2	3	0.2047	0.0712	0	1	0.767	58	82	82
47	1	100	1	1	1	0.2047	0.0712	0	1	0.433	92	82	82
47	1	101	1	2	3	0.2047	0.0712	1	1	1.230	50	0	82
47	1	102	1	1	3	0.2047	0.0712	0	1	0.361	99	82	82
47	1	103	1	1	3	0.2047	0.0712	1	1	0.558	79	82	0
47	1	104	0	2	3	0.2047	0.0712	1	1	0.704	6	82	0
47	1	105	9	2	2	0.2047	0.0712	0	1	0.638	0	0	0
47	1	106	9	2	2	0.2047	0.0712	1	1	0.782	0	82	0
47	1	107	9	1	2	0.2047	0.0712	0	1	0.529	0	0	0
47	1	108	1	1	2	0.2047	0.0712	0	1	0.603	75	82	82
47	1	109	0	2	2	0.2047	0.0712	0	1	0.741	6	0	0
47	1	110	0	1	3	0.2047	0.0712	1	1	0.696	7	0	82
47	1	111	0	1	1	0.2047	0.0712	1	1	0.677	7	0	82
47	1	112	0	1	3	0.2047	0.0712	0	1	0.409	9	0	0
47	1	113	9	2	2	0.2047	0.0712	1	0	0.774	0	0	82
47	1	114	1	2	2	0.2047	0.0712	1	0	0.828	0	0	82
47	1	115	0	2	3	0.2047	0.0712	1	1	0.978	5	82	0
47	1	116	1	1	1	0.2047	0.0712	1	1	0.971	50	82	0
47	1	117	9	2	3	0.2047	0.0712	0	1	0.809	0	82	82
47	1	118	1	2	3	0.2047	0.0712	1	1	0.605	74	0	82
47	1	119	9	1	3	0.2047	0.0712	0	1	0.373	0	82	82
47	1	120	1	1	3	0.2047	0.0712	0	1	0.388	96	82	82
47	1	121	9	1	1	0.2047	0.0712	0	1	0.384	0	0	0
47	1	122	9	1	1	0.2047	0.0712	1	1	0.449	0	82	0
47	1	123	0	1	1	0.2047	0.0712	0	1	0.720	6	0	0
47	1	124	0	2	2	0.2047	0.0712	1	1	0.815	5	82	0
47	1	125	1	1	3	0.2047	0.0712	0	1	0.359	99	82	82
47	1	126	0	2	1	0.2047	0.0712	0	1	0.528	8	0	0
47	1	127	9	2	2	0.2047	0.0712	0	1	0.542	0	82	82
47	1	128	0	1	1	0.2047	0.0712	0	1	0.566	8	0	0
47	1	129	1	1	1	0.2047	0.0712	1	1	0.417	93	82	0
47	1	130	9	1	1	0.2047	0.0712	1	1	0.488	0	0	82
47	1	131	0	2	2	0.2047	0.0712	0	0	0.619	0	0	0
47	1	132	0	1	2	0.2047	0.0712	1	1	0.580	8	0	82
47	1	133	1	2	2	0.2047	0.0712	1	0	0.711	0	0	82
47	1	134	0	1	1	0.2047	0.0712	0	1	0.581	8	0	0
47	1	135	0	1	1	0.2047	0.0712	0	1	0.561	8	0	0
47	1	136	1	2	2	0.2047	0.0712	1	1	0.534	82	0	82
47	1	137	0	1	1	0.2047	0.0712	0	1	0.486	9	0	0
47	1	138	1	2	1	0.2047	0.0712	1	1	0.577	77	0	82
47	1	139	0	2	3	0.2047	0.0712	1	1	0.605	7	82	0
47	1	140	0	1	3	0.2047	0.0712	1	1	0.742	6	0	82
47	1	141	1	1	3	0.2047	0.0712	1	0	0.607	0	82	0
47	1	142	1	1	1	0.2047	0.0712	1	1	0.374	98	82	0
47	1	143	0	1	3	0.2047	0.0712	1	0	0.417	0	0	82
47	1	144	1	1	2	0.2047	0.0712	1	1	0.530	82	82	0
47	1	145	0	2	3	0.2047	0.0712	1	1	0.886	5	82	0
47	1	146	0	1	1	0.2047	0.0712	1	1	0.751	6	0	82
47	1	147	1	1	2	0.2047	0.0712	1	1	0.403	95	82	0
47	1	148	9	1	1	0.2047	0.0712	0	1	0.582	0	82	82
47	1	149	0	2	3	0.2047	0.0712	1	1	0.449	9	82	0
47	1	150	1	2	3	0.2047	0.0712	0	1	0.695	66	82	82
47	1	151	9	1	3	0.2047	0.0712	0	0	0.716	0	0	0
47	1	152	1	2	3	0.2047	0.0712	1	1	0.483	87	0	82
47	1	153	1	2	2	0.2047	0.0712	1	1	0.552	80	0	82
47	1	154	0	1	3	0.2047	0.0712	1	1	0.689	7	0	82
47	1	155	0	2	2	0.2047	0.0712	0	1	0.487	9	0	0
47	1	156	9	1	3	0.2047	0.0712	0	1	0.364	0	82	82
47	1	157	0	2	3	0.2047	0.0712	1	0	0.646	0	82	0
47	1	158	0	1	3	0.2047	0.0712	0	1	0.447	9	0	0
47	1	159	0	2	3	0.2047	0.0712	0	1	0.607	7	0	0
47	1	160	1	1	3	0.2047	0.0712	0	1	0.311	100	82	82
47	1	161	0	1	1	0.2047	0.0712	1	1	0.696	7	0	82
47	1	162	0	2	2	0.2047	0.0712	0	1	0.466	9	0	0
47	1	163	1	1	1	0.2047	0.0712	0	1	0.396	95	82	82
47	1	164	1	2	3	0.2047	0.0712	0	1	0.542	81	82	82
47	1	165	0	2	3	0.2047	0.0712	1	1	0.554	8	82	0
47	1	166	0	2	2	0.2047	0.0712	0	1	0.528	8	0	0
47	1	167	9	2	2	0.2047	0.0712	0	1	0.360	0	82	82
47	1	168	9	2	2	0.2047	0.0712	1	1	0.477	0	0	82
47	1	169	0	2	1	0.2047	0.0712	1	0	0.324	0	82	0
47	1	170	9	2	3	0.2047	0.0712	0	1	0.499	0	82	82
47	1	171	9	1	1	0.2047	0.0712	1	0	0.453	0	82	0
47	1	172	1	2	2	0.2047	0.0712	0	1	0.448	90	82	82
47	1	173	1	1	1	0.2047	0.0712	1	1	0.572	78	82	0
47	1	174	1	1	1	0.2047	0.0712	0	1	0.474	88	82	82
47	1	175	0	2	3	0.2047	0.0712	0	1	0.454	9	0	0
47	1	176	1	1	1	0.2047	0.0712	0	1	0.435	92	82	82
47	1	177	9	2	2	0.2047	0.0712	0	0	0.705	0	82	82
47	1	178	9	2	3	0.2047	0.0712	1	1	0.819	0	82	0
47	1	179	0	2	3	0.2047	0.0712	0	1	0.535	8	0	0
47	1	180	1	2	3	0.2047	0.0712	1	1	0.449	90	0	82
47	1	181	0	1	3	0.2047	0.0712	1	1	0.710	6	0	82
47	1	182	9	2	2	0.2047	0.0712	1	1	0.470	0	0	82
47	1	183	9	2	2	0.2047	0.0712	0	1	0.507	0	82	82
47	1	184	9	2	2	0.2047	0.0712	1	1	0.608	0	82	0
47	1	185	0	2	3	0.2047	0.0712	0	1	0.436	9	0	0
47	1	186	9	1	1	0.2047	0.0712	1	1	0.696	0	0	82
47	1	187	0	2	3	0.2047	0.0712	0	1	0.737	6	0	0
47	1	188	9	2	3	0.2047	0.0712	1	1	0.466	0	0	82
47	1	189	1	2	2	0.2047	0.0712	0	1	0.427	92	82	82
47	1	190	0	2	3	0.2047	0.0712	0	0	1.076	0	0	0
47	1	191	0	1	3	0.2047	0.0712	0	1	0.520	8	0	0
47	1	192	9	1	1	0.2047	0.0712	0	1	0.358	0	82	82
47	1	193	0	2	3	0.2047	0.0712	1	1	0.829	5	82	0
47	1	194	1	1	1	0.2047	0.0712	1	1	0.506	84	82	0
47	1	195	0	1	1	0.2047	0.0712	0	1	0.399	10	0	0
47	1	196	0	2	3	0.2047	0.0712	1	1	0.505	8	82	0
47	1	197	0	1	1	0.2047	0.0712	1	1	0.767	6	0	82
47	1	198	0	1	3	0.2047	0.0712	0	1	0.505	8	0	0
47	1	199	0	1	3	0.2047	0.0712	0	1	0.497	9	0	0
47	1	200	9	1	2	0.2047	0.0712	0	1	0.463	0	82	82
47	1	201	1	2	2	0.2047	0.0712	0	1	0.671	68	82	82
47	1	202	1	2	2	0.2047	0.0712	0	1	0.567	78	82	82
47	1	203	1	2	2	0.2047	0.0712	1	1	0.584	77	0	82
47	1	204	1	2	3	0.2047	0.0712	0	1	0.522	83	82	82
47	1	205	1	2	3	0.2047	0.0712	0	1	0.422	93	82	82
47	1	206	0	1	3	0.2047	0.0712	1	1	0.551	8	0	82
47	1	207	9	2	1	0.2047	0.0712	1	0	0.553	0	0	82
47	1	208	9	2	3	0.2047	0.0712	1	1	0.522	0	82	0
47	1	209	0	1	2	0.2047	0.0712	0	1	0.420	9	0	0
47	1	210	9	2	2	0.2047	0.0712	1	1	0.580	0	82	0
47	1	211	9	2	3	0.2047	0.0712	1	1	0.916	0	0	82
47	1	212	1	1	3	0.2047	0.0712	1	1	0.462	89	82	0
47	1	213	1	2	3	0.2047	0.0712	1	1	0.452	90	0	82
47	1	214	1	1	1	0.2047	0.0712	1	1	0.487	86	82	0
47	1	215	0	2	3	0.2047	0.0712	0	1	0.574	8	0	0
47	1	216	0	2	2	0.2047	0.0712	0	1	0.718	6	0	0
47	1	217	1	1	1	0.2047	0.0712	1	1	0.433	92	82	0
47	1	218	9	2	3	0.2047	0.0712	1	1	0.723	0	0	82
47	1	219	1	1	3	0.2047	0.0712	0	1	0.453	90	82	82
47	1	220	1	1	3	0.2047	0.0712	0	1	0.352	100	82	82
47	1	221	0	1	1	0.2047	0.0712	1	1	0.728	6	0	82
47	1	222	1	2	3	0.2047	0.0712	1	0	0.580	0	0	82
47	1	223	9	1	3	0.2047	0.0712	0	1	0.472	0	0	0
47	1	224	1	2	2	0.2047	0.0712	0	0	0.489	0	82	82
47	1	225	1	2	2	0.2047	0.0712	0	1	0.311	100	82	82
47	1	226	1	2	1	0.2047	0.0712	1	1	0.504	85	0	82
47	1	227	1	1	3	0.2047	0.0712	1	1	0.535	81	82	0
47	1	228	1	2	2	0.2047	0.0712	0	1	0.744	61	82	82
47	1	229	0	1	3	0.2047	0.0712	1	1	0.994	5	0	82
47	1	230	9	1	1	0.2047	0.0712	0	1	0.677	0	0	0
47	1	231	0	2	3	0.2047	0.0712	0	0	0.549	0	0	0
47	1	232	1	2	3	0.2047	0.0712	1	1	0.423	93	0	82
47	1	233	0	2	1	0.2047	0.0712	0	1	0.560	8	0	0
47	1	234	1	2	3	0.2047	0.0712	0	1	0.480	87	82	82
47	1	235	9	1	1	0.2047	0.0712	0	1	0.551	0	0	0
47	1	236	1	2	3	0.2047	0.0712	1	1	0.420	93	0	82
47	1	237	1	1	3	0.2047	0.0712	1	1	0.499	85	82	0
47	1	238	0	1	3	0.2047	0.0712	0	1	0.569	8	0	0
47	1	239	1	2	3	0.2047	0.0712	0	0	0.411	0	82	82
47	1	240	1	1	1	0.2047	0.0712	0	1	0.567	78	82	82
47	1	241	0	2	3	0.2047	0.0712	1	1	0.734	6	82	0
47	1	242	0	2	2	0.2047	0.0712	1	1	0.602	7	82	0
47	1	243	1	1	1	0.2047	0.0712	0	1	0.427	92	82	82
47	1	244	1	2	3	0.2047	0.0712	1	1	0.471	88	0	82
47	1	245	1	1	1	0.2047	0.0712	0	1	0.444	91	82	82
47	1	246	9	1	1	0.2047	0.0712	1	1	0.524	0	82	0
47	1	247	1	1	3	0.2047	0.0712	0	1	0.320	100	82	82
47	1	248	0	1	1	0.2047	0.0712	1	1	0.637	7	0	82
47	1	249	0	1	1	0.2047	0.0712	0	1	0.406	9	0	0
47	1	250	1	2	2	0.2047	0.0712	1	1	0.475	87	0	82
47	1	251	0	1	3	0.2047	0.0712	1	1	0.626	7	0	82
47	1	252	0	2	2	0.2047	0.0712	1	1	0.680	7	82	0
47	1	253	1	2	1	0.2047	0.0712	0	1	0.585	76	82	82
47	1	254	1	1	3	0.2047	0.0712	0	1	0.365	98	82	82
47	1	255	1	2	2	0.2047	0.0712	1	1	0.466	88	0	82
47	1	256	1	1	3	0.2047	0.0712	1	1	0.489	86	82	0
47	1	257	9	1	1	0.2047	0.0712	0	1	0.453	0	0	0
47	1	258	9	1	3	0.2047	0.0712	1	1	0.614	0	82	0
47	1	259	0	1	3	0.2047	0.0712	1	1	0.735	6	0	82
47	1	260	9	1	3	0.2047	0.0712	0	1	0.304	0	82	82
47	1	261	0	2	3	0.2047	0.0712	0	1	0.517	8	0	0
47	1	262	1	2	3	0.2047	0.0712	0	0	0.512	0	82	82
47	1	263	0	2	3	0.2047	0.0712	0	1	0.473	9	0	0
47	1	264	0	1	1	0.2047	0.0712	0	1	0.434	9	0	0
47	1	265	1	1	1	0.2047	0.0712	0	1	0.546	80	82	82
47	1	266	1	2	3	0.2047	0.0712	0	1	0.683	67	82	82
47	1	267	9	2	1	0.2047	0.0712	0	1	0.491	0	0	0
47	1	268	0	1	1	0.2047	0.0712	1	1	0.567	8	0	82
47	1	269	1	2	1	0.2047	0.0712	0	1	0.459	89	82	82
47	1	270	0	2	2	0.2047	0.0712	0	1	0.307	10	0	0
47	1	271	1	1	3	0.2047	0.0712	1	1	0.482	87	82	0
47	1	272	0	2	2	0.2047	0.0712	0	1	0.403	9	0	0
47	1	273	0	1	1	0.2047	0.0712	0	1	0.464	9	0	0
47	1	274	9	2	3	0.2047	0.0712	0	1	0.334	0	0	0
47	1	275	0	2	2	0.2047	0.0712	1	0	0.680	0	82	0
47	1	276	9	2	3	0.2047	0.0712	0	1	0.396	0	82	82
47	1	277	9	1	2	0.2047	0.0712	1	1	0.457	0	82	0
47	1	278	0	1	3	0.2047	0.0712	0	1	0.536	8	0	0
47	1	279	1	2	3	0.2047	0.0712	1	1	0.414	94	0	82
47	1	280	1	2	2	0.2047	0.0712	1	1	0.409	94	0	82
47	1	281	0	1	1	0.2047	0.0712	1	1	0.565	8	0	82
47	1	282	0	1	3	0.2047	0.0712	0	1	0.525	8	0	0
47	1	283	0	2	2	0.2047	0.0712	1	1	0.557	8	82	0
47	1	284	0	1	3	0.2047	0.0712	1	1	0.573	8	0	82
47	1	285	1	1	2	0.2047	0.0712	0	0	0.487	0	82	82
47	1	286	1	2	2	0.2047	0.0712	0	1	0.454	90	82	82
47	1	287	0	1	3	0.2047	0.0712	0	1	0.462	9	0	0
47	1	288	0	2	3	0.2047	0.0712	0	1	0.367	10	0	0
47	1	289	0	1	3	0.2047	0.0712	1	1	0.907	5	0	82
47	1	290	0	1	1	0.2047	0.0712	1	1	0.662	7	0	82
47	1	291	0	2	2	0.2047	0.0712	1	1	0.969	5	82	0
47	1	292	9	2	3	0.2047	0.0712	0	1	0.548	0	82	82
47	1	293	1	1	1	0.2047	0.0712	1	1	0.584	77	82	0
47	1	294	1	2	2	0.2047	0.0712	1	1	0.485	87	0	82
47	1	295	1	2	3	0.2047	0.0712	1	1	0.571	78	0	82
47	1	296	0	1	3	0.2047	0.0712	1	1	0.852	5	0	82
47	1	297	0	2	2	0.2047	0.0712	0	1	0.609	7	0	0
47	1	298	1	1	3	0.2047	0.0712	1	1	0.359	99	82	0
47	1	299	0	2	2	0.2047	0.0712	1	1	0.843	5	82	0
47	1	300	0	2	1	0.2047	0.0712	0	1	0.655	7	0	0
47	1	301	1	1	2	0.2047	0.0712	0	1	0.366	98	82	82
47	1	302	1	2	2	0.2047	0.0712	0	1	0.528	82	82	82
47	1	303	0	1	1	0.2047	0.0712	0	1	0.414	9	0	0
47	1	304	0	1	3	0.2047	0.0712	0	1	0.313	10	0	0
47	1	305	1	2	3	0.2047	0.0712	1	1	0.520	83	0	82
47	1	306	9	1	3	0.2047	0.0712	1	1	0.555	0	82	0
47	1	307	1	1	1	0.2047	0.0712	1	0	0.395	0	82	0
47	1	308	9	1	1	0.2047	0.0712	0	1	0.645	0	82	82
47	1	309	0	1	3	0.2047	0.0712	0	1	0.493	9	0	0
47	1	310	0	1	1	0.2047	0.0712	1	1	0.800	5	0	82
47	1	311	9	2	3	0.2047	0.0712	1	1	0.678	0	82	0
47	1	312	1	2	3	0.2047	0.0712	1	1	0.451	90	0	82
47	1	313	1	1	2	0.2047	0.0712	1	0	0.395	0	82	0
47	1	314	1	2	1	0.2047	0.0712	1	1	0.546	80	0	82
47	1	315	9	2	3	0.2047	0.0712	0	1	0.680	0	0	0
47	1	316	0	1	1	0.2047	0.0712	0	1	0.556	8	0	0
47	1	317	1	2	3	0.2047	0.0712	0	1	0.547	80	82	82
47	1	318	0	1	3	0.2047	0.0712	1	1	0.522	8	0	82
47	1	319	1	2	1	0.2047	0.0712	0	1	0.591	76	82	82
47	1	320	9	1	3	0.2047	0.0712	1	1	0.441	0	82	0
47	1	321	1	1	1	0.2047	0.0712	1	1	0.403	95	82	0
47	1	322	0	1	1	0.2047	0.0712	0	1	0.528	8	0	0
47	1	323	0	2	1	0.2047	0.0712	0	1	0.807	5	0	0
47	1	324	1	2	2	0.2047	0.0712	0	1	0.802	55	82	82
47	1	325	1	1	1	0.2047	0.0712	0	1	0.418	93	82	82
47	1	326	9	1	2	0.2047	0.0712	1	1	0.792	0	0	82
47	1	327	1	1	1	0.2047	0.0712	0	1	0.411	94	82	82
47	1	328	0	1	1	0.2047	0.0712	1	1	0.662	7	0	82
47	1	329	1	1	3	0.2047	0.0712	1	1	0.536	81	82	0
47	1	330	1	1	3	0.2047	0.0712	0	1	0.470	88	82	82
47	1	331	0	1	1	0.2047	0.0712	0	1	0.382	10	0	0
47	1	332	1	2	3	0.2047	0.0712	0	0	0.503	0	82	82
47	1	333	9	1	1	0.2047	0.0712	1	1	0.535	0	0	82
47	1	334	0	1	3	0.2047	0.0712	0	1	0.391	10	0	0
47	1	335	9	1	1	0.2047	0.0712	1	0	0.487	0	82	0
47	1	336	1	1	1	0.2047	0.0712	1	1	0.573	78	82	0
47	1	337	0	2	2	0.2047	0.0712	1	0	0.847	0	82	0
47	1	338	1	1	1	0.2047	0.0712	1	1	0.633	72	82	0
47	1	339	1	2	3	0.2047	0.0712	0	1	0.812	54	82	82
47	1	340	1	1	3	0.2047	0.0712	0	1	0.365	99	82	82
47	1	341	0	2	3	0.2047	0.0712	1	0	0.846	0	82	0
47	1	342	1	2	2	0.2047	0.0712	1	1	0.588	76	0	82
47	1	343	0	1	3	0.2047	0.0712	0	1	0.439	9	0	0
47	1	344	0	1	3	0.2047	0.0712	1	1	0.859	5	0	82
47	1	345	0	1	2	0.2047	0.0712	0	1	0.596	8	0	0
47	1	346	1	2	2	0.2047	0.0712	1	1	0.507	84	0	82
47	1	347	1	1	1	0.2047	0.0712	1	1	0.511	84	82	0
47	1	348	0	1	3	0.2047	0.0712	0	1	0.387	10	0	0
47	1	349	9	2	3	0.2047	0.0712	0	1	0.342	0	0	0
47	1	350	1	1	3	0.2047	0.0712	1	1	0.603	75	82	0
47	1	351	0	1	1	0.2047	0.0712	1	0	0.552	0	0	82
47	1	352	0	2	3	0.2047	0.0712	1	1	0.499	9	82	0
47	1	353	9	1	1	0.2047	0.0712	1	1	0.728	0	0	82
47	1	354	1	2	3	0.2047	0.0712	1	0	0.464	0	0	82
47	1	355	0	2	2	0.2047	0.0712	1	1	1.158	5	82	0
47	1	356	0	1	1	0.2047	0.0712	0	1	0.460	9	0	0
47	1	357	1	2	3	0.2047	0.0712	0	1	0.651	70	82	82
47	1	358	0	2	1	0.2047	0.0712	1	1	0.851	5	82	0
47	1	359	1	2	3	0.2047	0.0712	0	1	0.371	98	82	82
47	1	360	9	2	1	0.2047	0.0712	0	1	0.434	0	82	82
47	1	361	9	1	3	0.2047	0.0712	1	1	0.471	0	82	0
47	1	362	1	1	3	0.2047	0.0712	0	1	0.371	98	82	82
47	1	363	1	2	3	0.2047	0.0712	0	0	0.469	0	82	82
47	1	364	9	1	1	0.2047	0.0712	1	1	0.515	0	82	0
47	1	365	0	2	2	0.2047	0.0712	0	1	0.569	8	0	0
47	1	366	0	1	3	0.2047	0.0712	0	1	0.470	9	0	0
47	1	367	0	2	1	0.2047	0.0712	0	1	0.499	9	0	0
47	1	368	1	2	3	0.2047	0.0712	1	1	0.421	93	0	82
47	1	369	1	2	2	0.2047	0.0712	0	1	0.449	90	82	82
47	1	370	1	1	3	0.2047	0.0712	0	1	0.410	94	82	82
47	1	371	1	2	2	0.2047	0.0712	0	1	0.519	83	82	82
47	1	372	9	1	2	0.2047	0.0712	1	0	0.287	0	0	82
47	1	373	0	1	3	0.2047	0.0712	1	1	0.498	9	0	82
47	1	374	0	1	3	0.2047	0.0712	1	1	0.784	6	0	82
47	1	375	1	1	1	0.2047	0.0712	0	1	0.364	99	82	82
47	1	376	1	2	2	0.2047	0.0712	1	1	0.424	93	0	82
47	1	377	0	2	3	0.2047	0.0712	0	1	0.442	9	0	0
47	1	378	0	1	1	0.2047	0.0712	0	1	0.391	10	0	0
47	1	379	9	1	1	0.2047	0.0712	1	1	0.740	0	0	82
47	1	380	9	1	3	0.2047	0.0712	0	1	0.416	0	82	82
47	1	381	0	1	1	0.2047	0.0712	0	1	0.335	10	0	0
47	1	382	1	1	1	0.2047	0.0712	1	0	0.327	0	82	0
47	1	383	1	2	2	0.2047	0.0712	0	1	0.571	78	82	82
47	1	384	0	2	2	0.2047	0.0712	1	0	0.698	0	82	0
47	1	385	0	2	3	0.2047	0.0712	1	0	0.915	0	82	0
47	1	386	1	2	2	0.2047	0.0712	0	1	0.525	82	82	82
47	1	387	1	1	1	0.2047	0.0712	1	1	0.543	81	82	0
47	1	388	1	2	2	0.2047	0.0712	0	1	0.387	96	82	82
47	1	389	0	1	1	0.2047	0.0712	0	1	0.360	10	0	0
47	1	390	1	2	2	0.2047	0.0712	1	0	0.333	0	0	82
47	1	391	9	1	1	0.2047	0.0712	1	1	0.345	0	82	0
47	1	392	1	1	1	0.2047	0.0712	1	0	0.432	0	82	0
47	1	393	1	2	2	0.2047	0.0712	1	1	0.522	83	0	82
47	1	394	0	1	1	0.2047	0.0712	0	1	0.384	10	0	0
47	1	395	1	2	2	0.2047	0.0712	1	1	0.839	51	0	82
47	1	396	1	2	2	0.2047	0.0712	1	1	0.663	69	0	82
47	1	397	9	1	3	0.2047	0.0712	0	1	0.352	0	82	82
47	1	398	1	1	1	0.2047	0.0712	1	1	0.419	93	82	0
47	1	399	0	1	2	0.2047	0.0712	1	1	0.524	8	0	82
47	1	400	0	2	3	0.2047	0.0712	0	1	0.572	8	0	0
47	1	401	1	1	2	0.2047	0.0712	1	1	0.689	66	82	0
47	1	402	1	1	3	0.2047	0.0712	1	1	0.523	83	82	0
47	1	403	0	1	1	0.2047	0.0712	0	1	0.417	9	0	0
47	1	404	0	1	3	0.2047	0.0712	1	1	0.562	8	0	82
47	1	405	9	1	1	0.2047	0.0712	1	1	0.629	0	0	82
47	1	406	1	1	3	0.2047	0.0712	0	1	0.554	80	82	82
47	1	407	1	2	3	0.2047	0.0712	1	1	0.439	91	0	82
47	1	408	0	1	3	0.2047	0.0712	1	1	0.649	7	0	82
47	1	409	0	1	3	0.2047	0.0712	0	1	0.356	10	0	0
47	1	410	9	1	3	0.2047	0.0712	1	1	0.409	0	82	0
47	1	411	1	1	3	0.2047	0.0712	1	1	0.387	96	82	0
47	1	412	0	2	3	0.2047	0.0712	0	1	0.771	6	0	0
47	1	413	1	2	3	0.2047	0.0712	0	1	0.450	90	82	82
47	1	414	9	2	3	0.2047	0.0712	0	1	0.547	0	0	0
47	1	415	9	1	1	0.2047	0.0712	0	1	0.424	0	0	0
47	1	416	9	2	3	0.2047	0.0712	0	0	0.505	0	82	82
47	1	417	1	1	3	0.2047	0.0712	1	1	0.644	71	82	0
47	1	418	0	2	3	0.2047	0.0712	0	1	0.717	6	0	0
47	1	419	1	2	3	0.2047	0.0712	0	1	0.472	88	82	82
47	1	420	9	2	2	0.2047	0.0712	1	0	0.535	0	82	0
47	1	421	0	1	1	0.2047	0.0712	1	1	0.698	7	0	82
47	1	422	1	1	2	0.2047	0.0712	0	1	0.425	93	82	82
47	1	423	1	1	1	0.2047	0.0712	0	1	0.368	98	82	82
47	1	424	9	1	3	0.2047	0.0712	0	1	0.369	0	82	82
47	1	425	0	1	1	0.2047	0.0712	0	1	0.379	10	0	0
47	1	426	0	1	1	0.2047	0.0712	1	0	0.464	0	0	82
47	1	427	1	2	3	0.2047	0.0712	1	1	0.493	86	0	82
47	1	428	0	1	3	0.2047	0.0712	0	1	0.341	10	0	0
47	1	429	9	1	3	0.2047	0.0712	0	1	0.297	0	0	0
47	1	430	1	2	2	0.2047	0.0712	0	1	0.710	64	82	82
47	1	431	9	1	3	0.2047	0.0712	0	1	0.375	0	0	0
47	1	432	0	1	3	0.2047	0.0712	0	1	0.361	10	0	0
47	1	433	9	2	3	0.2047	0.0712	0	1	0.319	0	82	82
47	1	434	0	1	1	0.2047	0.0712	1	1	0.749	6	0	82
47	1	435	0	1	1	0.2047	0.0712	0	1	0.339	10	0	0
47	1	436	9	1	1	0.2047	0.0712	0	1	0.366	0	0	0
47	1	437	1	1	3	0.2047	0.0712	1	1	0.498	85	82	0
47	1	438	1	1	2	0.2047	0.0712	0	1	0.300	100	82	82
47	1	439	1	1	1	0.2047	0.0712	0	1	0.350	100	82	82
47	1	440	0	2	3	0.2047	0.0712	0	1	0.514	8	0	0
47	1	441	9	1	3	0.2047	0.0712	1	1	0.594	0	0	82
47	1	442	1	1	1	0.2047	0.0712	0	1	0.426	92	82	82
47	1	443	0	2	2	0.2047	0.0712	0	1	0.450	9	0	0
47	1	444	0	1	2	0.2047	0.0712	0	1	0.272	10	0	0
47	1	445	1	2	3	0.2047	0.0712	0	1	0.417	93	82	82
47	1	446	0	2	2	0.2047	0.0712	0	1	0.372	10	0	0
47	1	447	0	1	3	0.2047	0.0712	1	1	0.803	5	0	82
47	1	448	1	2	3	0.2047	0.0712	1	1	0.553	80	0	82
47	1	449	1	2	1	0.2047	0.0712	0	1	0.561	79	82	82
47	1	450	1	1	3	0.2047	0.0712	0	1	0.313	100	82	82
47	1	451	1	1	1	0.2047	0.0712	1	0	0.328	0	82	0
47	1	452	9	1	3	0.2047	0.0712	0	1	0.339	0	0	0
47	1	453	1	1	1	0.2047	0.0712	1	0	0.306	0	82	0
47	1	454	1	2	3	0.2047	0.0712	1	1	0.423	93	0	82
47	1	455	0	1	3	0.2047	0.0712	0	1	0.472	9	0	0
47	1	456	0	1	3	0.2047	0.0712	1	0	0.596	0	0	82
47	1	457	1	2	1	0.2047	0.0712	0	1	0.535	81	82	82
47	1	458	1	2	2	0.2047	0.0712	0	1	0.560	79	82	82
47	1	459	1	1	1	0.2047	0.0712	0	1	0.330	100	82	82
47	1	460	1	1	3	0.2047	0.0712	1	0	0.368	0	82	0
47	1	461	9	1	3	0.2047	0.0712	1	1	0.446	0	82	0
47	1	462	9	2	3	0.2047	0.0712	1	0	0.487	0	82	0
47	1	463	9	2	1	0.2047	0.0712	1	1	0.323	0	0	82
47	1	464	1	2	1	0.2047	0.0712	1	1	0.312	100	0	82
47	1	465	0	2	2	0.2047	0.0712	1	0	0.353	0	82	0
47	1	466	1	1	3	0.2047	0.0712	1	1	0.317	100	82	0
47	1	467	0	1	1	0.2047	0.0712	1	1	0.338	10	0	82
47	1	468	0	1	1	0.2047	0.0712	1	1	0.398	10	0	82
47	1	469	0	2	2	0.2047	0.0712	1	1	0.443	9	82	0
47	1	470	9	2	3	0.2047	0.0712	1	1	0.330	0	0	82
47	1	471	0	1	3	0.2047	0.0712	0	1	0.464	9	0	0
47	1	472	9	1	2	0.2047	0.0712	1	1	0.379	0	82	0
47	1	473	1	2	3	0.2047	0.0712	0	0	0.305	0	82	82
47	1	474	9	2	1	0.2047	0.0712	0	0	0.171	0	0	0
47	1	475	0	1	1	0.2047	0.0712	0	1	0.405	9	0	0
47	1	476	1	2	3	0.2047	0.0712	1	1	0.418	93	0	82
47	1	477	1	2	2	0.2047	0.0712	0	1	0.454	90	82	82
47	1	478	1	1	1	0.2047	0.0712	1	1	0.346	100	82	0
47	1	479	1	1	1	0.2047	0.0712	0	1	0.508	84	82	82
47	1	480	1	2	2	0.2047	0.0712	0	0	0.434	0	82	82
47	1	481	0	1	3	0.2047	0.0712	1	1	0.472	9	0	82
47	1	482	0	2	2	0.2047	0.0712	0	0	0.365	0	0	0
47	1	483	9	2	1	0.2047	0.0712	1	1	0.602	0	82	0
47	1	484	0	1	3	0.2047	0.0712	0	1	0.370	10	0	0
47	1	485	0	1	3	0.2047	0.0712	1	0	0.671	0	0	82
47	1	486	1	2	2	0.2047	0.0712	1	1	0.506	84	0	82
47	1	487	1	2	1	0.2047	0.0712	1	1	0.413	94	0	82
47	1	488	0	1	3	0.2047	0.0712	1	1	0.653	7	0	82
47	1	489	1	2	2	0.2047	0.0712	0	0	0.459	0	82	82
47	1	490	1	1	1	0.2047	0.0712	1	0	0.292	0	82	0
47	1	491	9	2	3	0.2047	0.0712	1	1	0.308	0	0	82
47	1	492	1	2	3	0.2047	0.0712	1	1	0.411	94	0	82
47	1	493	0	2	1	0.2047	0.0712	0	1	0.597	8	0	0
47	1	494	0	1	1	0.2047	0.0712	0	1	0.435	9	0	0
47	1	495	1	1	3	0.2047	0.0712	1	1	0.373	98	82	0
47	1	496	0	2	3	0.2047	0.0712	1	1	0.589	8	82	0
47	1	497	1	1	1	0.2047	0.0712	0	1	0.533	82	82	82
47	1	498	0	2	2	0.2047	0.0712	1	1	0.436	9	82	0
47	1	499	0	2	2	0.2047	0.0712	1	1	0.473	9	82	0
47	1	500	1	2	3	0.2047	0.0712	1	1	0.525	82	0	82
47	1	501	1	2	2	0.2047	0.0712	1	1	0.634	72	0	82
47	1	502	9	2	2	0.2047	0.0712	0	0	0.383	0	0	0
47	1	503	1	2	2	0.2047	0.0712	1	0	0.519	0	0	82
47	1	504	1	1	1	0.2047	0.0712	0	1	0.542	81	82	82
47	1	505	1	2	3	0.2047	0.0712	1	1	0.567	78	0	82
47	1	506	0	1	3	0.2047	0.0712	1	1	0.831	5	0	82
47	1	507	0	2	2	0.2047	0.0712	0	1	0.532	8	0	0
47	1	508	1	1	2	0.2047	0.0712	1	1	0.477	87	82	0
47	1	509	1	2	2	0.2047	0.0712	1	1	0.605	75	0	82
47	1	510	9	2	2	0.2047	0.0712	1	1	0.572	0	0	82
47	1	511	0	2	2	0.2047	0.0712	0	1	0.591	8	0	0
47	1	512	9	1	2	0.2047	0.0712	0	1	0.604	0	82	82
47	1	513	0	2	2	0.2047	0.0712	0	0	0.420	0	0	0
47	1	514	9	2	3	0.2047	0.0712	1	1	0.533	0	0	82
47	1	515	0	1	2	0.2047	0.0712	0	1	0.496	9	0	0
47	1	516	0	2	2	0.2047	0.0712	1	1	0.731	6	82	0
47	1	517	1	1	2	0.2047	0.0712	0	1	0.381	97	82	82
47	1	518	1	2	2	0.2047	0.0712	1	1	0.815	53	0	82
47	1	519	0	1	1	0.2047	0.0712	1	1	0.738	6	0	82
47	1	520	1	2	3	0.2047	0.0712	0	1	0.538	81	82	82
47	1	521	1	2	3	0.2047	0.0712	1	0	0.608	0	0	82
47	1	522	9	1	3	0.2047	0.0712	1	1	0.872	0	0	82
47	1	523	0	1	1	0.2047	0.0712	1	0	0.552	0	0	82
47	1	524	1	1	1	0.2047	0.0712	0	1	0.492	86	82	82
47	1	525	1	2	2	0.2047	0.0712	0	0	0.681	0	82	82
47	1	526	0	1	1	0.2047	0.0712	1	1	0.629	7	0	82
47	1	527	9	2	2	0.2047	0.0712	0	1	0.502	0	82	82
47	1	528	9	1	1	0.2047	0.0712	1	1	0.625	0	0	82
47	1	529	0	2	2	0.2047	0.0712	1	1	0.771	6	82	0
47	1	530	1	1	3	0.2047	0.0712	1	0	0.422	0	82	0
47	1	531	1	2	3	0.2047	0.0712	1	1	0.400	95	0	82
47	1	532	0	2	2	0.2047	0.0712	1	1	0.572	8	82	0
47	1	533	9	2	2	0.2047	0.0712	1	1	0.393	0	0	82
47	1	534	9	2	2	0.2047	0.0712	0	1	0.497	0	0	0
47	1	535	1	1	3	0.2047	0.0712	0	1	0.503	85	82	82
47	1	536	9	2	2	0.2047	0.0712	1	1	0.408	0	0	82
47	1	537	0	2	3	0.2047	0.0712	0	1	0.702	6	0	0
47	1	538	1	1	2	0.2047	0.0712	0	1	0.511	84	82	82
47	1	539	0	1	2	0.2047	0.0712	1	1	0.688	7	0	82
47	1	540	1	2	1	0.2047	0.0712	0	0	0.583	0	82	82
47	1	541	1	1	3	0.2047	0.0712	1	1	0.572	78	82	0
47	1	542	0	2	2	0.2047	0.0712	1	0	0.620	0	82	0
47	1	543	0	2	3	0.2047	0.0712	1	1	0.439	9	82	0
47	1	544	1	1	2	0.2047	0.0712	1	1	0.655	69	82	0
47	1	545	1	2	1	0.2047	0.0712	1	1	0.497	85	0	82
47	1	546	0	2	2	0.2047	0.0712	1	1	0.472	9	82	0
47	1	547	0	2	3	0.2047	0.0712	0	0	0.351	0	0	0
47	1	548	0	2	2	0.2047	0.0712	1	1	0.425	9	82	0
47	1	549	0	2	2	0.2047	0.0712	1	1	0.425	9	82	0
47	1	550	1	1	3	0.2047	0.0712	1	1	0.450	90	82	0
47	1	551	0	2	2	0.2047	0.0712	0	0	0.379	0	0	0
47	1	552	9	2	3	0.2047	0.0712	1	1	0.457	0	82	0
47	1	553	0	2	3	0.2047	0.0712	1	1	0.454	9	82	0
47	1	554	0	2	1	0.2047	0.0712	0	0	0.365	0	0	0
47	1	555	9	2	3	0.2047	0.0712	0	1	0.531	0	0	0
47	1	556	1	1	1	0.2047	0.0712	0	1	0.493	86	82	82
47	1	557	0	2	1	0.2047	0.0712	1	1	0.541	8	82	0
47	1	558	0	2	2	0.2047	0.0712	1	1	0.577	8	82	0
47	1	559	0	2	2	0.2047	0.0712	0	0	0.381	0	0	0
47	1	560	0	1	3	0.2047	0.0712	1	1	0.654	7	0	82
47	1	561	0	2	3	0.2047	0.0712	1	1	0.493	9	82	0
47	1	562	0	2	3	0.2047	0.0712	1	1	0.533	8	82	0
47	1	563	1	1	3	0.2047	0.0712	0	1	0.450	90	82	82
47	1	564	1	2	2	0.2047	0.0712	0	0	0.386	0	82	82
47	1	565	0	2	3	0.2047	0.0712	0	1	0.576	8	0	0
47	1	566	9	2	2	0.2047	0.0712	0	1	0.357	0	82	82
47	1	567	9	1	1	0.2047	0.0712	0	1	0.417	0	0	0
47	1	568	1	1	1	0.2047	0.0712	0	1	0.399	95	82	82
47	1	569	1	1	3	0.2047	0.0712	0	1	0.287	100	82	82
47	1	570	0	2	1	0.2047	0.0712	1	0	0.879	0	82	0
47	1	571	1	2	3	0.2047	0.0712	0	1	0.407	94	82	82
47	1	572	9	1	1	0.2047	0.0712	0	1	0.369	0	82	82
47	1	573	1	2	1	0.2047	0.0712	1	1	0.599	75	0	82
47	1	574	0	2	2	0.2047	0.0712	0	1	0.291	10	0	0
47	1	575	1	1	3	0.2047	0.0712	1	1	0.436	91	82	0
47	1	576	1	2	3	0.2047	0.0712	1	0	0.364	0	0	82
47	1	577	1	1	1	0.2047	0.0712	1	1	0.468	88	82	0
47	1	578	9	1	3	0.2047	0.0712	0	1	0.426	0	82	82
47	1	579	1	2	2	0.2047	0.0712	0	0	0.487	0	82	82
47	1	580	1	2	2	0.2047	0.0712	0	1	0.333	100	82	82
47	1	581	0	1	3	0.2047	0.0712	0	1	0.294	10	0	0
47	1	582	0	1	1	0.2047	0.0712	0	1	0.327	10	0	0
47	1	583	1	1	3	0.2047	0.0712	1	1	0.427	92	82	0
47	1	584	0	2	3	0.2047	0.0712	1	1	0.745	6	82	0
47	1	585	0	2	2	0.2047	0.0712	0	1	0.337	10	0	0
47	1	586	0	2	3	0.2047	0.0712	0	1	0.425	9	0	0
47	1	587	1	1	1	0.2047	0.0712	1	1	0.359	99	82	0
47	1	588	0	1	3	0.2047	0.0712	0	1	0.295	10	0	0
47	1	589	0	1	1	0.2047	0.0712	0	0	0.295	0	0	0
47	1	590	9	2	3	0.2047	0.0712	1	1	0.611	0	82	0
47	1	591	1	2	2	0.2047	0.0712	1	1	0.475	88	0	82
47	1	592	1	2	3	0.2047	0.0712	0	1	0.523	83	82	82
47	1	593	0	2	3	0.2047	0.0712	0	1	0.373	10	0	0
47	1	594	0	2	3	0.2047	0.0712	1	1	0.627	7	82	0
47	1	595	0	2	2	0.2047	0.0712	0	1	0.603	7	0	0
47	1	596	0	1	3	0.2047	0.0712	1	0	0.268	0	0	82
47	1	597	0	1	1	0.2047	0.0712	0	1	0.428	9	0	0
47	1	598	1	2	3	0.2047	0.0712	0	1	0.309	100	82	82
47	1	599	9	1	1	0.2047	0.0712	0	1	0.343	0	82	82
47	1	600	0	1	2	0.2047	0.0712	1	0	0.362	0	0	82
47	1	601	0	1	2	0.2047	0.0712	0	1	0.330	10	0	0
47	1	602	0	1	2	0.2047	0.0712	0	1	0.283	10	0	0
47	1	603	9	2	3	0.2047	0.0712	0	1	0.274	0	82	82
47	1	604	0	2	1	0.2047	0.0712	1	0	0.206	0	82	0
47	1	605	1	2	3	0.2047	0.0712	0	1	0.251	100	82	82
47	1	606	9	1	3	0.2047	0.0712	1	0	0.253	0	0	82
47	1	607	1	1	3	0.2047	0.0712	0	1	0.282	100	82	82
47	1	608	0	2	2	0.2047	0.0712	1	0	0.326	0	82	0
47	1	609	0	1	1	0.2047	0.0712	1	1	0.365	10	0	82
47	1	610	0	2	2	0.2047	0.0712	1	1	0.550	8	82	0
47	1	611	1	1	1	0.2047	0.0712	1	0	0.290	0	82	0
47	1	612	0	1	1	0.2047	0.0712	1	0	0.519	0	0	82
47	1	613	9	2	2	0.2047	0.0712	0	1	0.565	0	82	82
47	1	614	9	1	2	0.2047	0.0712	0	1	0.263	0	0	0
47	1	615	9	2	2	0.2047	0.0712	1	0	0.316	0	82	0
47	1	616	9	1	3	0.2047	0.0712	1	1	0.432	0	0	82
47	1	617	0	2	3	0.2047	0.0712	1	1	0.588	8	82	0
47	1	618	1	2	3	0.2047	0.0712	0	1	0.653	70	82	82
47	1	619	9	2	3	0.2047	0.0712	0	1	0.486	0	0	0
47	1	620	0	2	3	0.2047	0.0712	1	1	0.348	10	82	0
47	1	621	1	2	2	0.2047	0.0712	1	0	0.404	0	0	82
47	1	622	9	2	3	0.2047	0.0712	0	0	0.323	0	0	0
47	1	623	0	1	1	0.2047	0.0712	1	0	0.361	0	0	82
47	1	624	1	2	2	0.2047	0.0712	0	1	0.399	95	82	82
47	1	625	0	1	1	0.2047	0.0712	1	1	0.568	8	0	82
47	1	626	9	2	2	0.2047	0.0712	1	0	0.340	0	0	82
47	1	627	1	1	3	0.2047	0.0712	1	1	0.333	100	82	0
47	1	628	9	1	1	0.2047	0.0712	0	1	0.479	0	82	82
47	1	629	0	2	1	0.2047	0.0712	0	1	0.527	8	0	0
47	1	630	1	1	1	0.2047	0.0712	1	1	0.367	98	82	0
47	1	631	0	2	3	0.2047	0.0712	1	1	0.911	5	82	0
47	1	632	0	1	3	0.2047	0.0712	0	0	0.433	0	0	0
47	1	633	0	1	3	0.2047	0.0712	1	1	0.559	8	0	82
47	1	634	1	2	1	0.2047	0.0712	0	1	0.519	83	82	82
47	1	635	9	2	2	0.2047	0.0712	0	1	0.511	0	0	0
47	1	636	1	2	3	0.2047	0.0712	0	1	0.390	96	82	82
47	1	637	1	2	3	0.2047	0.0712	1	0	0.430	0	0	82
47	1	638	0	1	1	0.2047	0.0712	1	1	0.514	8	0	82
47	1	639	0	1	3	0.2047	0.0712	0	1	0.458	9	0	0
47	1	640	1	1	1	0.2047	0.0712	0	1	0.515	84	82	82
47	1	641	9	1	1	0.2047	0.0712	1	0	0.394	0	0	82
47	1	642	9	2	3	0.2047	0.0712	1	1	0.421	0	82	0
47	1	643	1	2	2	0.2047	0.0712	0	1	0.591	76	82	82
47	1	644	1	1	3	0.2047	0.0712	1	1	0.457	89	82	0
47	1	645	0	2	3	0.2047	0.0712	0	0	0.384	0	0	0
47	1	646	9	2	2	0.2047	0.0712	0	1	0.350	0	82	82
47	1	647	9	1	1	0.2047	0.0712	1	1	0.463	0	82	0
47	1	648	0	1	3	0.2047	0.0712	0	1	0.406	9	0	0
47	1	649	1	2	3	0.2047	0.0712	0	1	0.549	80	82	82
47	1	650	0	1	2	0.2047	0.0712	1	1	0.553	8	0	82
47	1	651	9	2	3	0.2047	0.0712	0	1	0.513	0	82	82
47	1	652	0	2	3	0.2047	0.0712	1	0	0.608	0	82	0
47	1	653	0	2	1	0.2047	0.0712	1	1	0.375	10	82	0
47	1	654	1	2	3	0.2047	0.0712	0	0	0.708	0	82	82
47	1	655	1	1	3	0.2047	0.0712	0	1	0.363	99	82	82
47	1	656	1	2	3	0.2047	0.0712	1	1	0.600	75	0	82
47	1	657	0	1	1	0.2047	0.0712	0	1	0.462	9	0	0
47	1	658	1	2	3	0.2047	0.0712	1	1	0.386	96	0	82
47	1	659	1	1	1	0.2047	0.0712	1	0	0.380	0	82	0
47	1	660	0	2	3	0.2047	0.0712	1	1	0.596	8	82	0
47	1	661	1	2	3	0.2047	0.0712	1	1	0.423	93	0	82
47	1	662	1	1	3	0.2047	0.0712	1	1	0.393	96	82	0
47	1	663	0	2	2	0.2047	0.0712	0	1	0.566	8	0	0
47	1	664	0	1	3	0.2047	0.0712	1	1	0.578	8	0	82
47	1	665	9	1	3	0.2047	0.0712	0	1	0.452	0	0	0
47	1	666	0	1	3	0.2047	0.0712	0	1	0.401	9	0	0
47	1	667	1	1	3	0.2047	0.0712	1	1	0.328	100	82	0
47	1	668	9	2	1	0.2047	0.0712	0	0	0.482	0	82	82
47	1	669	0	1	3	0.2047	0.0712	1	0	0.455	0	0	82
47	1	670	0	2	2	0.2047	0.0712	0	1	0.544	8	0	0
47	1	671	0	2	3	0.2047	0.0712	0	1	0.339	10	0	0
47	1	672	1	1	3	0.2047	0.0712	0	1	0.299	100	82	82
47	1	673	0	2	2	0.2047	0.0712	0	1	0.519	8	0	0
47	1	674	1	1	1	0.2047	0.0712	0	1	0.428	92	82	82
47	1	675	9	1	1	0.2047	0.0712	0	1	0.306	0	82	82
47	1	676	1	1	3	0.2047	0.0712	0	1	0.338	100	82	82
47	1	677	9	1	1	0.2047	0.0712	0	1	0.353	0	0	0
47	1	678	9	2	2	0.2047	0.0712	0	1	0.411	0	0	0
47	1	679	1	1	1	0.2047	0.0712	1	1	0.401	95	82	0
47	1	680	0	1	3	0.2047	0.0712	0	1	0.308	10	0	0
47	1	681	1	1	1	0.2047	0.0712	0	1	0.327	100	82	82
47	1	682	0	1	1	0.2047	0.0712	0	1	0.341	10	0	0
47	1	683	1	2	3	0.2047	0.0712	0	0	0.381	0	82	82
47	1	684	1	1	3	0.2047	0.0712	0	1	0.368	98	82	82
47	1	685	9	2	2	0.2047	0.0712	1	1	0.476	0	82	0
47	1	686	9	1	1	0.2047	0.0712	1	0	0.420	0	82	0
47	1	687	0	1	1	0.2047	0.0712	1	1	0.603	7	0	82
47	1	688	0	2	3	0.2047	0.0712	0	0	0.401	0	0	0
47	1	689	0	2	3	0.2047	0.0712	0	1	0.444	9	0	0
47	1	690	0	2	3	0.2047	0.0712	0	1	0.390	10	0	0
47	1	691	0	2	3	0.2047	0.0712	1	1	0.716	6	82	0
47	1	692	0	2	2	0.2047	0.0712	1	1	0.735	6	82	0
47	1	693	1	1	1	0.2047	0.0712	1	1	0.402	95	82	0
47	1	694	1	1	1	0.2047	0.0712	0	1	0.354	100	82	82
47	1	695	0	2	2	0.2047	0.0712	0	1	0.490	9	0	0
47	1	696	0	1	3	0.2047	0.0712	0	1	0.306	10	0	0
47	1	697	1	1	3	0.2047	0.0712	0	1	0.311	100	82	82
47	1	698	1	2	2	0.2047	0.0712	1	0	0.299	0	0	82
47	1	699	0	1	1	0.2047	0.0712	0	1	0.466	9	0	0
47	1	700	0	1	1	0.2047	0.0712	1	0	0.473	0	0	82
47	1	701	1	2	2	0.2047	0.0712	1	1	0.549	80	0	82
47	1	702	1	1	3	0.2047	0.0712	0	1	0.393	96	82	82
47	1	703	9	2	2	0.2047	0.0712	1	1	0.457	0	82	0
47	1	704	1	1	3	0.2047	0.0712	0	1	0.353	100	82	82
47	1	705	9	2	3	0.2047	0.0712	1	1	0.493	0	0	82
47	1	706	1	1	1	0.2047	0.0712	0	1	0.499	85	82	82
47	1	707	0	2	3	0.2047	0.0712	1	1	0.511	8	82	0
47	1	708	0	2	3	0.2047	0.0712	0	1	0.344	10	0	0
47	1	709	1	2	2	0.2047	0.0712	1	1	0.390	96	0	82
47	1	710	1	2	3	0.2047	0.0712	0	0	0.409	0	82	82
47	1	711	1	1	2	0.2047	0.0712	1	1	0.295	100	82	0
47	1	712	9	1	3	0.2047	0.0712	1	1	0.530	0	82	0
47	1	713	0	1	3	0.2047	0.0712	1	1	0.789	6	0	82
47	1	714	0	1	1	0.2047	0.0712	1	1	0.272	10	0	82
47	1	715	1	2	2	0.2047	0.0712	1	1	0.445	91	0	82
47	1	716	1	1	3	0.2047	0.0712	0	1	0.556	79	82	82
47	1	717	0	1	3	0.2047	0.0712	0	1	0.389	10	0	0
47	1	718	1	1	1	0.2047	0.0712	1	1	0.460	89	82	0
47	1	719	0	1	1	0.2047	0.0712	0	1	0.398	10	0	0
47	1	720	0	2	3	0.2047	0.0712	1	1	0.311	10	82	0
