sub	sess	t	rew	loc	cue	co1	co2	or	resp	rt	rew_tot	left_col	right_col
110	1	1	0	2	3	0.1079	0.0500	1	1	0.862	5	0	82
110	1	2	1	1	3	0.1079	0.0500	1	1	0.939	50	0	82
110	1	3	1	2	2	0.1079	0.0500	0	1	0.737	61	0	0
110	1	4	0	1	2	0.1079	0.0500	0	0	1.180	0	82	82
110	1	5	1	2	2	0.1079	0.0500	1	1	0.698	65	82	0
110	1	6	1	2	3	0.1079	0.0500	1	0	1.046	0	82	0
110	1	7	1	2	3	0.1079	0.0500	0	0	0.944	0	0	0
110	1	8	0	2	2	0.1079	0.0500	1	1	0.703	6	0	82
110	1	9	1	2	2	0.1079	0.0500	1	1	1.519	50	82	0
110	1	10	1	2	3	0.1079	0.0500	1	1	0.968	50	82	0
110	1	11	1	2	3	0.1079	0.0500	1	1	0.584	77	82	0
110	1	12	1	2	3	0.1079	0.0500	1	1	0.588	76	82	0
110	1	13	0	1	1	0.1079	0.0500	0	1	0.631	7	82	82
110	1	14	1	2	2	0.1079	0.0500	0	1	0.637	71	0	0
110	1	15	0	2	2	0.1079	0.0500	0	1	1.125	5	82	82
110	1	16	1	2	3	0.1079	0.0500	0	1	0.909	50	0	0
110	1	17	0	2	2	0.1079	0.0500	1	1	1.103	5	0	82
110	1	18	0	1	2	0.1079	0.0500	0	1	0.706	6	82	82
110	1	19	1	2	2	0.1079	0.0500	0	1	0.682	67	0	0
110	1	20	0	1	3	0.1079	0.0500	0	1	0.600	8	82	82
110	1	21	1	2	1	0.1079	0.0500	0	1	0.866	50	0	0
110	1	22	1	2	2	0.1079	0.0500	1	1	0.572	78	82	0
110	1	23	0	2	2	0.1079	0.0500	0	1	1.103	5	82	82
110	1	24	1	2	2	0.1079	0.0500	0	0	1.040	0	0	0
110	1	25	1	1	3	0.1079	0.0500	1	1	1.367	50	0	82
110	1	26	1	2	2	0.1079	0.0500	1	1	0.915	50	82	0
110	1	27	1	2	3	0.1079	0.0500	1	0	0.723	0	82	0
110	1	28	0	1	1	0.1079	0.0500	0	1	1.095	5	82	82
110	1	29	0	1	3	0.1079	0.0500	1	1	1.157	5	82	0
110	1	30	0	1	1	0.1079	0.0500	0	1	0.899	5	82	82
110	1	31	9	2	2	0.1079	0.0500	1	0	1.343	0	0	82
110	1	32	0	2	3	0.1079	0.0500	0	1	0.907	5	82	82
110	1	33	1	2	3	0.1079	0.0500	0	1	0.676	67	0	0
110	1	34	0	1	1	0.1079	0.0500	0	1	0.556	8	82	82
110	1	35	1	1	1	0.1079	0.0500	0	1	0.584	77	0	0
110	1	36	0	2	2	0.1079	0.0500	1	1	0.797	6	0	82
110	1	37	0	2	2	0.1079	0.0500	0	0	1.195	0	82	82
110	1	38	9	2	3	0.1079	0.0500	1	1	0.593	0	82	0
110	1	39	0	2	2	0.1079	0.0500	1	1	0.994	5	0	82
110	1	40	0	1	1	0.1079	0.0500	1	0	0.997	0	82	0
110	1	41	0	1	1	0.1079	0.0500	1	1	1.367	5	82	0
110	1	42	0	2	2	0.1079	0.0500	1	1	0.663	7	0	82
110	1	43	1	2	3	0.1079	0.0500	1	1	0.677	67	82	0
110	1	44	0	2	2	0.1079	0.0500	1	1	0.790	6	0	82
110	1	45	9	2	3	0.1079	0.0500	1	1	1.025	0	82	0
110	1	46	0	1	3	0.1079	0.0500	0	1	0.813	5	82	82
110	1	47	0	2	3	0.1079	0.0500	0	1	0.887	5	82	82
110	1	48	1	1	1	0.1079	0.0500	0	1	0.990	50	0	0
110	1	49	1	1	1	0.1079	0.0500	1	1	0.629	72	0	82
110	1	50	1	2	3	0.1079	0.0500	0	0	0.823	0	0	0
110	1	51	1	2	1	0.1079	0.0500	1	1	0.656	69	82	0
110	1	52	1	2	3	0.1079	0.0500	0	1	1.170	50	0	0
110	1	53	0	2	3	0.1079	0.0500	0	0	0.610	0	82	82
110	1	54	9	1	2	0.1079	0.0500	1	1	1.490	0	82	0
110	1	55	0	2	1	0.1079	0.0500	1	1	1.055	5	0	82
110	1	56	0	2	2	0.1079	0.0500	0	1	0.840	5	82	82
110	1	57	1	1	1	0.1079	0.0500	1	1	0.763	59	0	82
110	1	58	1	1	3	0.1079	0.0500	0	1	0.772	58	0	0
110	1	59	1	1	1	0.1079	0.0500	1	1	0.990	50	0	82
110	1	60	1	2	3	0.1079	0.0500	1	1	0.945	50	82	0
110	1	61	0	2	2	0.1079	0.0500	1	1	1.256	5	0	82
110	1	62	0	2	2	0.1079	0.0500	0	0	0.752	0	82	82
110	1	63	1	2	1	0.1079	0.0500	0	1	1.150	50	0	0
110	1	64	1	1	3	0.1079	0.0500	0	1	4.374	50	0	0
110	1	65	0	1	1	0.1079	0.0500	1	0	1.442	0	82	0
110	1	66	1	1	1	0.1079	0.0500	1	1	0.882	50	0	82
110	1	67	9	2	3	0.1079	0.0500	0	0	1.018	0	0	0
110	1	68	9	2	2	0.1079	0.0500	0	1	0.847	0	82	82
110	1	69	1	1	1	0.1079	0.0500	1	1	0.726	62	0	82
110	1	70	0	1	3	0.1079	0.0500	0	1	0.778	6	82	82
110	1	71	0	1	3	0.1079	0.0500	1	0	1.445	0	82	0
110	1	72	1	1	3	0.1079	0.0500	1	1	0.736	61	0	82
110	1	73	0	2	1	0.1079	0.0500	0	0	0.840	0	82	82
110	1	74	0	2	3	0.1079	0.0500	1	1	1.077	5	0	82
110	1	75	9	1	1	0.1079	0.0500	0	1	0.681	0	82	82
110	1	76	0	2	2	0.1079	0.0500	1	1	0.969	5	0	82
110	1	77	0	1	3	0.1079	0.0500	1	1	0.908	5	82	0
110	1	78	9	2	2	0.1079	0.0500	0	1	0.650	0	82	82
110	1	79	9	1	3	0.1079	0.0500	1	0	0.885	0	82	0
110	1	80	1	2	3	0.1079	0.0500	0	1	1.117	50	0	0
110	1	81	0	2	3	0.1079	0.0500	0	1	0.746	6	82	82
110	1	82	0	1	3	0.1079	0.0500	1	1	1.031	5	82	0
110	1	83	1	2	2	0.1079	0.0500	1	1	0.693	66	82	0
110	1	84	9	1	1	0.1079	0.0500	0	1	0.649	0	0	0
110	1	85	0	1	3	0.1079	0.0500	0	1	0.701	6	82	82
110	1	86	9	2	1	0.1079	0.0500	1	1	1.097	0	0	82
110	1	87	1	2	3	0.1079	0.0500	0	0	1.015	0	0	0
110	1	88	9	1	3	0.1079	0.0500	1	1	1.167	0	82	0
110	1	89	1	1	1	0.1079	0.0500	0	1	0.608	74	0	0
110	1	90	1	2	3	0.1079	0.0500	1	1	0.681	67	82	0
110	1	91	0	2	1	0.1079	0.0500	0	0	1.182	0	82	82
110	1	92	0	1	3	0.1079	0.0500	1	1	1.379	5	82	0
110	1	93	0	1	3	0.1079	0.0500	0	1	0.751	6	82	82
110	1	94	0	2	3	0.1079	0.0500	0	1	0.828	5	82	82
110	1	95	9	1	3	0.1079	0.0500	1	1	0.785	0	0	82
110	1	96	1	1	3	0.1079	0.0500	0	1	1.165	50	0	0
110	1	97	1	2	2	0.1079	0.0500	0	1	0.671	68	0	0
110	1	98	0	2	2	0.1079	0.0500	0	1	0.765	6	82	82
110	1	99	0	2	3	0.1079	0.0500	1	1	1.206	5	0	82
110	1	100	1	2	2	0.1079	0.0500	1	1	0.928	50	82	0
110	1	101	9	2	2	0.1079	0.0500	1	1	1.244	0	82	0
110	1	102	1	2	3	0.1079	0.0500	0	1	0.705	65	0	0
110	1	103	9	1	3	0.1079	0.0500	0	0	0.666	0	0	0
110	1	104	0	2	3	0.1079	0.0500	1	1	0.792	6	0	82
110	1	105	0	1	3	0.1079	0.0500	0	1	0.922	5	82	82
110	1	106	9	2	3	0.1079	0.0500	1	1	1.233	0	82	0
110	1	107	9	1	1	0.1079	0.0500	0	1	0.593	0	82	82
110	1	108	0	2	3	0.1079	0.0500	1	1	1.214	5	0	82
110	1	109	9	1	1	0.1079	0.0500	0	1	1.111	0	82	82
110	1	110	9	2	3	0.1079	0.0500	1	1	0.631	0	82	0
110	1	111	0	2	3	0.1079	0.0500	1	0	0.836	0	0	82
110	1	112	9	1	1	0.1079	0.0500	1	1	0.904	0	82	0
110	1	113	0	1	1	0.1079	0.0500	1	1	0.641	7	82	0
110	1	114	0	1	1	0.1079	0.0500	0	1	0.658	7	82	82
110	1	115	1	1	3	0.1079	0.0500	1	1	0.685	66	0	82
110	1	116	0	2	3	0.1079	0.0500	0	1	0.753	6	82	82
110	1	117	1	1	2	0.1079	0.0500	0	1	1.006	50	0	0
110	1	118	1	2	2	0.1079	0.0500	0	1	0.671	68	0	0
110	1	119	0	2	2	0.1079	0.0500	1	1	0.778	6	0	82
110	1	120	0	2	3	0.1079	0.0500	0	0	0.711	0	82	82
110	1	121	0	1	1	0.1079	0.0500	0	1	0.679	7	82	82
110	1	122	0	2	3	0.1079	0.0500	0	1	0.820	5	82	82
110	1	123	9	1	1	0.1079	0.0500	1	1	0.846	0	82	0
110	1	124	1	2	3	0.1079	0.0500	1	1	0.588	76	82	0
110	1	125	9	1	3	0.1079	0.0500	1	0	1.047	0	82	0
110	1	126	1	2	2	0.1079	0.0500	0	1	0.729	62	0	0
110	1	127	1	2	2	0.1079	0.0500	0	1	0.539	81	0	0
110	1	128	9	2	2	0.1079	0.0500	1	1	0.612	0	0	82
110	1	129	0	1	1	0.1079	0.0500	1	1	0.764	6	82	0
110	1	130	9	1	1	0.1079	0.0500	1	1	0.476	0	0	82
110	1	131	9	2	3	0.1079	0.0500	0	1	0.700	0	82	82
110	1	132	9	2	2	0.1079	0.0500	1	1	0.801	0	82	0
110	1	133	9	1	3	0.1079	0.0500	1	1	0.504	0	0	82
110	1	134	0	2	2	0.1079	0.0500	1	1	0.628	7	0	82
110	1	135	9	1	3	0.1079	0.0500	1	1	0.531	0	0	82
110	1	136	0	1	1	0.1079	0.0500	1	1	0.873	5	82	0
110	1	137	1	1	1	0.1079	0.0500	0	1	0.620	73	0	0
110	1	138	0	1	1	0.1079	0.0500	1	0	0.663	0	82	0
110	1	139	9	1	3	0.1079	0.0500	0	1	0.816	0	0	0
110	1	140	1	1	3	0.1079	0.0500	1	1	0.615	74	0	82
110	1	141	1	2	2	0.1079	0.0500	1	1	0.661	69	82	0
110	1	142	0	1	1	0.1079	0.0500	1	1	0.794	6	82	0
110	1	143	1	1	1	0.1079	0.0500	1	1	0.567	78	0	82
110	1	144	9	1	1	0.1079	0.0500	0	0	0.602	0	0	0
110	1	145	1	2	2	0.1079	0.0500	1	1	0.487	86	82	0
110	1	146	1	1	3	0.1079	0.0500	0	0	0.758	0	0	0
110	1	147	9	2	2	0.1079	0.0500	1	1	0.767	0	0	82
110	1	148	1	1	1	0.1079	0.0500	0	1	0.573	78	0	0
110	1	149	0	2	3	0.1079	0.0500	1	0	1.446	0	0	82
110	1	150	1	2	3	0.1079	0.0500	1	1	1.637	50	82	0
110	1	151	0	2	3	0.1079	0.0500	0	1	1.119	5	82	82
110	1	152	1	1	3	0.1079	0.0500	1	1	0.480	87	0	82
110	1	153	1	1	1	0.1079	0.0500	1	1	0.520	83	0	82
110	1	154	9	2	3	0.1079	0.0500	0	1	0.771	0	0	0
110	1	155	1	1	1	0.1079	0.0500	1	1	0.526	82	0	82
110	1	156	0	2	2	0.1079	0.0500	0	0	0.925	0	82	82
110	1	157	9	2	3	0.1079	0.0500	1	0	1.247	0	0	82
110	1	158	1	1	3	0.1079	0.0500	1	0	0.671	0	0	82
110	1	159	1	2	3	0.1079	0.0500	0	1	0.681	67	0	0
110	1	160	1	2	1	0.1079	0.0500	1	1	0.505	84	82	0
110	1	161	0	2	2	0.1079	0.0500	1	1	0.886	5	0	82
110	1	162	1	1	1	0.1079	0.0500	0	1	0.713	64	0	0
110	1	163	1	2	2	0.1079	0.0500	0	1	0.784	57	0	0
110	1	164	0	1	3	0.1079	0.0500	0	0	0.741	0	82	82
110	1	165	0	2	2	0.1079	0.0500	0	0	0.773	0	82	82
110	1	166	0	1	3	0.1079	0.0500	1	1	0.843	5	82	0
110	1	167	1	1	1	0.1079	0.0500	0	0	0.617	0	0	0
110	1	168	0	1	2	0.1079	0.0500	1	1	1.576	5	82	0
110	1	169	1	1	1	0.1079	0.0500	1	1	0.522	83	0	82
110	1	170	9	1	3	0.1079	0.0500	0	1	0.551	0	82	82
110	1	171	9	2	2	0.1079	0.0500	1	1	0.952	0	82	0
110	1	172	1	1	3	0.1079	0.0500	0	1	0.746	60	0	0
110	1	173	9	2	3	0.1079	0.0500	1	0	0.943	0	0	82
110	1	174	0	2	2	0.1079	0.0500	0	1	0.982	5	82	82
110	1	175	1	2	2	0.1079	0.0500	0	1	0.895	50	0	0
110	1	176	9	2	3	0.1079	0.0500	0	1	1.725	0	82	82
110	1	177	0	1	3	0.1079	0.0500	0	1	0.583	8	82	82
110	1	178	1	2	2	0.1079	0.0500	0	1	0.689	66	0	0
110	1	179	1	2	3	0.1079	0.0500	0	1	0.735	61	0	0
110	1	180	0	2	1	0.1079	0.0500	0	1	1.117	5	82	82
110	1	181	0	2	3	0.1079	0.0500	0	1	0.781	6	82	82
110	1	182	9	1	1	0.1079	0.0500	1	1	0.722	0	82	0
110	1	183	9	1	3	0.1079	0.0500	0	1	0.667	0	82	82
110	1	184	0	2	3	0.1079	0.0500	1	1	0.750	6	0	82
110	1	185	1	2	3	0.1079	0.0500	1	1	0.651	70	82	0
110	1	186	0	2	1	0.1079	0.0500	0	0	0.924	0	82	82
110	1	187	1	2	2	0.1079	0.0500	1	1	0.988	50	82	0
110	1	188	9	1	3	0.1079	0.0500	0	1	0.687	0	0	0
110	1	189	0	2	3	0.1079	0.0500	1	0	1.315	0	0	82
110	1	190	9	2	3	0.1079	0.0500	1	0	1.274	0	0	82
110	1	191	1	2	2	0.1079	0.0500	1	1	0.874	50	82	0
110	1	192	0	2	3	0.1079	0.0500	1	1	0.896	5	0	82
110	1	193	0	1	1	0.1079	0.0500	1	1	0.824	5	82	0
110	1	194	1	1	1	0.1079	0.0500	1	1	0.615	74	0	82
110	1	195	1	2	3	0.1079	0.0500	1	1	0.539	81	82	0
110	1	196	1	2	2	0.1079	0.0500	0	0	0.582	0	0	0
110	1	197	1	1	1	0.1079	0.0500	0	1	0.929	50	0	0
110	1	198	0	2	2	0.1079	0.0500	1	1	0.792	6	0	82
110	1	199	0	2	1	0.1079	0.0500	1	1	0.801	5	0	82
110	1	200	1	1	3	0.1079	0.0500	0	1	0.738	61	0	0
110	1	201	1	2	3	0.1079	0.0500	1	1	0.598	75	82	0
110	1	202	1	1	3	0.1079	0.0500	1	1	0.553	80	0	82
110	1	203	0	2	2	0.1079	0.0500	0	0	0.602	0	82	82
110	1	204	0	2	2	0.1079	0.0500	0	1	0.671	7	82	82
110	1	205	9	2	3	0.1079	0.0500	0	1	1.019	0	0	0
110	1	206	0	1	2	0.1079	0.0500	1	1	0.742	6	82	0
110	1	207	0	2	3	0.1079	0.0500	0	1	0.763	6	82	82
110	1	208	0	1	1	0.1079	0.0500	1	0	0.654	0	82	0
110	1	209	1	2	3	0.1079	0.0500	0	1	1.078	50	0	0
110	1	210	0	1	1	0.1079	0.0500	0	0	0.728	0	82	82
110	1	211	1	1	2	0.1079	0.0500	1	1	0.867	50	0	82
110	1	212	0	2	2	0.1079	0.0500	1	1	0.828	5	0	82
110	1	213	9	1	1	0.1079	0.0500	0	1	0.887	0	0	0
110	1	214	1	1	3	0.1079	0.0500	0	0	1.160	0	0	0
110	1	215	0	1	3	0.1079	0.0500	1	1	0.929	5	82	0
110	1	216	0	2	3	0.1079	0.0500	1	1	0.686	7	0	82
110	1	217	9	1	3	0.1079	0.0500	1	1	0.512	0	82	0
110	1	218	1	2	3	0.1079	0.0500	0	0	0.637	0	0	0
110	1	219	9	1	1	0.1079	0.0500	1	0	0.824	0	82	0
110	1	220	0	2	2	0.1079	0.0500	0	0	0.906	0	82	82
110	1	221	1	2	2	0.1079	0.0500	1	1	0.835	51	82	0
110	1	222	0	2	3	0.1079	0.0500	0	1	0.562	8	82	82
110	1	223	0	1	3	0.1079	0.0500	0	1	0.746	6	82	82
110	1	224	0	1	3	0.1079	0.0500	1	1	0.997	5	82	0
110	1	225	0	2	2	0.1079	0.0500	0	1	0.682	7	82	82
110	1	226	9	2	3	0.1079	0.0500	1	1	0.618	0	0	82
110	1	227	1	1	3	0.1079	0.0500	0	1	0.673	68	0	0
110	1	228	0	1	3	0.1079	0.0500	1	1	0.856	5	82	0
110	1	229	1	1	3	0.1079	0.0500	1	1	0.771	58	0	82
110	1	230	9	2	2	0.1079	0.0500	0	0	1.075	0	82	82
110	1	231	1	1	2	0.1079	0.0500	0	1	0.734	62	0	0
110	1	232	9	1	1	0.1079	0.0500	0	1	0.528	0	82	82
110	1	233	1	1	1	0.1079	0.0500	0	1	0.509	84	0	0
110	1	234	0	2	2	0.1079	0.0500	1	0	0.801	0	0	82
110	1	235	0	2	2	0.1079	0.0500	1	1	1.009	5	0	82
110	1	236	0	1	3	0.1079	0.0500	1	1	1.471	5	82	0
110	1	237	1	2	1	0.1079	0.0500	0	1	0.973	50	0	0
110	1	238	0	2	2	0.1079	0.0500	0	1	0.758	6	82	82
110	1	239	0	2	2	0.1079	0.0500	0	1	0.672	7	82	82
110	1	240	1	2	2	0.1079	0.0500	1	1	0.945	50	82	0
110	1	241	0	1	1	0.1079	0.0500	0	0	0.819	0	82	82
110	1	242	1	2	2	0.1079	0.0500	0	0	0.723	0	0	0
110	1	243	1	1	3	0.1079	0.0500	0	1	0.646	70	0	0
110	1	244	0	2	3	0.1079	0.0500	0	1	0.795	6	82	82
110	1	245	1	1	3	0.1079	0.0500	1	1	0.449	90	0	82
110	1	246	1	1	1	0.1079	0.0500	0	1	0.471	88	0	0
110	1	247	1	1	3	0.1079	0.0500	1	1	0.714	64	0	82
110	1	248	9	2	2	0.1079	0.0500	1	1	0.682	0	82	0
110	1	249	0	1	1	0.1079	0.0500	0	1	0.518	8	82	82
110	1	250	0	2	1	0.1079	0.0500	1	1	1.062	5	0	82
110	1	251	1	1	1	0.1079	0.0500	1	1	0.509	84	0	82
110	1	252	1	2	2	0.1079	0.0500	0	1	0.759	59	0	0
110	1	253	1	2	2	0.1079	0.0500	1	1	0.910	50	82	0
110	1	254	9	2	1	0.1079	0.0500	0	1	1.251	0	0	0
110	1	255	1	1	1	0.1079	0.0500	1	1	0.528	82	0	82
110	1	256	1	1	3	0.1079	0.0500	1	1	0.473	88	0	82
110	1	257	1	1	2	0.1079	0.0500	0	1	0.725	62	0	0
110	1	258	0	2	3	0.1079	0.0500	1	1	1.011	5	0	82
110	1	259	9	1	1	0.1079	0.0500	1	1	0.857	0	0	82
110	1	260	0	1	3	0.1079	0.0500	0	1	0.788	6	82	82
110	1	261	9	2	1	0.1079	0.0500	0	0	0.757	0	82	82
110	1	262	1	1	2	0.1079	0.0500	0	1	0.556	79	0	0
110	1	263	0	1	3	0.1079	0.0500	0	1	0.586	8	82	82
110	1	264	1	1	3	0.1079	0.0500	0	1	0.510	84	0	0
110	1	265	0	2	3	0.1079	0.0500	1	1	0.818	5	0	82
110	1	266	0	1	1	0.1079	0.0500	0	1	0.861	5	82	82
110	1	267	1	1	1	0.1079	0.0500	1	1	0.628	72	0	82
110	1	268	9	1	1	0.1079	0.0500	1	1	0.630	0	0	82
110	1	269	9	1	3	0.1079	0.0500	0	1	0.660	0	82	82
110	1	270	9	2	3	0.1079	0.0500	0	0	0.580	0	82	82
110	1	271	1	1	3	0.1079	0.0500	1	1	0.555	80	0	82
110	1	272	0	1	3	0.1079	0.0500	1	1	0.717	6	82	0
110	1	273	9	2	2	0.1079	0.0500	0	1	0.912	0	0	0
110	1	274	0	1	1	0.1079	0.0500	1	1	0.799	6	82	0
110	1	275	1	1	3	0.1079	0.0500	0	1	0.572	78	0	0
110	1	276	1	1	1	0.1079	0.0500	0	1	0.676	67	0	0
110	1	277	1	1	1	0.1079	0.0500	0	1	0.516	83	0	0
110	1	278	1	2	3	0.1079	0.0500	0	0	0.615	0	0	0
110	1	279	9	1	3	0.1079	0.0500	1	1	0.562	0	0	82
110	1	280	0	1	1	0.1079	0.0500	1	0	0.718	0	82	0
110	1	281	9	1	2	0.1079	0.0500	1	1	0.640	0	0	82
110	1	282	0	1	3	0.1079	0.0500	0	1	0.583	8	82	82
110	1	283	1	2	3	0.1079	0.0500	0	1	0.768	58	0	0
110	1	284	1	1	1	0.1079	0.0500	0	1	0.776	57	0	0
110	1	285	0	1	1	0.1079	0.0500	1	1	0.910	5	82	0
110	1	286	0	1	1	0.1079	0.0500	1	1	0.679	7	82	0
110	1	287	1	2	3	0.1079	0.0500	1	1	0.545	81	82	0
110	1	288	0	1	3	0.1079	0.0500	0	1	0.720	6	82	82
110	1	289	1	1	3	0.1079	0.0500	1	1	0.627	72	0	82
110	1	290	1	1	1	0.1079	0.0500	1	1	0.555	80	0	82
110	1	291	1	2	2	0.1079	0.0500	1	1	0.434	92	82	0
110	1	292	9	2	2	0.1079	0.0500	0	1	0.649	0	82	82
110	1	293	0	1	1	0.1079	0.0500	0	1	0.883	5	82	82
110	1	294	1	1	3	0.1079	0.0500	0	1	0.535	81	0	0
110	1	295	0	2	3	0.1079	0.0500	1	1	1.057	5	0	82
110	1	296	0	1	3	0.1079	0.0500	0	1	0.559	8	82	82
110	1	297	1	2	3	0.1079	0.0500	1	1	0.516	83	82	0
110	1	298	1	2	2	0.1079	0.0500	1	1	0.548	80	82	0
110	1	299	0	1	3	0.1079	0.0500	1	1	0.551	8	82	0
110	1	300	0	1	3	0.1079	0.0500	0	1	0.494	9	82	82
110	1	301	0	2	2	0.1079	0.0500	1	1	0.595	8	0	82
110	1	302	1	1	2	0.1079	0.0500	1	0	0.522	0	0	82
110	1	303	9	2	3	0.1079	0.0500	0	0	1.198	0	0	0
110	1	304	9	2	3	0.1079	0.0500	0	0	0.499	0	82	82
110	1	305	9	2	2	0.1079	0.0500	0	1	0.893	0	0	0
110	1	306	0	1	1	0.1079	0.0500	0	1	0.582	8	82	82
110	1	307	1	1	2	0.1079	0.0500	1	1	0.493	86	0	82
110	1	308	1	1	1	0.1079	0.0500	0	1	0.572	78	0	0
110	1	309	0	1	3	0.1079	0.0500	1	1	0.707	6	82	0
110	1	310	0	2	3	0.1079	0.0500	1	0	0.952	0	0	82
110	1	311	0	2	3	0.1079	0.0500	0	1	0.579	8	82	82
110	1	312	9	1	1	0.1079	0.0500	1	1	0.619	0	0	82
110	1	313	0	2	3	0.1079	0.0500	0	1	0.811	5	82	82
110	1	314	1	2	1	0.1079	0.0500	1	0	0.709	0	82	0
110	1	315	9	1	2	0.1079	0.0500	0	0	0.639	0	82	82
110	1	316	1	2	1	0.1079	0.0500	1	1	0.546	80	82	0
110	1	317	1	1	3	0.1079	0.0500	0	1	0.728	62	0	0
110	1	318	1	1	3	0.1079	0.0500	0	1	0.718	63	0	0
110	1	319	9	1	2	0.1079	0.0500	0	1	0.900	0	0	0
110	1	320	0	1	1	0.1079	0.0500	0	1	0.479	9	82	82
110	1	321	0	2	3	0.1079	0.0500	0	1	0.646	7	82	82
110	1	322	0	1	1	0.1079	0.0500	1	1	0.850	5	82	0
110	1	323	1	1	1	0.1079	0.0500	1	1	0.583	77	0	82
110	1	324	1	2	3	0.1079	0.0500	1	1	0.533	82	82	0
110	1	325	0	1	2	0.1079	0.0500	1	1	0.609	7	82	0
110	1	326	1	2	3	0.1079	0.0500	0	1	0.540	81	0	0
110	1	327	1	1	1	0.1079	0.0500	0	1	0.534	82	0	0
110	1	328	1	1	3	0.1079	0.0500	1	1	0.548	80	0	82
110	1	329	0	2	3	0.1079	0.0500	1	1	1.086	5	0	82
110	1	330	0	1	2	0.1079	0.0500	1	0	1.605	0	82	0
110	1	331	9	2	2	0.1079	0.0500	0	1	0.615	0	0	0
110	1	332	1	2	2	0.1079	0.0500	0	1	0.574	78	0	0
110	1	333	0	1	3	0.1079	0.0500	1	1	1.116	5	82	0
110	1	334	9	1	3	0.1079	0.0500	0	1	1.066	0	0	0
110	1	335	9	2	2	0.1079	0.0500	0	1	0.760	0	0	0
110	1	336	0	1	1	0.1079	0.0500	0	1	0.673	7	82	82
110	1	337	1	1	3	0.1079	0.0500	0	1	0.618	73	0	0
110	1	338	9	2	2	0.1079	0.0500	1	1	0.968	0	0	82
110	1	339	1	2	2	0.1079	0.0500	0	0	0.738	0	0	0
110	1	340	1	1	3	0.1079	0.0500	1	0	0.721	0	0	82
110	1	341	9	1	3	0.1079	0.0500	0	1	1.015	0	82	82
110	1	342	1	1	3	0.1079	0.0500	0	1	0.585	77	0	0
110	1	343	9	2	1	0.1079	0.0500	1	1	0.646	0	82	0
110	1	344	0	1	3	0.1079	0.0500	1	0	0.856	0	82	0
110	1	345	1	2	2	0.1079	0.0500	1	1	0.596	75	82	0
110	1	346	1	2	3	0.1079	0.0500	0	0	0.654	0	0	0
110	1	347	1	2	1	0.1079	0.0500	0	1	0.726	62	0	0
110	1	348	9	1	1	0.1079	0.0500	0	1	0.773	0	0	0
110	1	349	0	1	3	0.1079	0.0500	0	1	0.895	5	82	82
110	1	350	0	1	1	0.1079	0.0500	0	1	0.612	7	82	82
110	1	351	1	1	2	0.1079	0.0500	1	1	0.950	50	0	82
110	1	352	0	1	3	0.1079	0.0500	1	1	0.938	5	82	0
110	1	353	0	1	2	0.1079	0.0500	0	0	0.686	0	82	82
110	1	354	0	2	2	0.1079	0.0500	0	1	0.959	5	82	82
110	1	355	1	1	1	0.1079	0.0500	1	1	0.594	76	0	82
110	1	356	1	1	1	0.1079	0.0500	0	1	0.666	68	0	0
110	1	357	0	1	2	0.1079	0.0500	0	1	0.899	5	82	82
110	1	358	0	1	1	0.1079	0.0500	1	1	0.815	5	82	0
110	1	359	0	2	1	0.1079	0.0500	1	1	0.899	5	0	82
110	1	360	0	1	1	0.1079	0.0500	0	1	0.714	6	82	82
110	1	361	0	1	3	0.1079	0.0500	1	1	0.806	5	82	0
110	1	362	0	2	2	0.1079	0.0500	0	0	1.364	0	82	82
110	1	363	9	1	3	0.1079	0.0500	1	1	0.505	0	0	82
110	1	364	1	2	3	0.1079	0.0500	1	1	0.676	67	82	0
110	1	365	9	2	3	0.1079	0.0500	1	1	0.662	0	82	0
110	1	366	0	1	2	0.1079	0.0500	0	0	1.090	0	82	82
110	1	367	1	1	1	0.1079	0.0500	0	0	0.955	0	0	0
110	1	368	0	2	2	0.1079	0.0500	1	1	0.701	6	0	82
110	1	369	0	2	3	0.1079	0.0500	1	1	0.789	6	0	82
110	1	370	1	1	3	0.1079	0.0500	0	1	1.036	50	0	0
110	1	371	9	2	1	0.1079	0.0500	1	1	1.201	0	82	0
110	1	372	9	2	2	0.1079	0.0500	0	0	0.636	0	82	82
110	1	373	1	1	1	0.1079	0.0500	1	0	0.814	0	0	82
110	1	374	1	1	1	0.1079	0.0500	1	1	0.759	59	0	82
110	1	375	1	2	2	0.1079	0.0500	0	1	1.051	50	0	0
110	1	376	1	2	2	0.1079	0.0500	1	1	0.833	52	82	0
110	1	377	1	2	2	0.1079	0.0500	1	1	0.635	72	82	0
110	1	378	0	2	3	0.1079	0.0500	1	1	1.066	5	0	82
110	1	379	9	2	3	0.1079	0.0500	0	0	1.042	0	82	82
110	1	380	1	1	1	0.1079	0.0500	1	1	0.791	56	0	82
110	1	381	1	2	3	0.1079	0.0500	1	1	0.686	66	82	0
110	1	382	0	1	1	0.1079	0.0500	1	0	0.921	0	82	0
110	1	383	9	1	1	0.1079	0.0500	1	1	0.509	0	0	82
110	1	384	1	1	1	0.1079	0.0500	0	1	0.624	73	0	0
110	1	385	0	2	3	0.1079	0.0500	1	1	0.903	5	0	82
110	1	386	1	1	3	0.1079	0.0500	1	0	0.794	0	0	82
110	1	387	0	2	1	0.1079	0.0500	1	1	0.825	5	0	82
110	1	388	0	1	1	0.1079	0.0500	0	1	0.614	7	82	82
110	1	389	0	2	2	0.1079	0.0500	1	1	1.115	5	0	82
110	1	390	1	1	2	0.1079	0.0500	0	1	0.631	72	0	0
110	1	391	1	2	3	0.1079	0.0500	0	1	0.789	56	0	0
110	1	392	0	1	3	0.1079	0.0500	1	1	0.563	8	82	0
110	1	393	0	2	1	0.1079	0.0500	0	0	0.769	0	82	82
110	1	394	1	2	3	0.1079	0.0500	1	1	0.970	50	82	0
110	1	395	0	2	3	0.1079	0.0500	0	1	0.708	6	82	82
110	1	396	0	1	1	0.1079	0.0500	0	0	0.677	0	82	82
110	1	397	9	2	2	0.1079	0.0500	0	1	0.660	0	0	0
110	1	398	0	1	1	0.1079	0.0500	0	1	0.818	5	82	82
110	1	399	0	1	3	0.1079	0.0500	0	1	1.043	5	82	82
110	1	400	0	2	2	0.1079	0.0500	0	1	0.932	5	82	82
110	1	401	0	1	3	0.1079	0.0500	1	1	0.763	6	82	0
110	1	402	0	2	2	0.1079	0.0500	0	1	0.692	7	82	82
110	1	403	9	1	3	0.1079	0.0500	1	1	0.767	0	0	82
110	1	404	9	2	2	0.1079	0.0500	1	1	0.513	0	0	82
110	1	405	0	1	1	0.1079	0.0500	1	1	1.109	5	82	0
110	1	406	0	2	2	0.1079	0.0500	1	1	0.577	8	0	82
110	1	407	1	1	1	0.1079	0.0500	0	1	0.677	67	0	0
110	1	408	0	2	2	0.1079	0.0500	1	0	1.798	0	0	82
110	1	409	9	1	1	0.1079	0.0500	1	1	0.880	0	82	0
110	1	410	9	2	2	0.1079	0.0500	0	0	0.623	0	82	82
110	1	411	0	1	1	0.1079	0.0500	1	1	1.305	5	82	0
110	1	412	1	1	1	0.1079	0.0500	0	1	0.659	69	0	0
110	1	413	0	1	1	0.1079	0.0500	0	1	0.559	8	82	82
110	1	414	0	1	2	0.1079	0.0500	1	1	1.813	5	82	0
110	1	415	1	1	3	0.1079	0.0500	0	0	0.789	0	0	0
110	1	416	0	1	1	0.1079	0.0500	1	1	0.778	6	82	0
110	1	417	1	1	2	0.1079	0.0500	1	1	0.710	64	0	82
110	1	418	1	1	3	0.1079	0.0500	1	1	0.544	81	0	82
110	1	419	0	1	3	0.1079	0.0500	1	1	0.646	7	82	0
110	1	420	1	2	1	0.1079	0.0500	1	1	0.972	50	82	0
110	1	421	9	1	3	0.1079	0.0500	0	1	0.670	0	82	82
110	1	422	1	2	3	0.1079	0.0500	0	1	0.942	50	0	0
110	1	423	1	1	3	0.1079	0.0500	0	1	0.600	75	0	0
110	1	424	1	1	3	0.1079	0.0500	0	1	0.558	79	0	0
110	1	425	1	1	3	0.1079	0.0500	1	1	0.693	66	0	82
110	1	426	0	2	2	0.1079	0.0500	0	1	0.840	5	82	82
110	1	427	9	2	2	0.1079	0.0500	1	1	1.189	0	0	82
110	1	428	0	1	1	0.1079	0.0500	1	1	0.871	5	82	0
110	1	429	1	1	3	0.1079	0.0500	1	1	0.892	50	0	82
110	1	430	0	1	3	0.1079	0.0500	0	0	0.970	0	82	82
110	1	431	1	1	3	0.1079	0.0500	0	1	0.698	65	0	0
110	1	432	1	1	3	0.1079	0.0500	1	1	0.795	55	0	82
110	1	433	0	2	3	0.1079	0.0500	1	1	1.046	5	0	82
110	1	434	0	1	1	0.1079	0.0500	1	1	1.236	5	82	0
110	1	435	9	2	1	0.1079	0.0500	0	0	0.741	0	82	82
110	1	436	9	1	1	0.1079	0.0500	1	1	0.711	0	0	82
110	1	437	9	2	3	0.1079	0.0500	1	1	0.693	0	0	82
110	1	438	1	1	1	0.1079	0.0500	0	1	0.657	69	0	0
110	1	439	0	2	2	0.1079	0.0500	1	1	0.747	6	0	82
110	1	440	1	1	3	0.1079	0.0500	1	1	0.838	51	0	82
110	1	441	0	2	2	0.1079	0.0500	1	1	0.557	8	0	82
110	1	442	0	1	3	0.1079	0.0500	0	1	0.527	8	82	82
110	1	443	1	2	2	0.1079	0.0500	0	0	0.600	0	0	0
110	1	444	0	2	2	0.1079	0.0500	0	0	0.780	0	82	82
110	1	445	0	2	2	0.1079	0.0500	0	1	0.653	7	82	82
110	1	446	1	2	3	0.1079	0.0500	1	1	2.182	50	82	0
110	1	447	9	1	3	0.1079	0.0500	1	0	0.759	0	0	82
110	1	448	1	1	3	0.1079	0.0500	1	1	0.585	77	0	82
110	1	449	1	2	2	0.1079	0.0500	0	1	0.695	65	0	0
110	1	450	0	1	3	0.1079	0.0500	1	1	1.488	5	82	0
110	1	451	1	2	3	0.1079	0.0500	0	0	0.769	0	0	0
110	1	452	1	1	3	0.1079	0.0500	1	0	0.859	0	0	82
110	1	453	0	2	2	0.1079	0.0500	1	1	0.841	5	0	82
110	1	454	1	1	3	0.1079	0.0500	0	1	1.270	50	0	0
110	1	455	1	2	2	0.1079	0.0500	0	1	0.938	50	0	0
110	1	456	1	1	3	0.1079	0.0500	1	1	1.412	50	0	82
110	1	457	1	1	2	0.1079	0.0500	0	1	0.589	76	0	0
110	1	458	0	1	3	0.1079	0.0500	0	1	0.640	7	82	82
110	1	459	0	1	1	0.1079	0.0500	0	0	0.721	0	82	82
110	1	460	1	1	3	0.1079	0.0500	0	1	0.625	72	0	0
110	1	461	0	2	3	0.1079	0.0500	1	1	0.667	7	0	82
110	1	462	0	1	2	0.1079	0.0500	0	1	0.683	7	82	82
110	1	463	0	2	1	0.1079	0.0500	1	0	1.012	0	0	82
110	1	464	0	2	2	0.1079	0.0500	0	1	0.955	5	82	82
110	1	465	0	1	3	0.1079	0.0500	0	1	0.718	6	82	82
110	1	466	9	2	3	0.1079	0.0500	1	1	1.151	0	0	82
110	1	467	9	1	2	0.1079	0.0500	1	0	0.883	0	82	0
110	1	468	9	2	2	0.1079	0.0500	1	1	0.837	0	0	82
110	1	469	0	1	3	0.1079	0.0500	1	1	0.941	5	82	0
110	1	470	0	1	3	0.1079	0.0500	1	1	2.385	5	82	0
110	1	471	1	1	1	0.1079	0.0500	0	1	0.745	61	0	0
110	1	472	0	1	1	0.1079	0.0500	1	1	1.051	5	82	0
110	1	473	1	2	1	0.1079	0.0500	1	0	1.149	0	82	0
110	1	474	1	1	1	0.1079	0.0500	0	1	0.584	77	0	0
110	1	475	0	2	3	0.1079	0.0500	1	1	0.720	6	0	82
110	1	476	1	1	1	0.1079	0.0500	1	0	0.657	0	0	82
110	1	477	0	1	3	0.1079	0.0500	0	1	0.703	6	82	82
110	1	478	1	2	2	0.1079	0.0500	1	0	0.775	0	82	0
110	1	479	1	1	3	0.1079	0.0500	1	1	0.526	82	0	82
110	1	480	1	1	1	0.1079	0.0500	1	1	0.480	87	0	82
110	1	481	0	2	2	0.1079	0.0500	1	0	0.945	0	0	82
110	1	482	9	2	2	0.1079	0.0500	0	1	1.145	0	0	0
110	1	483	0	2	1	0.1079	0.0500	0	0	0.734	0	82	82
110	1	484	9	1	3	0.1079	0.0500	0	0	0.803	0	0	0
110	1	485	0	1	3	0.1079	0.0500	0	1	0.602	7	82	82
110	1	486	1	2	3	0.1079	0.0500	1	1	0.634	72	82	0
110	1	487	9	1	3	0.1079	0.0500	1	1	0.496	0	0	82
110	1	488	9	1	1	0.1079	0.0500	1	1	0.473	0	0	82
110	1	489	0	1	3	0.1079	0.0500	0	1	0.698	7	82	82
110	1	490	1	2	1	0.1079	0.0500	0	1	0.632	72	0	0
110	1	491	0	1	1	0.1079	0.0500	0	1	0.470	9	82	82
110	1	492	1	2	2	0.1079	0.0500	0	1	0.788	56	0	0
110	1	493	0	2	2	0.1079	0.0500	1	1	0.630	7	0	82
110	1	494	0	1	1	0.1079	0.0500	0	1	0.614	7	82	82
110	1	495	0	1	3	0.1079	0.0500	1	1	0.866	5	82	0
110	1	496	9	2	3	0.1079	0.0500	1	1	0.546	0	0	82
110	1	497	9	1	1	0.1079	0.0500	1	1	0.642	0	82	0
110	1	498	1	1	3	0.1079	0.0500	0	1	0.657	69	0	0
110	1	499	1	2	2	0.1079	0.0500	1	1	0.649	70	82	0
110	1	500	1	1	2	0.1079	0.0500	0	1	0.630	72	0	0
110	1	501	0	2	1	0.1079	0.0500	0	0	0.584	0	82	82
110	1	502	1	2	3	0.1079	0.0500	1	1	0.895	50	82	0
110	1	503	9	2	3	0.1079	0.0500	0	1	0.792	0	82	82
110	1	504	1	2	2	0.1079	0.0500	0	0	0.560	0	0	0
110	1	505	1	2	2	0.1079	0.0500	1	1	0.448	90	82	0
110	1	506	0	1	1	0.1079	0.0500	1	1	0.581	8	82	0
110	1	507	1	2	2	0.1079	0.0500	1	1	0.834	52	82	0
110	1	508	0	2	3	0.1079	0.0500	1	1	0.471	9	0	82
110	1	509	9	2	2	0.1079	0.0500	1	1	0.536	0	82	0
110	1	510	1	1	2	0.1079	0.0500	0	0	0.763	0	0	0
110	1	511	9	2	1	0.1079	0.0500	0	0	0.820	0	0	0
110	1	512	1	2	3	0.1079	0.0500	0	0	0.752	0	0	0
110	1	513	1	2	3	0.1079	0.0500	0	1	0.850	50	0	0
110	1	514	1	2	3	0.1079	0.0500	1	1	0.744	61	82	0
110	1	515	9	1	1	0.1079	0.0500	0	0	1.255	0	0	0
110	1	516	0	2	2	0.1079	0.0500	1	1	1.012	5	0	82
110	1	517	1	2	3	0.1079	0.0500	0	0	0.762	0	0	0
110	1	518	0	2	2	0.1079	0.0500	0	0	0.638	0	82	82
110	1	519	0	2	3	0.1079	0.0500	0	0	0.613	0	82	82
110	1	520	9	2	3	0.1079	0.0500	1	1	0.648	0	82	0
110	1	521	9	1	1	0.1079	0.0500	0	0	0.569	0	0	0
110	1	522	9	2	3	0.1079	0.0500	0	1	0.547	0	0	0
110	1	523	0	1	3	0.1079	0.0500	1	1	0.547	8	82	0
110	1	524	1	1	1	0.1079	0.0500	0	1	0.646	70	0	0
110	1	525	9	1	1	0.1079	0.0500	0	1	0.561	0	0	0
110	1	526	0	2	2	0.1079	0.0500	1	1	0.775	6	0	82
110	1	527	0	1	3	0.1079	0.0500	0	1	0.701	6	82	82
110	1	528	1	1	1	0.1079	0.0500	1	1	0.683	67	0	82
110	1	529	0	2	2	0.1079	0.0500	1	1	0.677	7	0	82
110	1	530	9	2	2	0.1079	0.0500	1	1	0.612	0	0	82
110	1	531	0	2	3	0.1079	0.0500	0	1	0.875	5	82	82
110	1	532	0	1	1	0.1079	0.0500	0	0	0.979	0	82	82
110	1	533	1	1	2	0.1079	0.0500	1	1	1.166	50	0	82
110	1	534	9	1	3	0.1079	0.0500	0	1	0.761	0	82	82
110	1	535	0	1	1	0.1079	0.0500	0	1	0.535	8	82	82
110	1	536	0	1	3	0.1079	0.0500	1	1	0.601	7	82	0
110	1	537	9	2	2	0.1079	0.0500	0	0	0.602	0	82	82
110	1	538	0	2	2	0.1079	0.0500	0	1	0.700	7	82	82
110	1	539	1	2	3	0.1079	0.0500	0	1	1.135	50	0	0
110	1	540	0	1	3	0.1079	0.0500	1	1	0.699	7	82	0
110	1	541	0	1	1	0.1079	0.0500	0	1	0.520	8	82	82
110	1	542	1	2	2	0.1079	0.0500	1	1	0.541	81	82	0
110	1	543	1	1	1	0.1079	0.0500	1	1	0.537	81	0	82
110	1	544	1	2	2	0.1079	0.0500	0	0	0.544	0	0	0
110	1	545	9	1	1	0.1079	0.0500	0	0	0.631	0	82	82
110	1	546	9	1	1	0.1079	0.0500	0	0	0.309	0	0	0
110	1	547	1	2	2	0.1079	0.0500	0	0	0.481	0	0	0
110	1	548	9	2	3	0.1079	0.0500	1	1	0.793	0	82	0
110	1	549	1	2	3	0.1079	0.0500	0	1	0.579	77	0	0
110	1	550	0	1	2	0.1079	0.0500	1	1	0.724	6	82	0
110	1	551	9	2	3	0.1079	0.0500	1	1	0.700	0	0	82
110	1	552	1	2	3	0.1079	0.0500	0	0	0.787	0	0	0
110	1	553	0	2	2	0.1079	0.0500	0	0	0.589	0	82	82
110	1	554	1	2	2	0.1079	0.0500	1	1	0.512	84	82	0
110	1	555	0	2	3	0.1079	0.0500	1	1	0.798	6	0	82
110	1	556	1	2	3	0.1079	0.0500	1	1	0.414	94	82	0
110	1	557	0	1	1	0.1079	0.0500	1	1	0.862	5	82	0
110	1	558	0	1	2	0.1079	0.0500	1	1	0.549	8	82	0
110	1	559	1	1	1	0.1079	0.0500	1	1	0.512	84	0	82
110	1	560	9	1	1	0.1079	0.0500	1	1	0.598	0	82	0
110	1	561	1	2	3	0.1079	0.0500	1	1	0.681	67	82	0
110	1	562	1	2	2	0.1079	0.0500	1	1	0.436	91	82	0
110	1	563	1	2	1	0.1079	0.0500	0	0	0.641	0	0	0
110	1	564	0	1	1	0.1079	0.0500	1	1	0.602	7	82	0
110	1	565	0	1	3	0.1079	0.0500	0	0	0.507	0	82	82
110	1	566	9	2	2	0.1079	0.0500	1	1	0.610	0	82	0
110	1	567	1	1	1	0.1079	0.0500	0	1	0.680	67	0	0
110	1	568	1	2	2	0.1079	0.0500	1	1	0.476	87	82	0
110	1	569	0	1	1	0.1079	0.0500	0	1	0.489	9	82	82
110	1	570	0	1	1	0.1079	0.0500	0	0	0.474	0	82	82
110	1	571	1	1	3	0.1079	0.0500	0	1	0.407	94	0	0
110	1	572	1	2	3	0.1079	0.0500	0	1	0.532	82	0	0
110	1	573	1	1	2	0.1079	0.0500	1	0	0.751	0	0	82
110	1	574	1	1	3	0.1079	0.0500	0	1	0.517	83	0	0
110	1	575	0	1	1	0.1079	0.0500	1	0	0.702	0	82	0
110	1	576	1	2	2	0.1079	0.0500	0	0	0.854	0	0	0
110	1	577	1	2	3	0.1079	0.0500	1	0	0.662	0	82	0
110	1	578	0	2	3	0.1079	0.0500	0	1	0.628	7	82	82
110	1	579	1	2	3	0.1079	0.0500	1	1	0.560	79	82	0
110	1	580	0	1	1	0.1079	0.0500	1	1	0.521	8	82	0
110	1	581	0	2	2	0.1079	0.0500	0	0	0.696	0	82	82
110	1	582	0	2	3	0.1079	0.0500	1	1	0.805	5	0	82
110	1	583	1	1	3	0.1079	0.0500	1	1	0.500	85	0	82
110	1	584	1	1	1	0.1079	0.0500	0	1	0.574	78	0	0
110	1	585	0	2	3	0.1079	0.0500	0	0	0.645	0	82	82
110	1	586	0	1	1	0.1079	0.0500	0	1	0.535	8	82	82
110	1	587	0	1	3	0.1079	0.0500	1	1	0.518	8	82	0
110	1	588	1	1	1	0.1079	0.0500	1	1	0.668	68	0	82
110	1	589	1	2	2	0.1079	0.0500	0	1	0.820	53	0	0
110	1	590	0	2	3	0.1079	0.0500	1	1	1.039	5	0	82
110	1	591	1	2	3	0.1079	0.0500	1	1	0.576	77	82	0
110	1	592	0	1	3	0.1079	0.0500	0	1	0.676	7	82	82
110	1	593	1	2	1	0.1079	0.0500	0	0	0.714	0	0	0
110	1	594	0	2	2	0.1079	0.0500	0	1	0.729	6	82	82
110	1	595	0	2	3	0.1079	0.0500	1	0	0.494	0	0	82
110	1	596	0	1	3	0.1079	0.0500	1	1	0.596	8	82	0
110	1	597	1	1	1	0.1079	0.0500	0	1	0.556	79	0	0
110	1	598	0	2	2	0.1079	0.0500	1	1	0.512	8	0	82
110	1	599	1	2	3	0.1079	0.0500	1	1	0.547	80	82	0
110	1	600	1	2	2	0.1079	0.0500	0	0	0.665	0	0	0
110	1	601	1	1	1	0.1079	0.0500	0	1	0.545	81	0	0
110	1	602	0	2	3	0.1079	0.0500	1	1	0.641	7	0	82
110	1	603	0	2	3	0.1079	0.0500	0	0	0.578	0	82	82
110	1	604	0	2	3	0.1079	0.0500	0	1	0.605	7	82	82
110	1	605	1	2	3	0.1079	0.0500	0	0	0.630	0	0	0
110	1	606	9	1	1	0.1079	0.0500	0	1	0.526	0	82	82
110	1	607	0	2	2	0.1079	0.0500	0	0	0.573	0	82	82
110	1	608	1	1	3	0.1079	0.0500	0	1	0.551	80	0	0
110	1	609	0	2	2	0.1079	0.0500	0	0	0.555	0	82	82
110	1	610	9	1	3	0.1079	0.0500	1	1	0.752	0	82	0
110	1	611	1	1	1	0.1079	0.0500	1	1	0.613	74	0	82
110	1	612	9	1	2	0.1079	0.0500	1	1	0.917	0	0	82
110	1	613	0	2	3	0.1079	0.0500	0	0	0.592	0	82	82
110	1	614	9	1	1	0.1079	0.0500	0	0	0.757	0	82	82
110	1	615	1	2	2	0.1079	0.0500	1	1	0.563	79	82	0
110	1	616	1	1	1	0.1079	0.0500	0	1	0.639	71	0	0
110	1	617	0	2	1	0.1079	0.0500	1	1	0.684	7	0	82
110	1	618	0	2	3	0.1079	0.0500	0	1	0.902	5	82	82
110	1	619	0	2	3	0.1079	0.0500	1	1	0.637	7	0	82
110	1	620	0	2	3	0.1079	0.0500	0	0	0.672	0	82	82
110	1	621	0	2	2	0.1079	0.0500	1	1	0.508	8	0	82
110	1	622	9	1	3	0.1079	0.0500	0	0	0.529	0	0	0
110	1	623	0	1	1	0.1079	0.0500	1	1	0.580	8	82	0
110	1	624	0	2	2	0.1079	0.0500	1	1	0.545	8	0	82
110	1	625	9	2	1	0.1079	0.0500	1	1	0.532	0	0	82
110	1	626	0	2	2	0.1079	0.0500	0	0	0.646	0	82	82
110	1	627	0	1	1	0.1079	0.0500	1	0	0.700	0	82	0
110	1	628	9	1	2	0.1079	0.0500	0	1	0.675	0	0	0
110	1	629	0	1	3	0.1079	0.0500	0	1	0.713	6	82	82
110	1	630	0	2	3	0.1079	0.0500	0	1	0.741	6	82	82
110	1	631	0	2	2	0.1079	0.0500	1	0	0.946	0	0	82
110	1	632	1	1	3	0.1079	0.0500	1	1	0.593	76	0	82
110	1	633	0	1	3	0.1079	0.0500	0	0	1.114	0	82	82
110	1	634	9	2	3	0.1079	0.0500	0	0	0.814	0	0	0
110	1	635	0	1	1	0.1079	0.0500	0	1	0.493	9	82	82
110	1	636	0	2	3	0.1079	0.0500	1	1	0.993	5	0	82
110	1	637	0	2	1	0.1079	0.0500	0	1	0.716	6	82	82
110	1	638	0	2	3	0.1079	0.0500	0	0	1.307	0	82	82
110	1	639	0	1	3	0.1079	0.0500	1	0	0.669	0	82	0
110	1	640	1	2	3	0.1079	0.0500	0	1	0.767	58	0	0
110	1	641	1	1	1	0.1079	0.0500	1	1	0.622	73	0	82
110	1	642	1	2	3	0.1079	0.0500	0	1	0.552	80	0	0
110	1	643	0	1	2	0.1079	0.0500	0	1	0.754	6	82	82
110	1	644	0	2	3	0.1079	0.0500	0	1	0.773	6	82	82
110	1	645	0	2	3	0.1079	0.0500	0	0	0.620	0	82	82
110	1	646	9	2	2	0.1079	0.0500	0	1	0.799	0	82	82
110	1	647	9	1	2	0.1079	0.0500	0	1	0.577	0	82	82
110	1	648	9	1	3	0.1079	0.0500	1	1	0.582	0	82	0
110	1	649	1	1	1	0.1079	0.0500	1	1	0.452	90	0	82
110	1	650	0	1	1	0.1079	0.0500	0	1	0.468	9	82	82
110	1	651	1	2	3	0.1079	0.0500	0	1	0.540	81	0	0
110	1	652	1	2	2	0.1079	0.0500	1	1	0.503	85	82	0
110	1	653	0	1	2	0.1079	0.0500	0	0	0.706	0	82	82
110	1	654	1	1	1	0.1079	0.0500	1	1	0.516	83	0	82
110	1	655	1	2	2	0.1079	0.0500	1	1	0.691	66	82	0
110	1	656	9	2	3	0.1079	0.0500	0	1	0.642	0	82	82
110	1	657	0	1	3	0.1079	0.0500	1	1	0.940	5	82	0
110	1	658	1	2	3	0.1079	0.0500	0	1	0.620	73	0	0
110	1	659	1	1	3	0.1079	0.0500	0	0	1.058	0	0	0
110	1	660	0	2	1	0.1079	0.0500	1	1	0.611	7	0	82
110	1	661	1	1	3	0.1079	0.0500	0	0	0.739	0	0	0
110	1	662	9	1	1	0.1079	0.0500	0	1	0.635	0	82	82
110	1	663	1	1	3	0.1079	0.0500	0	1	0.581	77	0	0
110	1	664	1	2	1	0.1079	0.0500	1	1	0.897	50	82	0
110	1	665	1	2	2	0.1079	0.0500	0	0	0.704	0	0	0
110	1	666	1	2	2	0.1079	0.0500	1	1	0.580	77	82	0
110	1	667	0	1	2	0.1079	0.0500	1	1	0.768	6	82	0
110	1	668	9	2	2	0.1079	0.0500	1	1	0.541	0	82	0
110	1	669	9	1	3	0.1079	0.0500	0	1	0.470	0	0	0
110	1	670	9	2	3	0.1079	0.0500	0	1	0.731	0	82	82
110	1	671	1	1	1	0.1079	0.0500	1	1	0.529	82	0	82
110	1	672	0	2	3	0.1079	0.0500	0	0	0.709	0	82	82
110	1	673	1	2	2	0.1079	0.0500	0	1	0.648	70	0	0
110	1	674	9	2	2	0.1079	0.0500	0	1	0.562	0	0	0
110	1	675	1	2	2	0.1079	0.0500	1	0	0.635	0	82	0
110	1	676	1	2	2	0.1079	0.0500	0	1	0.694	66	0	0
110	1	677	1	2	2	0.1079	0.0500	0	1	0.675	67	0	0
110	1	678	1	2	3	0.1079	0.0500	1	1	0.528	82	82	0
110	1	679	0	2	3	0.1079	0.0500	1	1	0.857	5	0	82
110	1	680	1	1	1	0.1079	0.0500	0	1	0.599	75	0	0
110	1	681	1	2	2	0.1079	0.0500	0	0	0.537	0	0	0
110	1	682	1	2	1	0.1079	0.0500	1	1	0.713	64	82	0
110	1	683	9	1	3	0.1079	0.0500	0	0	0.585	0	82	82
110	1	684	9	2	2	0.1079	0.0500	0	1	0.739	0	0	0
110	1	685	1	2	3	0.1079	0.0500	1	1	0.712	64	82	0
110	1	686	1	1	3	0.1079	0.0500	1	0	0.813	0	0	82
110	1	687	9	1	3	0.1079	0.0500	0	1	0.777	0	0	0
110	1	688	1	1	3	0.1079	0.0500	1	1	0.513	84	0	82
110	1	689	0	1	1	0.1079	0.0500	0	1	0.823	5	82	82
110	1	690	0	1	3	0.1079	0.0500	0	1	0.755	6	82	82
110	1	691	0	2	2	0.1079	0.0500	0	0	0.676	0	82	82
110	1	692	1	1	1	0.1079	0.0500	1	1	0.475	88	0	82
110	1	693	1	1	1	0.1079	0.0500	0	1	0.599	75	0	0
110	1	694	1	2	3	0.1079	0.0500	0	1	1.137	50	0	0
110	1	695	0	1	3	0.1079	0.0500	1	1	0.516	8	82	0
110	1	696	1	1	1	0.1079	0.0500	1	0	0.518	0	0	82
110	1	697	1	2	1	0.1079	0.0500	0	1	0.793	56	0	0
110	1	698	9	1	3	0.1079	0.0500	1	0	0.556	0	82	0
110	1	699	1	2	3	0.1079	0.0500	1	0	0.813	0	82	0
110	1	700	9	1	1	0.1079	0.0500	1	1	0.416	0	0	82
110	1	701	9	1	1	0.1079	0.0500	1	1	0.507	0	82	0
110	1	702	1	1	3	0.1079	0.0500	0	1	0.489	86	0	0
110	1	703	9	2	3	0.1079	0.0500	1	1	0.525	0	82	0
110	1	704	9	1	3	0.1079	0.0500	0	0	0.672	0	82	82
110	1	705	9	2	3	0.1079	0.0500	0	0	0.638	0	0	0
110	1	706	9	1	3	0.1079	0.0500	1	1	0.597	0	82	0
110	1	707	0	1	1	0.1079	0.0500	1	1	0.599	8	82	0
110	1	708	1	1	3	0.1079	0.0500	1	1	0.508	84	0	82
110	1	709	1	1	3	0.1079	0.0500	1	1	0.410	94	0	82
110	1	710	1	1	3	0.1079	0.0500	0	1	0.605	74	0	0
110	1	711	0	1	3	0.1079	0.0500	0	1	0.519	8	82	82
110	1	712	1	1	1	0.1079	0.0500	0	1	0.484	87	0	0
110	1	713	9	2	2	0.1079	0.0500	1	1	0.766	0	82	0
110	1	714	1	2	2	0.1079	0.0500	1	1	0.487	86	82	0
110	1	715	0	2	3	0.1079	0.0500	0	0	0.614	0	82	82
110	1	716	0	1	3	0.1079	0.0500	0	0	0.616	0	82	82
110	1	717	0	1	1	0.1079	0.0500	1	0	1.036	0	82	0
110	1	718	1	1	2	0.1079	0.0500	1	1	2.020	50	0	82
110	1	719	9	2	3	0.1079	0.0500	0	0	0.570	0	0	0
110	1	720	0	2	3	0.1079	0.0500	1	1	0.540	8	0	82
