sub	sess	t	loc	cue	co1	co2	or	resp	rt
110	1	1	2	2	0.1079	0.0500	1	1	2.710
110	1	2	1	1	0.1079	0.0500	0	1	1.855
110	1	3	1	1	0.1079	0.0500	1	1	1.423
110	1	4	1	2	0.1079	0.0500	1	1	1.737
110	1	5	2	2	0.1079	0.0500	0	1	1.161
110	1	6	1	3	0.1079	0.0500	1	1	1.674
110	1	7	1	1	0.1079	0.0500	1	1	1.001
110	1	8	1	1	0.1079	0.0500	0	0	1.235
110	1	9	2	2	0.1079	0.0500	0	1	1.037
110	1	10	2	1	0.1079	0.0500	1	1	1.666
110	1	11	1	3	0.1079	0.0500	1	1	1.436
110	1	12	2	3	0.1079	0.0500	0	0	1.674
110	1	13	2	3	0.1079	0.0500	1	1	0.901
110	1	14	1	1	0.1079	0.0500	1	1	1.344
110	1	15	1	1	0.1079	0.0500	0	1	1.084
110	1	16	2	1	0.1079	0.0500	1	1	0.959
110	1	17	2	3	0.1079	0.0500	0	1	2.254
110	1	18	1	1	0.1079	0.0500	1	1	1.487
110	1	19	1	1	0.1079	0.0500	0	0	1.009
110	1	20	1	1	0.1079	0.0500	0	1	0.965
110	1	21	1	3	0.1079	0.0500	0	1	1.064
110	1	22	2	3	0.1079	0.0500	0	1	2.950
110	1	23	1	3	0.1079	0.0500	0	1	1.111
110	1	24	2	3	0.1079	0.0500	1	1	1.078
110	1	25	2	2	0.1079	0.0500	1	1	1.381
110	1	26	2	2	0.1079	0.0500	0	1	0.877
110	1	27	1	1	0.1079	0.0500	0	1	1.266
110	1	28	1	1	0.1079	0.0500	1	1	0.884
110	1	29	1	1	0.1079	0.0500	0	1	1.775
110	1	30	2	2	0.1079	0.0500	0	1	1.379
110	1	31	1	2	0.1079	0.0500	1	1	1.186
110	1	32	2	3	0.1079	0.0500	1	1	0.872
110	1	33	2	2	0.1079	0.0500	0	0	1.283
110	1	34	2	2	0.1079	0.0500	1	1	1.200
110	1	35	2	1	0.1079	0.0500	0	0	2.050
110	1	36	2	2	0.1079	0.0500	1	1	1.075
110	1	37	1	1	0.1079	0.0500	0	1	0.796
110	1	38	1	2	0.1079	0.0500	0	1	0.751
110	1	39	2	2	0.1079	0.0500	1	1	1.799
110	1	40	1	3	0.1079	0.0500	0	1	0.865
110	1	41	1	3	0.1079	0.0500	1	1	1.037
110	1	42	2	2	0.1079	0.0500	1	1	0.926
110	1	43	2	2	0.1079	0.0500	0	0	1.047
110	1	44	1	1	0.1079	0.0500	1	1	2.721
110	1	45	1	3	0.1079	0.0500	0	1	0.794
110	1	46	1	3	0.1079	0.0500	1	1	1.726
110	1	47	2	2	0.1079	0.0500	0	1	0.839
110	1	48	2	3	0.1079	0.0500	0	0	0.880
110	1	49	2	1	0.1079	0.0500	0	1	0.996
110	1	50	1	2	0.1079	0.0500	0	1	1.244
110	1	51	1	1	0.1079	0.0500	1	1	0.907
110	1	52	2	3	0.1079	0.0500	1	1	0.944
110	1	53	2	2	0.1079	0.0500	1	1	1.156
110	1	54	1	1	0.1079	0.0500	1	1	0.944
110	1	55	2	2	0.1079	0.0500	0	1	0.878
110	1	56	2	2	0.1079	0.0500	1	1	0.655
110	1	57	1	3	0.1079	0.0500	0	0	2.236
110	1	58	1	1	0.1079	0.0500	1	1	1.256
110	1	59	2	2	0.1079	0.0500	0	1	1.575
110	1	60	2	2	0.1079	0.0500	1	1	0.615
110	1	61	2	2	0.1079	0.0500	1	1	0.998
110	1	62	1	2	0.1079	0.0500	0	1	0.705
110	1	63	1	3	0.1079	0.0500	1	1	0.732
110	1	64	2	2	0.1079	0.0500	0	1	0.578
110	1	65	1	1	0.1079	0.0500	0	1	0.917
110	1	66	1	2	0.1079	0.0500	1	0	1.175
110	1	67	2	2	0.1079	0.0500	1	0	2.349
110	1	68	1	1	0.1079	0.0500	1	1	1.362
110	1	69	1	1	0.1079	0.0500	0	1	2.489
110	1	70	2	2	0.1079	0.0500	0	0	2.115
110	1	71	2	2	0.1079	0.0500	1	1	1.864
110	1	72	2	2	0.1079	0.0500	0	1	1.596
110	1	73	2	1	0.1079	0.0500	1	1	1.110
110	1	74	1	1	0.1079	0.0500	1	1	1.187
110	1	75	1	2	0.1079	0.0500	0	1	0.785
110	1	76	2	3	0.1079	0.0500	1	1	0.837
110	1	77	2	2	0.1079	0.0500	1	1	1.758
110	1	78	2	2	0.1079	0.0500	1	0	1.231
110	1	79	2	2	0.1079	0.0500	0	1	1.350
110	1	80	2	2	0.1079	0.0500	0	0	1.054
110	1	81	1	1	0.1079	0.0500	1	1	0.942
110	1	82	1	1	0.1079	0.0500	1	1	0.521
110	1	83	2	2	0.1079	0.0500	1	1	0.840
110	1	84	1	1	0.1079	0.0500	0	1	1.093
110	1	85	2	2	0.1079	0.0500	1	1	0.683
110	1	86	2	3	0.1079	0.0500	0	1	1.033
110	1	87	2	1	0.1079	0.0500	0	1	1.195
110	1	88	1	1	0.1079	0.0500	0	1	0.996
110	1	89	2	2	0.1079	0.0500	0	1	1.032
110	1	90	1	1	0.1079	0.0500	0	1	0.671
110	1	91	1	1	0.1079	0.0500	0	0	1.038
110	1	92	1	3	0.1079	0.0500	0	1	1.052
110	1	93	1	3	0.1079	0.0500	0	1	0.728
110	1	94	1	3	0.1079	0.0500	1	1	1.227
110	1	95	2	3	0.1079	0.0500	0	1	1.889
110	1	96	2	3	0.1079	0.0500	0	1	1.627
110	1	97	1	3	0.1079	0.0500	1	0	1.307
110	1	98	1	1	0.1079	0.0500	1	1	0.791
110	1	99	2	3	0.1079	0.0500	1	1	1.046
110	1	100	1	3	0.1079	0.0500	1	1	1.082
110	1	101	2	3	0.1079	0.0500	1	1	0.698
110	1	102	1	3	0.1079	0.0500	0	1	1.589
110	1	103	2	2	0.1079	0.0500	0	0	1.000
110	1	104	2	1	0.1079	0.0500	1	1	0.681
110	1	105	1	2	0.1079	0.0500	1	1	1.955
110	1	106	2	3	0.1079	0.0500	0	1	0.942
110	1	107	1	1	0.1079	0.0500	0	1	1.073
110	1	108	1	1	0.1079	0.0500	1	0	0.935
110	1	109	1	1	0.1079	0.0500	1	1	0.744
110	1	110	2	1	0.1079	0.0500	0	1	0.983
110	1	111	1	1	0.1079	0.0500	0	1	0.931
110	1	112	2	3	0.1079	0.0500	1	1	0.827
