sub	sess	t	rew	loc	cue	co1	co2	or	resp	rt	rew_tot	left_col	right_col
33	1	1	0	1	3	0.0864	0.0500	0	1	0.803	5	0	0
33	1	2	1	2	2	0.0864	0.0500	1	1	0.591	76	0	82
33	1	3	0	2	3	0.0864	0.0500	1	0	0.584	0	82	0
33	1	4	0	1	3	0.0864	0.0500	0	1	0.591	8	0	0
33	1	5	1	2	3	0.0864	0.0500	0	1	0.686	66	82	82
33	1	6	1	2	3	0.0864	0.0500	1	1	0.545	81	0	82
33	1	7	0	1	1	0.0864	0.0500	0	1	0.509	8	0	0
33	1	8	1	1	1	0.0864	0.0500	1	1	0.679	67	82	0
33	1	9	1	1	1	0.0864	0.0500	1	1	0.552	80	82	0
33	1	10	1	1	3	0.0864	0.0500	1	1	0.555	79	82	0
33	1	11	1	1	2	0.0864	0.0500	1	1	0.705	64	82	0
33	1	12	0	1	1	0.0864	0.0500	0	1	0.567	8	0	0
33	1	13	9	1	1	0.0864	0.0500	0	1	0.547	0	82	82
33	1	14	1	2	3	0.0864	0.0500	1	1	0.545	81	0	82
33	1	15	1	2	2	0.0864	0.0500	1	1	0.533	82	0	82
33	1	16	1	2	2	0.0864	0.0500	0	1	0.542	81	82	82
33	1	17	9	1	1	0.0864	0.0500	1	1	0.440	0	82	0
33	1	18	1	1	3	0.0864	0.0500	0	1	0.623	73	82	82
33	1	19	1	2	3	0.0864	0.0500	1	1	0.527	82	0	82
33	1	20	1	2	3	0.0864	0.0500	1	1	0.540	81	0	82
33	1	21	9	1	3	0.0864	0.0500	1	1	0.543	0	82	0
33	1	22	0	1	1	0.0864	0.0500	0	1	0.592	8	0	0
33	1	23	0	1	2	0.0864	0.0500	0	0	0.586	0	0	0
33	1	24	0	2	1	0.0864	0.0500	1	1	0.587	8	82	0
33	1	25	0	1	3	0.0864	0.0500	1	1	0.586	8	0	82
33	1	26	1	1	2	0.0864	0.0500	1	1	0.526	82	82	0
33	1	27	1	2	1	0.0864	0.0500	0	1	0.523	83	82	82
33	1	28	1	2	3	0.0864	0.0500	0	1	0.501	85	82	82
33	1	29	0	1	3	0.0864	0.0500	0	0	0.560	0	0	0
33	1	30	1	1	1	0.0864	0.0500	0	1	0.525	83	82	82
33	1	31	1	1	1	0.0864	0.0500	1	1	0.394	96	82	0
33	1	32	1	1	1	0.0864	0.0500	0	1	0.532	82	82	82
33	1	33	0	1	3	0.0864	0.0500	0	1	0.539	8	0	0
33	1	34	0	2	2	0.0864	0.0500	0	1	0.431	9	0	0
33	1	35	0	1	1	0.0864	0.0500	1	1	0.545	8	0	82
33	1	36	9	1	1	0.0864	0.0500	1	1	0.557	0	82	0
33	1	37	1	2	2	0.0864	0.0500	0	1	0.495	86	82	82
33	1	38	0	2	3	0.0864	0.0500	0	1	0.535	8	0	0
33	1	39	1	1	3	0.0864	0.0500	1	1	0.617	73	82	0
33	1	40	0	2	2	0.0864	0.0500	1	0	0.478	0	82	0
33	1	41	1	2	2	0.0864	0.0500	0	1	0.533	82	82	82
33	1	42	9	1	2	0.0864	0.0500	0	0	0.564	0	82	82
33	1	43	1	1	3	0.0864	0.0500	0	1	0.536	81	82	82
33	1	44	0	2	3	0.0864	0.0500	1	0	0.722	0	82	0
33	1	45	0	1	1	0.0864	0.0500	0	1	0.525	8	0	0
33	1	46	0	2	3	0.0864	0.0500	0	1	0.435	9	0	0
33	1	47	0	1	3	0.0864	0.0500	1	0	0.559	0	0	82
33	1	48	0	2	2	0.0864	0.0500	0	1	0.559	8	0	0
33	1	49	0	2	2	0.0864	0.0500	1	1	0.592	8	82	0
33	1	50	9	2	3	0.0864	0.0500	0	1	0.621	0	0	0
33	1	51	9	1	1	0.0864	0.0500	0	1	0.557	0	82	82
33	1	52	0	2	3	0.0864	0.0500	0	1	0.542	8	0	0
33	1	53	1	1	2	0.0864	0.0500	0	1	0.525	83	82	82
33	1	54	1	1	1	0.0864	0.0500	1	0	0.570	0	82	0
33	1	55	0	2	2	0.0864	0.0500	1	1	0.668	7	82	0
33	1	56	1	2	3	0.0864	0.0500	0	1	0.622	73	82	82
33	1	57	1	2	2	0.0864	0.0500	1	1	0.550	80	0	82
33	1	58	9	2	2	0.0864	0.0500	1	1	0.650	0	82	0
33	1	59	9	2	2	0.0864	0.0500	1	1	0.542	0	0	82
33	1	60	9	1	2	0.0864	0.0500	1	1	0.575	0	0	82
33	1	61	1	1	1	0.0864	0.0500	0	1	0.625	72	82	82
33	1	62	0	2	2	0.0864	0.0500	0	1	0.533	8	0	0
33	1	63	9	1	1	0.0864	0.0500	1	1	0.444	0	82	0
33	1	64	0	2	3	0.0864	0.0500	0	1	0.507	8	0	0
33	1	65	1	1	3	0.0864	0.0500	0	1	0.522	83	82	82
33	1	66	0	2	3	0.0864	0.0500	0	1	0.551	8	0	0
33	1	67	1	1	3	0.0864	0.0500	1	1	0.718	63	82	0
33	1	68	0	2	2	0.0864	0.0500	0	1	0.454	9	0	0
33	1	69	9	1	3	0.0864	0.0500	1	1	0.623	0	0	82
33	1	70	0	2	2	0.0864	0.0500	1	1	0.558	8	82	0
33	1	71	9	2	3	0.0864	0.0500	1	0	0.667	0	82	0
33	1	72	9	2	3	0.0864	0.0500	1	1	0.772	0	0	82
33	1	73	1	1	1	0.0864	0.0500	0	1	0.533	82	82	82
33	1	74	0	1	1	0.0864	0.0500	0	1	0.476	9	0	0
33	1	75	9	1	1	0.0864	0.0500	0	1	0.450	0	0	0
33	1	76	1	1	3	0.0864	0.0500	0	1	0.456	89	82	82
33	1	77	1	2	2	0.0864	0.0500	1	0	0.402	0	0	82
33	1	78	0	1	1	0.0864	0.0500	1	1	0.592	8	0	82
33	1	79	1	1	1	0.0864	0.0500	0	1	0.547	80	82	82
33	1	80	0	2	3	0.0864	0.0500	1	1	0.595	8	82	0
33	1	81	1	1	1	0.0864	0.0500	1	1	0.613	74	82	0
33	1	82	1	2	2	0.0864	0.0500	0	1	0.395	96	82	82
33	1	83	9	1	2	0.0864	0.0500	0	0	0.431	0	0	0
33	1	84	1	2	3	0.0864	0.0500	0	1	0.561	79	82	82
33	1	85	1	1	1	0.0864	0.0500	1	1	0.502	85	82	0
33	1	86	0	2	3	0.0864	0.0500	0	1	0.466	9	0	0
33	1	87	1	1	3	0.0864	0.0500	0	1	0.504	85	82	82
33	1	88	1	2	2	0.0864	0.0500	0	1	0.398	95	82	82
33	1	89	9	2	2	0.0864	0.0500	0	0	0.567	0	0	0
33	1	90	1	1	1	0.0864	0.0500	0	1	0.483	87	82	82
33	1	91	1	2	3	0.0864	0.0500	1	0	0.417	0	0	82
33	1	92	9	2	2	0.0864	0.0500	1	0	0.518	0	82	0
33	1	93	0	1	3	0.0864	0.0500	1	1	0.646	7	0	82
33	1	94	0	1	3	0.0864	0.0500	1	1	0.498	9	0	82
33	1	95	0	2	3	0.0864	0.0500	0	1	0.506	8	0	0
33	1	96	9	2	3	0.0864	0.0500	0	1	0.500	0	0	0
33	1	97	1	2	3	0.0864	0.0500	1	0	0.500	0	0	82
33	1	98	0	2	3	0.0864	0.0500	1	1	0.614	7	82	0
33	1	99	1	2	2	0.0864	0.0500	0	1	0.495	86	82	82
33	1	100	9	1	1	0.0864	0.0500	1	1	0.439	0	0	82
33	1	101	0	2	1	0.0864	0.0500	1	1	0.561	8	82	0
33	1	102	0	1	3	0.0864	0.0500	0	0	0.652	0	0	0
33	1	103	1	2	2	0.0864	0.0500	0	1	0.434	92	82	82
33	1	104	1	1	1	0.0864	0.0500	0	1	0.528	82	82	82
33	1	105	0	1	3	0.0864	0.0500	1	1	0.533	8	0	82
33	1	106	9	2	2	0.0864	0.0500	0	1	0.467	0	82	82
33	1	107	9	1	1	0.0864	0.0500	0	1	0.661	0	0	0
33	1	108	1	1	3	0.0864	0.0500	0	1	0.548	80	82	82
33	1	109	0	2	2	0.0864	0.0500	1	1	0.597	8	82	0
33	1	110	0	2	2	0.0864	0.0500	1	1	0.727	6	82	0
33	1	111	1	1	2	0.0864	0.0500	1	1	0.668	68	82	0
33	1	112	0	1	3	0.0864	0.0500	1	0	0.566	0	0	82
33	1	113	9	2	3	0.0864	0.0500	0	1	0.595	0	82	82
33	1	114	1	1	3	0.0864	0.0500	1	1	0.541	81	82	0
33	1	115	9	1	3	0.0864	0.0500	0	1	0.620	0	82	82
33	1	116	9	2	1	0.0864	0.0500	1	0	0.601	0	82	0
33	1	117	0	2	3	0.0864	0.0500	0	1	0.458	9	0	0
33	1	118	9	1	1	0.0864	0.0500	1	1	0.440	0	0	82
33	1	119	1	2	3	0.0864	0.0500	1	1	0.619	73	0	82
33	1	120	1	1	3	0.0864	0.0500	1	1	0.753	60	82	0
33	1	121	0	2	2	0.0864	0.0500	0	1	0.513	8	0	0
33	1	122	0	2	3	0.0864	0.0500	1	1	0.621	7	82	0
33	1	123	0	1	2	0.0864	0.0500	0	0	0.510	0	0	0
33	1	124	0	2	3	0.0864	0.0500	1	1	0.625	7	82	0
33	1	125	9	2	3	0.0864	0.0500	1	1	0.889	0	82	0
33	1	126	1	1	1	0.0864	0.0500	0	1	0.648	70	82	82
33	1	127	0	1	1	0.0864	0.0500	1	1	0.865	5	0	82
33	1	128	1	2	2	0.0864	0.0500	0	1	0.506	84	82	82
33	1	129	0	2	1	0.0864	0.0500	0	1	0.540	8	0	0
33	1	130	0	2	3	0.0864	0.0500	1	1	0.774	6	82	0
33	1	131	1	1	2	0.0864	0.0500	0	1	0.569	78	82	82
33	1	132	9	1	1	0.0864	0.0500	0	1	0.467	0	82	82
33	1	133	0	2	3	0.0864	0.0500	1	1	0.558	8	82	0
33	1	134	1	2	3	0.0864	0.0500	0	1	0.526	82	82	82
33	1	135	9	2	2	0.0864	0.0500	0	1	0.584	0	82	82
33	1	136	0	1	3	0.0864	0.0500	0	1	0.582	8	0	0
33	1	137	0	2	2	0.0864	0.0500	1	0	0.459	0	82	0
33	1	138	0	1	1	0.0864	0.0500	0	1	0.495	9	0	0
33	1	139	9	2	2	0.0864	0.0500	1	1	0.565	0	0	82
33	1	140	1	2	1	0.0864	0.0500	1	1	0.643	71	0	82
33	1	141	0	2	2	0.0864	0.0500	0	1	0.578	8	0	0
33	1	142	1	1	1	0.0864	0.0500	0	1	0.657	69	82	82
33	1	143	0	2	2	0.0864	0.0500	0	1	0.394	10	0	0
33	1	144	1	2	3	0.0864	0.0500	0	1	0.456	89	82	82
33	1	145	0	1	1	0.0864	0.0500	0	0	0.455	0	0	0
33	1	146	9	2	3	0.0864	0.0500	0	1	0.407	0	0	0
33	1	147	9	2	1	0.0864	0.0500	0	1	0.472	0	0	0
33	1	148	9	1	3	0.0864	0.0500	0	1	0.439	0	82	82
33	1	149	0	1	3	0.0864	0.0500	1	0	0.481	0	0	82
33	1	150	1	1	2	0.0864	0.0500	0	1	0.518	83	82	82
33	1	151	9	2	3	0.0864	0.0500	1	1	0.560	0	0	82
33	1	152	0	1	1	0.0864	0.0500	1	1	0.456	9	0	82
33	1	153	0	1	1	0.0864	0.0500	0	1	0.524	8	0	0
33	1	154	1	2	2	0.0864	0.0500	0	1	0.524	83	82	82
33	1	155	1	2	2	0.0864	0.0500	1	1	0.628	72	0	82
33	1	156	0	2	3	0.0864	0.0500	0	0	0.625	0	0	0
33	1	157	0	1	1	0.0864	0.0500	1	1	0.447	9	0	82
33	1	158	0	2	2	0.0864	0.0500	0	1	0.686	7	0	0
33	1	159	0	2	3	0.0864	0.0500	0	1	0.441	9	0	0
33	1	160	1	1	3	0.0864	0.0500	0	1	0.589	76	82	82
33	1	161	1	1	3	0.0864	0.0500	1	1	0.557	79	82	0
33	1	162	0	2	2	0.0864	0.0500	0	1	0.379	10	0	0
33	1	163	1	2	1	0.0864	0.0500	1	1	0.514	84	0	82
33	1	164	1	1	1	0.0864	0.0500	1	1	0.459	89	82	0
33	1	165	0	2	3	0.0864	0.0500	0	1	0.496	9	0	0
33	1	166	1	2	2	0.0864	0.0500	0	1	0.535	82	82	82
33	1	167	0	1	1	0.0864	0.0500	1	1	0.523	8	0	82
33	1	168	9	1	3	0.0864	0.0500	1	1	0.549	0	82	0
33	1	169	0	1	3	0.0864	0.0500	1	1	0.502	8	0	82
33	1	170	0	2	3	0.0864	0.0500	1	1	0.503	8	82	0
33	1	171	9	2	3	0.0864	0.0500	1	1	0.509	0	0	82
33	1	172	1	2	2	0.0864	0.0500	1	1	0.669	68	0	82
33	1	173	9	1	1	0.0864	0.0500	1	1	0.470	0	82	0
33	1	174	0	1	1	0.0864	0.0500	0	0	0.492	0	0	0
33	1	175	0	1	1	0.0864	0.0500	0	1	0.546	8	0	0
33	1	176	1	2	3	0.0864	0.0500	0	1	0.590	76	82	82
33	1	177	0	1	2	0.0864	0.0500	1	1	0.577	8	0	82
33	1	178	0	2	2	0.0864	0.0500	1	1	0.543	8	82	0
33	1	179	0	1	1	0.0864	0.0500	1	1	0.503	8	0	82
33	1	180	1	2	3	0.0864	0.0500	1	1	0.616	73	0	82
33	1	181	9	2	1	0.0864	0.0500	1	1	0.586	0	0	82
33	1	182	0	1	1	0.0864	0.0500	0	0	0.417	0	0	0
33	1	183	0	1	3	0.0864	0.0500	1	1	0.509	8	0	82
33	1	184	0	1	3	0.0864	0.0500	0	1	0.617	7	0	0
33	1	185	1	2	2	0.0864	0.0500	0	1	0.439	91	82	82
33	1	186	1	2	2	0.0864	0.0500	0	1	0.543	81	82	82
33	1	187	1	1	3	0.0864	0.0500	1	1	0.528	82	82	0
33	1	188	9	1	3	0.0864	0.0500	0	1	0.509	0	0	0
33	1	189	1	2	3	0.0864	0.0500	0	1	0.567	78	82	82
33	1	190	1	2	3	0.0864	0.0500	0	1	0.427	92	82	82
33	1	191	9	2	3	0.0864	0.0500	1	1	0.535	0	82	0
33	1	192	9	2	1	0.0864	0.0500	0	1	0.475	0	82	82
33	1	193	9	1	1	0.0864	0.0500	0	1	0.533	0	0	0
33	1	194	1	1	2	0.0864	0.0500	0	1	0.426	92	82	82
33	1	195	9	1	3	0.0864	0.0500	0	1	0.488	0	82	82
33	1	196	9	1	3	0.0864	0.0500	0	1	0.492	0	0	0
33	1	197	9	2	3	0.0864	0.0500	1	0	0.420	0	82	0
33	1	198	0	1	3	0.0864	0.0500	1	1	0.495	9	0	82
33	1	199	9	1	1	0.0864	0.0500	1	1	0.528	0	0	82
33	1	200	0	1	2	0.0864	0.0500	1	0	0.362	0	0	82
33	1	201	0	1	1	0.0864	0.0500	1	1	0.531	8	0	82
33	1	202	1	1	1	0.0864	0.0500	0	0	0.534	0	82	82
33	1	203	0	2	2	0.0864	0.0500	1	1	0.562	8	82	0
33	1	204	0	1	3	0.0864	0.0500	0	1	0.596	8	0	0
33	1	205	0	2	3	0.0864	0.0500	1	1	0.627	7	82	0
33	1	206	9	1	2	0.0864	0.0500	1	1	0.592	0	82	0
33	1	207	1	2	1	0.0864	0.0500	0	1	0.517	83	82	82
33	1	208	0	1	1	0.0864	0.0500	1	1	0.460	9	0	82
33	1	209	1	1	3	0.0864	0.0500	1	1	0.666	68	82	0
33	1	210	0	1	2	0.0864	0.0500	0	0	0.502	0	0	0
33	1	211	0	1	1	0.0864	0.0500	1	1	0.465	9	0	82
33	1	212	1	2	3	0.0864	0.0500	0	1	0.566	78	82	82
33	1	213	1	1	1	0.0864	0.0500	0	0	0.423	0	82	82
33	1	214	1	2	3	0.0864	0.0500	0	1	0.616	73	82	82
33	1	215	1	1	3	0.0864	0.0500	0	1	0.548	80	82	82
33	1	216	1	2	3	0.0864	0.0500	1	1	0.576	77	0	82
33	1	217	1	2	2	0.0864	0.0500	0	1	0.379	97	82	82
33	1	218	1	1	1	0.0864	0.0500	0	1	0.506	84	82	82
33	1	219	1	2	2	0.0864	0.0500	1	0	0.487	0	0	82
33	1	220	1	2	3	0.0864	0.0500	1	1	0.531	82	0	82
33	1	221	1	2	1	0.0864	0.0500	1	1	0.574	78	0	82
33	1	222	1	1	1	0.0864	0.0500	1	1	0.486	86	82	0
33	1	223	0	2	3	0.0864	0.0500	0	0	0.679	0	0	0
33	1	224	0	1	3	0.0864	0.0500	0	0	0.531	0	0	0
33	1	225	1	1	3	0.0864	0.0500	1	1	0.810	54	82	0
33	1	226	1	1	3	0.0864	0.0500	0	1	0.558	79	82	82
33	1	227	0	2	3	0.0864	0.0500	0	1	0.655	7	0	0
33	1	228	0	2	1	0.0864	0.0500	0	1	0.478	9	0	0
33	1	229	0	1	3	0.0864	0.0500	1	0	0.556	0	0	82
33	1	230	9	1	3	0.0864	0.0500	1	1	0.614	0	82	0
33	1	231	0	2	3	0.0864	0.0500	1	0	0.537	0	82	0
33	1	232	1	1	1	0.0864	0.0500	1	1	0.425	93	82	0
33	1	233	9	1	3	0.0864	0.0500	1	1	0.630	0	0	82
33	1	234	0	1	2	0.0864	0.0500	0	1	0.574	8	0	0
33	1	235	1	1	3	0.0864	0.0500	1	1	0.793	56	82	0
33	1	236	0	2	1	0.0864	0.0500	1	0	0.639	0	82	0
33	1	237	1	1	3	0.0864	0.0500	1	1	0.533	82	82	0
33	1	238	1	1	1	0.0864	0.0500	0	1	0.537	81	82	82
33	1	239	1	2	3	0.0864	0.0500	1	1	0.574	78	0	82
33	1	240	1	1	1	0.0864	0.0500	1	1	0.396	95	82	0
33	1	241	1	1	3	0.0864	0.0500	0	1	0.543	81	82	82
33	1	242	9	1	3	0.0864	0.0500	1	1	0.530	0	0	82
33	1	243	1	1	3	0.0864	0.0500	0	0	0.522	0	82	82
33	1	244	1	1	1	0.0864	0.0500	1	1	0.517	83	82	0
33	1	245	1	2	2	0.0864	0.0500	1	1	0.526	82	0	82
33	1	246	0	2	2	0.0864	0.0500	1	1	0.424	9	82	0
33	1	247	1	1	3	0.0864	0.0500	1	1	0.532	82	82	0
33	1	248	1	1	1	0.0864	0.0500	0	1	0.484	87	82	82
33	1	249	9	2	2	0.0864	0.0500	0	1	0.412	0	0	0
33	1	250	1	1	3	0.0864	0.0500	1	1	0.593	76	82	0
33	1	251	9	2	3	0.0864	0.0500	0	1	0.470	0	82	82
33	1	252	9	2	2	0.0864	0.0500	0	1	0.428	0	0	0
33	1	253	9	2	2	0.0864	0.0500	1	0	0.509	0	82	0
33	1	254	0	1	1	0.0864	0.0500	1	1	0.491	9	0	82
33	1	255	0	1	3	0.0864	0.0500	0	0	0.656	0	0	0
33	1	256	0	2	1	0.0864	0.0500	0	1	0.445	9	0	0
33	1	257	9	1	1	0.0864	0.0500	0	1	0.517	0	0	0
33	1	258	1	2	1	0.0864	0.0500	0	1	0.497	85	82	82
33	1	259	1	1	1	0.0864	0.0500	1	1	0.575	77	82	0
33	1	260	0	2	2	0.0864	0.0500	0	1	0.548	8	0	0
33	1	261	1	2	2	0.0864	0.0500	1	1	0.519	83	0	82
33	1	262	1	2	3	0.0864	0.0500	0	1	0.493	86	82	82
33	1	263	1	1	3	0.0864	0.0500	0	1	0.529	82	82	82
33	1	264	1	1	1	0.0864	0.0500	1	1	0.420	93	82	0
33	1	265	9	1	1	0.0864	0.0500	0	1	0.492	0	82	82
33	1	266	1	1	3	0.0864	0.0500	1	0	0.497	0	82	0
33	1	267	0	2	3	0.0864	0.0500	1	1	0.559	8	82	0
33	1	268	1	2	3	0.0864	0.0500	0	1	0.538	81	82	82
33	1	269	9	1	3	0.0864	0.0500	0	1	0.605	0	82	82
33	1	270	0	1	2	0.0864	0.0500	1	0	0.660	0	0	82
33	1	271	0	1	1	0.0864	0.0500	1	0	0.809	0	0	82
33	1	272	0	2	2	0.0864	0.0500	0	1	0.471	9	0	0
33	1	273	0	2	3	0.0864	0.0500	1	1	0.576	8	82	0
33	1	274	1	2	3	0.0864	0.0500	1	0	0.635	0	0	82
33	1	275	0	2	3	0.0864	0.0500	0	1	0.453	9	0	0
33	1	276	0	1	3	0.0864	0.0500	0	1	0.611	7	0	0
33	1	277	0	1	3	0.0864	0.0500	1	1	0.639	7	0	82
33	1	278	1	2	2	0.0864	0.0500	1	1	0.534	82	0	82
33	1	279	0	2	2	0.0864	0.0500	0	1	0.459	9	0	0
33	1	280	9	2	3	0.0864	0.0500	0	1	0.482	0	0	0
33	1	281	1	1	3	0.0864	0.0500	0	1	0.552	80	82	82
33	1	282	0	2	3	0.0864	0.0500	1	1	0.780	6	82	0
33	1	283	0	2	3	0.0864	0.0500	1	1	0.823	5	82	0
33	1	284	0	1	1	0.0864	0.0500	1	1	0.552	8	0	82
33	1	285	1	2	2	0.0864	0.0500	0	1	0.424	93	82	82
33	1	286	1	1	3	0.0864	0.0500	0	1	0.501	85	82	82
33	1	287	1	1	1	0.0864	0.0500	0	1	0.419	93	82	82
33	1	288	1	2	3	0.0864	0.0500	0	1	0.444	91	82	82
33	1	289	1	1	3	0.0864	0.0500	1	1	0.506	84	82	0
33	1	290	9	2	2	0.0864	0.0500	0	1	0.377	0	82	82
33	1	291	0	2	2	0.0864	0.0500	0	1	0.423	9	0	0
33	1	292	0	2	2	0.0864	0.0500	1	0	0.362	0	82	0
33	1	293	0	1	1	0.0864	0.0500	0	0	0.434	0	0	0
33	1	294	9	2	2	0.0864	0.0500	1	1	0.604	0	82	0
33	1	295	0	2	2	0.0864	0.0500	1	1	0.797	6	82	0
33	1	296	0	2	2	0.0864	0.0500	0	1	0.677	7	0	0
33	1	297	0	1	3	0.0864	0.0500	0	1	0.600	8	0	0
33	1	298	1	2	3	0.0864	0.0500	0	1	0.596	75	82	82
33	1	299	0	1	1	0.0864	0.0500	0	1	0.446	9	0	0
33	1	300	1	1	1	0.0864	0.0500	1	1	0.539	81	82	0
33	1	301	1	2	3	0.0864	0.0500	1	1	0.598	75	0	82
33	1	302	1	2	3	0.0864	0.0500	1	1	0.558	79	0	82
33	1	303	9	1	3	0.0864	0.0500	0	1	0.684	0	0	0
33	1	304	0	1	3	0.0864	0.0500	0	1	0.593	8	0	0
33	1	305	1	1	3	0.0864	0.0500	0	1	0.714	64	82	82
33	1	306	9	1	3	0.0864	0.0500	0	1	0.488	0	0	0
33	1	307	1	1	1	0.0864	0.0500	0	1	0.481	87	82	82
33	1	308	1	1	1	0.0864	0.0500	1	1	0.676	67	82	0
33	1	309	0	2	3	0.0864	0.0500	1	0	0.624	0	82	0
33	1	310	1	2	2	0.0864	0.0500	1	1	0.598	75	0	82
33	1	311	0	1	1	0.0864	0.0500	0	0	0.785	0	0	0
33	1	312	0	2	2	0.0864	0.0500	1	1	0.669	7	82	0
33	1	313	0	1	3	0.0864	0.0500	1	0	0.662	0	0	82
33	1	314	0	1	1	0.0864	0.0500	1	1	0.406	9	0	82
33	1	315	0	1	1	0.0864	0.0500	1	0	0.589	0	0	82
33	1	316	0	2	1	0.0864	0.0500	0	1	0.604	7	0	0
33	1	317	0	1	3	0.0864	0.0500	1	1	0.582	8	0	82
33	1	318	0	1	1	0.0864	0.0500	0	1	0.559	8	0	0
33	1	319	0	2	2	0.0864	0.0500	1	1	0.685	7	82	0
33	1	320	0	2	2	0.0864	0.0500	1	1	0.652	7	82	0
33	1	321	1	2	2	0.0864	0.0500	1	1	0.597	75	0	82
33	1	322	1	2	1	0.0864	0.0500	1	1	0.552	80	0	82
33	1	323	9	2	3	0.0864	0.0500	0	1	0.556	0	82	82
33	1	324	0	1	1	0.0864	0.0500	0	1	0.612	7	0	0
33	1	325	0	1	2	0.0864	0.0500	1	1	0.597	8	0	82
33	1	326	1	2	2	0.0864	0.0500	0	1	0.489	86	82	82
33	1	327	9	2	2	0.0864	0.0500	0	1	0.374	0	0	0
33	1	328	1	1	3	0.0864	0.0500	1	1	0.518	83	82	0
33	1	329	0	2	2	0.0864	0.0500	0	1	0.428	9	0	0
33	1	330	0	2	3	0.0864	0.0500	0	1	0.455	9	0	0
33	1	331	0	1	3	0.0864	0.0500	0	1	0.503	8	0	0
33	1	332	1	2	3	0.0864	0.0500	0	1	0.475	88	82	82
33	1	333	0	2	2	0.0864	0.0500	1	0	0.456	0	82	0
33	1	334	1	2	3	0.0864	0.0500	1	1	0.485	87	0	82
33	1	335	9	1	3	0.0864	0.0500	1	1	0.450	0	0	82
33	1	336	1	1	3	0.0864	0.0500	0	1	0.547	80	82	82
33	1	337	1	1	1	0.0864	0.0500	1	1	0.568	78	82	0
33	1	338	0	1	3	0.0864	0.0500	0	1	0.530	8	0	0
33	1	339	9	2	3	0.0864	0.0500	0	1	0.584	0	82	82
33	1	340	0	1	1	0.0864	0.0500	1	1	0.523	8	0	82
33	1	341	1	2	2	0.0864	0.0500	1	1	0.504	85	0	82
33	1	342	0	1	3	0.0864	0.0500	0	1	0.575	8	0	0
33	1	343	0	1	3	0.0864	0.0500	1	1	0.467	9	0	82
33	1	344	9	2	3	0.0864	0.0500	1	1	0.527	0	0	82
33	1	345	1	2	3	0.0864	0.0500	1	1	0.669	68	0	82
33	1	346	0	1	3	0.0864	0.0500	1	1	0.794	6	0	82
33	1	347	9	2	2	0.0864	0.0500	1	1	0.553	0	0	82
33	1	348	1	2	2	0.0864	0.0500	1	0	0.440	0	0	82
33	1	349	1	2	2	0.0864	0.0500	1	1	0.476	87	0	82
33	1	350	1	1	2	0.0864	0.0500	1	1	0.473	88	82	0
33	1	351	1	2	2	0.0864	0.0500	0	1	4.357	50	82	82
33	1	352	9	2	2	0.0864	0.0500	1	1	0.572	0	0	82
33	1	353	9	2	2	0.0864	0.0500	0	1	0.590	0	82	82
33	1	354	0	2	1	0.0864	0.0500	1	1	0.693	7	82	0
33	1	355	9	1	3	0.0864	0.0500	1	1	0.615	0	82	0
33	1	356	1	2	2	0.0864	0.0500	1	1	0.649	70	0	82
33	1	357	1	2	1	0.0864	0.0500	0	1	0.456	89	82	82
33	1	358	0	2	2	0.0864	0.0500	0	1	0.393	10	0	0
33	1	359	0	2	3	0.0864	0.0500	0	1	0.417	9	0	0
33	1	360	9	1	1	0.0864	0.0500	1	1	0.476	0	0	82
33	1	361	9	2	3	0.0864	0.0500	1	0	0.418	0	82	0
33	1	362	0	1	3	0.0864	0.0500	1	1	0.505	8	0	82
33	1	363	0	2	3	0.0864	0.0500	0	1	0.494	9	0	0
33	1	364	0	1	3	0.0864	0.0500	1	0	0.590	0	0	82
33	1	365	0	1	3	0.0864	0.0500	0	1	0.640	7	0	0
33	1	366	0	2	3	0.0864	0.0500	0	1	0.410	9	0	0
33	1	367	0	1	3	0.0864	0.0500	1	0	0.497	0	0	82
33	1	368	9	2	3	0.0864	0.0500	0	1	0.548	0	82	82
33	1	369	0	2	2	0.0864	0.0500	0	1	0.390	10	0	0
33	1	370	0	1	3	0.0864	0.0500	0	1	0.625	7	0	0
33	1	371	9	2	2	0.0864	0.0500	0	1	0.372	0	82	82
33	1	372	1	2	2	0.0864	0.0500	0	1	0.383	97	82	82
33	1	373	0	2	2	0.0864	0.0500	0	1	0.454	9	0	0
33	1	374	0	2	1	0.0864	0.0500	1	1	0.611	7	82	0
33	1	375	0	1	1	0.0864	0.0500	0	0	0.487	0	0	0
33	1	376	0	2	3	0.0864	0.0500	1	0	0.582	0	82	0
33	1	377	1	1	3	0.0864	0.0500	0	1	0.662	69	82	82
33	1	378	0	1	3	0.0864	0.0500	0	1	0.592	8	0	0
33	1	379	0	1	1	0.0864	0.0500	0	1	0.419	9	0	0
33	1	380	0	2	3	0.0864	0.0500	0	1	0.435	9	0	0
33	1	381	9	2	2	0.0864	0.0500	1	1	0.592	0	0	82
33	1	382	1	1	3	0.0864	0.0500	0	1	0.543	81	82	82
33	1	383	0	2	2	0.0864	0.0500	1	0	0.392	0	82	0
33	1	384	0	2	2	0.0864	0.0500	1	0	0.473	0	82	0
33	1	385	1	1	3	0.0864	0.0500	1	1	0.618	73	82	0
33	1	386	1	2	1	0.0864	0.0500	0	1	0.594	76	82	82
33	1	387	0	1	1	0.0864	0.0500	1	1	0.559	8	0	82
33	1	388	0	1	1	0.0864	0.0500	0	1	0.476	9	0	0
33	1	389	9	1	3	0.0864	0.0500	1	1	0.702	0	82	0
33	1	390	9	2	1	0.0864	0.0500	1	1	0.587	0	0	82
33	1	391	0	2	1	0.0864	0.0500	0	1	0.561	8	0	0
33	1	392	0	1	2	0.0864	0.0500	0	1	0.505	8	0	0
33	1	393	0	2	3	0.0864	0.0500	1	1	0.664	7	82	0
33	1	394	9	1	3	0.0864	0.0500	0	1	0.584	0	0	0
33	1	395	9	2	3	0.0864	0.0500	0	1	0.560	0	82	82
33	1	396	1	1	1	0.0864	0.0500	1	1	0.535	81	82	0
33	1	397	1	1	3	0.0864	0.0500	1	1	0.539	81	82	0
33	1	398	0	1	3	0.0864	0.0500	0	1	0.520	8	0	0
33	1	399	0	2	2	0.0864	0.0500	0	1	0.402	9	0	0
33	1	400	0	2	3	0.0864	0.0500	0	1	0.375	10	0	0
33	1	401	1	1	2	0.0864	0.0500	1	1	0.660	69	82	0
33	1	402	0	2	3	0.0864	0.0500	1	1	0.549	8	82	0
33	1	403	0	2	3	0.0864	0.0500	1	1	0.510	8	82	0
33	1	404	0	2	2	0.0864	0.0500	1	1	0.617	7	82	0
33	1	405	9	2	3	0.0864	0.0500	1	1	0.597	0	82	0
33	1	406	0	1	3	0.0864	0.0500	0	0	0.418	0	0	0
33	1	407	1	1	1	0.0864	0.0500	1	1	0.483	87	82	0
33	1	408	1	1	1	0.0864	0.0500	1	1	0.476	87	82	0
33	1	409	1	1	3	0.0864	0.0500	1	1	0.499	85	82	0
33	1	410	1	2	3	0.0864	0.0500	0	1	0.641	71	82	82
33	1	411	0	2	2	0.0864	0.0500	0	1	0.492	9	0	0
33	1	412	9	1	3	0.0864	0.0500	1	1	0.545	0	82	0
33	1	413	1	2	1	0.0864	0.0500	0	1	0.458	89	82	82
33	1	414	9	1	3	0.0864	0.0500	1	1	0.532	0	0	82
33	1	415	0	1	3	0.0864	0.0500	0	1	0.720	6	0	0
33	1	416	9	1	3	0.0864	0.0500	1	1	0.426	0	82	0
33	1	417	1	1	1	0.0864	0.0500	0	0	0.373	0	82	82
33	1	418	1	2	3	0.0864	0.0500	0	1	0.503	85	82	82
33	1	419	9	1	3	0.0864	0.0500	0	1	0.454	0	82	82
33	1	420	0	1	1	0.0864	0.0500	0	1	0.591	8	0	0
33	1	421	0	2	3	0.0864	0.0500	1	1	0.581	8	82	0
33	1	422	1	1	2	0.0864	0.0500	0	1	0.487	86	82	82
33	1	423	1	1	3	0.0864	0.0500	1	1	0.517	83	82	0
33	1	424	1	1	1	0.0864	0.0500	1	1	0.390	96	82	0
33	1	425	0	1	1	0.0864	0.0500	0	1	0.458	9	0	0
33	1	426	1	2	1	0.0864	0.0500	1	1	0.516	83	0	82
33	1	427	0	2	3	0.0864	0.0500	1	0	0.644	0	82	0
33	1	428	0	2	1	0.0864	0.0500	0	1	0.459	9	0	0
33	1	429	9	1	1	0.0864	0.0500	1	1	0.414	0	82	0
33	1	430	1	1	1	0.0864	0.0500	0	1	0.611	74	82	82
33	1	431	9	1	1	0.0864	0.0500	0	1	0.534	0	82	82
33	1	432	0	1	1	0.0864	0.0500	1	1	0.513	8	0	82
33	1	433	9	2	2	0.0864	0.0500	0	1	0.389	0	0	0
33	1	434	0	1	2	0.0864	0.0500	1	1	0.610	7	0	82
33	1	435	1	2	3	0.0864	0.0500	1	0	0.806	0	0	82
33	1	436	9	1	1	0.0864	0.0500	0	1	0.571	0	82	82
33	1	437	1	2	2	0.0864	0.0500	0	1	0.533	82	82	82
33	1	438	1	1	3	0.0864	0.0500	0	1	0.584	77	82	82
33	1	439	9	1	3	0.0864	0.0500	0	1	0.445	0	0	0
33	1	440	0	1	2	0.0864	0.0500	0	1	0.434	9	0	0
33	1	441	1	1	2	0.0864	0.0500	1	1	0.744	61	82	0
33	1	442	1	1	1	0.0864	0.0500	0	1	0.552	80	82	82
33	1	443	0	1	3	0.0864	0.0500	1	0	0.624	0	0	82
33	1	444	0	1	3	0.0864	0.0500	1	1	0.630	7	0	82
33	1	445	1	2	2	0.0864	0.0500	1	1	0.788	56	0	82
33	1	446	1	1	3	0.0864	0.0500	0	1	0.611	74	82	82
33	1	447	1	2	3	0.0864	0.0500	0	1	0.540	81	82	82
33	1	448	1	2	2	0.0864	0.0500	0	1	0.510	84	82	82
33	1	449	9	2	2	0.0864	0.0500	1	1	0.766	0	82	0
33	1	450	0	2	3	0.0864	0.0500	0	0	0.624	0	0	0
33	1	451	1	2	2	0.0864	0.0500	1	1	0.540	81	0	82
33	1	452	9	1	1	0.0864	0.0500	0	1	0.564	0	82	82
33	1	453	0	1	3	0.0864	0.0500	1	1	0.497	9	0	82
33	1	454	0	1	1	0.0864	0.0500	0	1	0.480	9	0	0
33	1	455	9	2	2	0.0864	0.0500	1	1	0.603	0	82	0
33	1	456	1	1	3	0.0864	0.0500	0	1	0.543	81	82	82
33	1	457	0	2	3	0.0864	0.0500	0	1	0.562	8	0	0
33	1	458	1	2	3	0.0864	0.0500	0	1	0.440	91	82	82
33	1	459	1	1	1	0.0864	0.0500	0	1	0.521	83	82	82
33	1	460	9	1	1	0.0864	0.0500	1	0	0.547	0	82	0
33	1	461	0	1	3	0.0864	0.0500	0	1	0.542	8	0	0
33	1	462	9	2	3	0.0864	0.0500	1	1	0.664	0	0	82
33	1	463	0	1	1	0.0864	0.0500	0	1	0.484	9	0	0
33	1	464	0	2	3	0.0864	0.0500	0	1	0.529	8	0	0
33	1	465	0	1	3	0.0864	0.0500	0	1	0.486	9	0	0
33	1	466	0	1	1	0.0864	0.0500	0	1	0.440	9	0	0
33	1	467	1	2	2	0.0864	0.0500	1	1	0.553	80	0	82
33	1	468	1	2	1	0.0864	0.0500	1	0	0.530	0	0	82
33	1	469	1	2	2	0.0864	0.0500	1	1	0.542	81	0	82
33	1	470	0	1	1	0.0864	0.0500	1	1	0.612	7	0	82
33	1	471	9	2	3	0.0864	0.0500	0	1	0.512	0	0	0
33	1	472	1	2	3	0.0864	0.0500	1	1	1.060	50	0	82
33	1	473	9	1	1	0.0864	0.0500	0	1	0.578	0	0	0
33	1	474	0	1	3	0.0864	0.0500	1	1	0.646	7	0	82
33	1	475	1	2	1	0.0864	0.0500	1	1	0.538	81	0	82
33	1	476	0	1	3	0.0864	0.0500	1	1	0.636	7	0	82
33	1	477	1	1	3	0.0864	0.0500	0	0	0.594	0	82	82
33	1	478	9	1	3	0.0864	0.0500	0	1	0.713	0	82	82
33	1	479	1	1	1	0.0864	0.0500	1	1	0.669	68	82	0
33	1	480	1	1	1	0.0864	0.0500	1	0	0.680	0	82	0
33	1	481	0	2	2	0.0864	0.0500	1	0	0.695	0	82	0
33	1	482	0	2	2	0.0864	0.0500	0	1	0.416	9	0	0
33	1	483	1	2	3	0.0864	0.0500	1	1	0.492	86	0	82
33	1	484	0	2	2	0.0864	0.0500	0	1	0.452	9	0	0
33	1	485	1	2	3	0.0864	0.0500	0	1	0.543	81	82	82
33	1	486	1	1	1	0.0864	0.0500	1	1	0.453	90	82	0
33	1	487	1	2	3	0.0864	0.0500	1	1	0.525	83	0	82
33	1	488	1	2	3	0.0864	0.0500	0	1	0.448	90	82	82
33	1	489	0	2	2	0.0864	0.0500	1	0	0.438	0	82	0
33	1	490	1	1	1	0.0864	0.0500	0	1	0.505	85	82	82
33	1	491	1	2	1	0.0864	0.0500	1	1	0.512	84	0	82
33	1	492	0	1	1	0.0864	0.0500	0	0	0.465	0	0	0
33	1	493	1	1	3	0.0864	0.0500	1	1	0.540	81	82	0
33	1	494	9	1	1	0.0864	0.0500	1	1	0.461	0	82	0
33	1	495	1	2	2	0.0864	0.0500	1	1	0.500	85	0	82
33	1	496	9	2	3	0.0864	0.0500	1	1	0.523	0	82	0
33	1	497	1	2	2	0.0864	0.0500	0	1	0.467	88	82	82
33	1	498	1	1	1	0.0864	0.0500	1	1	0.615	73	82	0
33	1	499	9	2	3	0.0864	0.0500	1	1	0.540	0	0	82
33	1	500	1	1	3	0.0864	0.0500	1	1	0.429	92	82	0
33	1	501	0	2	2	0.0864	0.0500	1	1	0.457	9	82	0
33	1	502	1	1	3	0.0864	0.0500	0	0	0.418	0	82	82
33	1	503	1	2	2	0.0864	0.0500	0	0	0.495	0	82	82
33	1	504	0	2	1	0.0864	0.0500	1	1	0.429	9	82	0
33	1	505	1	1	1	0.0864	0.0500	1	1	0.436	91	82	0
33	1	506	0	1	3	0.0864	0.0500	0	1	0.723	6	0	0
33	1	507	9	2	3	0.0864	0.0500	1	1	0.538	0	0	82
33	1	508	0	1	2	0.0864	0.0500	1	1	0.535	8	0	82
33	1	509	1	2	3	0.0864	0.0500	0	1	0.537	81	82	82
33	1	510	1	2	2	0.0864	0.0500	0	1	0.836	51	82	82
33	1	511	0	1	1	0.0864	0.0500	1	1	0.465	9	0	82
33	1	512	1	2	3	0.0864	0.0500	1	1	0.548	80	0	82
33	1	513	9	1	1	0.0864	0.0500	0	1	0.744	0	0	0
33	1	514	9	1	3	0.0864	0.0500	0	1	0.599	0	82	82
33	1	515	0	1	1	0.0864	0.0500	1	1	0.640	7	0	82
33	1	516	1	2	2	0.0864	0.0500	1	1	0.523	83	0	82
33	1	517	0	1	1	0.0864	0.0500	1	1	0.642	7	0	82
33	1	518	1	2	2	0.0864	0.0500	1	1	0.521	83	0	82
33	1	519	9	1	1	0.0864	0.0500	0	0	0.500	0	0	0
33	1	520	0	2	2	0.0864	0.0500	1	1	0.657	7	82	0
33	1	521	1	1	2	0.0864	0.0500	0	1	0.593	76	82	82
33	1	522	1	2	1	0.0864	0.0500	0	1	0.495	86	82	82
33	1	523	1	1	1	0.0864	0.0500	0	1	0.477	87	82	82
33	1	524	1	1	3	0.0864	0.0500	0	1	0.479	87	82	82
33	1	525	0	2	3	0.0864	0.0500	1	1	0.616	7	82	0
33	1	526	1	2	2	0.0864	0.0500	0	1	0.461	89	82	82
33	1	527	0	1	2	0.0864	0.0500	1	1	0.495	9	0	82
33	1	528	9	2	2	0.0864	0.0500	1	1	0.532	0	82	0
33	1	529	0	2	2	0.0864	0.0500	1	1	0.602	7	82	0
33	1	530	9	2	2	0.0864	0.0500	0	1	0.475	0	82	82
33	1	531	0	1	3	0.0864	0.0500	0	0	0.581	0	0	0
33	1	532	0	1	3	0.0864	0.0500	1	0	0.699	0	0	82
33	1	533	9	1	2	0.0864	0.0500	0	0	0.502	0	82	82
33	1	534	1	2	2	0.0864	0.0500	0	0	0.668	0	82	82
33	1	535	9	2	2	0.0864	0.0500	1	1	0.631	0	82	0
33	1	536	9	2	2	0.0864	0.0500	0	1	0.739	0	0	0
33	1	537	9	1	1	0.0864	0.0500	1	1	0.494	0	0	82
33	1	538	0	2	3	0.0864	0.0500	0	0	0.477	0	0	0
33	1	539	0	2	3	0.0864	0.0500	0	1	0.506	8	0	0
33	1	540	0	1	3	0.0864	0.0500	0	0	0.549	0	0	0
33	1	541	1	1	3	0.0864	0.0500	1	0	0.542	0	82	0
33	1	542	1	1	3	0.0864	0.0500	1	1	0.534	82	82	0
33	1	543	0	1	2	0.0864	0.0500	0	1	0.551	8	0	0
33	1	544	1	1	3	0.0864	0.0500	0	1	0.669	68	82	82
33	1	545	0	2	3	0.0864	0.0500	1	1	0.633	7	82	0
33	1	546	0	1	1	0.0864	0.0500	1	1	0.509	8	0	82
33	1	547	0	2	2	0.0864	0.0500	1	1	0.680	7	82	0
33	1	548	0	1	1	0.0864	0.0500	1	1	0.430	9	0	82
33	1	549	0	2	2	0.0864	0.0500	1	1	0.551	8	82	0
33	1	550	9	2	1	0.0864	0.0500	0	1	0.515	0	82	82
33	1	551	1	2	2	0.0864	0.0500	0	1	0.569	78	82	82
33	1	552	1	2	3	0.0864	0.0500	1	1	0.497	85	0	82
33	1	553	0	1	1	0.0864	0.0500	1	1	0.517	8	0	82
33	1	554	9	2	2	0.0864	0.0500	0	1	0.439	0	0	0
33	1	555	1	2	1	0.0864	0.0500	0	1	0.554	80	82	82
33	1	556	0	1	3	0.0864	0.0500	1	1	0.549	8	0	82
33	1	557	1	1	3	0.0864	0.0500	0	1	0.540	81	82	82
33	1	558	0	1	3	0.0864	0.0500	0	1	0.507	8	0	0
33	1	559	0	1	3	0.0864	0.0500	0	1	0.503	8	0	0
33	1	560	1	1	1	0.0864	0.0500	1	1	0.572	78	82	0
33	1	561	1	1	3	0.0864	0.0500	0	0	0.533	0	82	82
33	1	562	9	1	3	0.0864	0.0500	0	1	0.472	0	0	0
33	1	563	0	2	2	0.0864	0.0500	1	1	0.640	7	82	0
33	1	564	9	2	3	0.0864	0.0500	0	1	0.523	0	0	0
33	1	565	0	2	3	0.0864	0.0500	1	1	0.591	8	82	0
33	1	566	0	2	3	0.0864	0.0500	0	1	0.798	6	0	0
33	1	567	0	2	2	0.0864	0.0500	0	1	0.507	8	0	0
33	1	568	0	2	3	0.0864	0.0500	0	1	0.470	9	0	0
33	1	569	9	2	3	0.0864	0.0500	0	1	0.406	0	0	0
33	1	570	0	2	3	0.0864	0.0500	1	0	0.447	0	82	0
33	1	571	1	2	3	0.0864	0.0500	1	1	0.726	62	0	82
33	1	572	1	1	1	0.0864	0.0500	0	1	0.627	72	82	82
33	1	573	1	1	1	0.0864	0.0500	0	1	0.464	89	82	82
33	1	574	0	1	1	0.0864	0.0500	0	1	0.384	10	0	0
33	1	575	9	1	1	0.0864	0.0500	0	1	0.472	0	82	82
33	1	576	9	2	2	0.0864	0.0500	0	1	0.419	0	82	82
33	1	577	1	1	1	0.0864	0.0500	1	1	0.474	88	82	0
33	1	578	1	2	2	0.0864	0.0500	1	1	0.514	84	0	82
33	1	579	1	2	2	0.0864	0.0500	0	1	0.550	80	82	82
33	1	580	1	1	1	0.0864	0.0500	0	1	0.520	83	82	82
33	1	581	1	2	2	0.0864	0.0500	1	1	0.673	68	0	82
33	1	582	9	1	2	0.0864	0.0500	1	1	0.480	0	0	82
33	1	583	9	2	3	0.0864	0.0500	0	0	0.509	0	82	82
33	1	584	1	2	3	0.0864	0.0500	1	1	0.626	72	0	82
33	1	585	9	1	3	0.0864	0.0500	1	1	0.534	0	0	82
33	1	586	1	1	1	0.0864	0.0500	0	1	0.509	84	82	82
33	1	587	0	1	1	0.0864	0.0500	0	0	0.531	0	0	0
33	1	588	1	2	3	0.0864	0.0500	1	1	0.570	78	0	82
33	1	589	0	1	3	0.0864	0.0500	1	1	0.501	8	0	82
33	1	590	1	2	3	0.0864	0.0500	1	1	0.454	90	0	82
33	1	591	1	1	1	0.0864	0.0500	0	1	0.475	87	82	82
33	1	592	0	1	1	0.0864	0.0500	0	1	0.453	9	0	0
33	1	593	9	1	2	0.0864	0.0500	0	1	0.497	0	0	0
33	1	594	0	1	3	0.0864	0.0500	0	1	0.500	8	0	0
33	1	595	0	1	1	0.0864	0.0500	1	1	0.666	7	0	82
33	1	596	1	2	3	0.0864	0.0500	0	1	0.514	84	82	82
33	1	597	1	2	2	0.0864	0.0500	0	1	0.565	79	82	82
33	1	598	1	1	3	0.0864	0.0500	1	1	0.475	88	82	0
33	1	599	9	2	3	0.0864	0.0500	1	0	0.526	0	82	0
33	1	600	1	1	3	0.0864	0.0500	0	1	0.605	75	82	82
33	1	601	1	1	3	0.0864	0.0500	1	1	0.748	60	82	0
33	1	602	0	1	3	0.0864	0.0500	0	0	0.553	0	0	0
33	1	603	9	1	3	0.0864	0.0500	1	1	0.411	0	82	0
33	1	604	1	2	2	0.0864	0.0500	0	1	0.476	87	82	82
33	1	605	1	1	1	0.0864	0.0500	0	1	0.637	71	82	82
33	1	606	9	2	3	0.0864	0.0500	0	1	0.490	0	82	82
33	1	607	0	2	3	0.0864	0.0500	1	1	0.518	8	82	0
33	1	608	1	2	2	0.0864	0.0500	1	1	0.542	81	0	82
33	1	609	1	2	3	0.0864	0.0500	1	1	0.470	88	0	82
33	1	610	9	1	1	0.0864	0.0500	1	1	0.428	0	0	82
33	1	611	1	2	2	0.0864	0.0500	0	1	0.466	88	82	82
33	1	612	1	1	3	0.0864	0.0500	1	1	0.504	85	82	0
33	1	613	9	2	2	0.0864	0.0500	1	1	0.452	0	0	82
33	1	614	0	2	3	0.0864	0.0500	0	0	0.469	0	0	0
33	1	615	1	1	3	0.0864	0.0500	1	1	0.536	81	82	0
33	1	616	9	2	2	0.0864	0.0500	0	1	0.503	0	82	82
33	1	617	1	1	1	0.0864	0.0500	1	1	0.471	88	82	0
33	1	618	0	1	1	0.0864	0.0500	1	1	0.432	9	0	82
33	1	619	1	1	3	0.0864	0.0500	0	0	0.459	0	82	82
33	1	620	1	1	3	0.0864	0.0500	1	1	0.466	88	82	0
33	1	621	9	1	3	0.0864	0.0500	0	1	0.711	0	0	0
33	1	622	0	2	2	0.0864	0.0500	1	0	0.634	0	82	0
33	1	623	9	2	2	0.0864	0.0500	1	1	0.587	0	0	82
33	1	624	1	1	1	0.0864	0.0500	1	1	0.451	90	82	0
33	1	625	1	2	3	0.0864	0.0500	0	0	0.596	0	82	82
33	1	626	0	2	2	0.0864	0.0500	0	1	0.608	7	0	0
33	1	627	1	2	2	0.0864	0.0500	1	1	0.550	80	0	82
33	1	628	0	1	3	0.0864	0.0500	1	1	0.591	8	0	82
33	1	629	9	2	2	0.0864	0.0500	1	1	0.701	0	0	82
33	1	630	0	2	3	0.0864	0.0500	0	1	0.712	6	0	0
33	1	631	0	2	2	0.0864	0.0500	0	1	1.242	5	0	0
33	1	632	1	1	1	0.0864	0.0500	1	1	0.469	88	82	0
33	1	633	9	1	1	0.0864	0.0500	1	1	0.683	0	0	82
33	1	634	0	2	3	0.0864	0.0500	1	1	0.545	8	82	0
33	1	635	0	1	1	0.0864	0.0500	0	1	0.815	5	0	0
33	1	636	0	2	2	0.0864	0.0500	0	1	0.694	7	0	0
33	1	637	1	1	3	0.0864	0.0500	0	0	0.723	0	82	82
33	1	638	0	1	3	0.0864	0.0500	0	1	0.540	8	0	0
33	1	639	0	2	3	0.0864	0.0500	0	1	0.541	8	0	0
33	1	640	9	1	3	0.0864	0.0500	0	1	0.453	0	82	82
33	1	641	0	1	2	0.0864	0.0500	1	1	0.624	7	0	82
33	1	642	1	2	3	0.0864	0.0500	1	1	0.537	81	0	82
33	1	643	0	2	1	0.0864	0.0500	1	0	0.536	0	82	0
33	1	644	0	1	1	0.0864	0.0500	1	1	0.527	8	0	82
33	1	645	1	2	2	0.0864	0.0500	1	1	0.458	89	0	82
33	1	646	1	2	2	0.0864	0.0500	0	1	0.487	86	82	82
33	1	647	1	1	3	0.0864	0.0500	0	0	0.487	0	82	82
33	1	648	9	1	3	0.0864	0.0500	1	1	0.531	0	0	82
33	1	649	1	1	2	0.0864	0.0500	0	0	0.484	0	82	82
33	1	650	0	2	2	0.0864	0.0500	1	1	0.457	9	82	0
33	1	651	1	1	3	0.0864	0.0500	1	1	0.426	92	82	0
33	1	652	1	2	2	0.0864	0.0500	0	1	0.501	85	82	82
33	1	653	1	1	1	0.0864	0.0500	1	1	0.608	74	82	0
33	1	654	1	2	3	0.0864	0.0500	1	1	0.484	87	0	82
33	1	655	0	2	2	0.0864	0.0500	1	1	0.635	7	82	0
33	1	656	1	2	2	0.0864	0.0500	0	0	0.513	0	82	82
33	1	657	1	1	1	0.0864	0.0500	1	1	0.303	100	82	0
33	1	658	0	2	1	0.0864	0.0500	1	1	0.712	6	82	0
33	1	659	0	2	1	0.0864	0.0500	0	0	0.422	0	0	0
33	1	660	0	2	3	0.0864	0.0500	0	1	0.438	9	0	0
33	1	661	0	2	2	0.0864	0.0500	0	1	0.395	10	0	0
33	1	662	1	2	3	0.0864	0.0500	0	1	0.451	90	82	82
33	1	663	1	1	1	0.0864	0.0500	0	1	0.522	83	82	82
33	1	664	0	1	1	0.0864	0.0500	0	1	0.508	8	0	0
33	1	665	0	1	1	0.0864	0.0500	0	1	0.450	9	0	0
33	1	666	0	2	3	0.0864	0.0500	1	0	0.480	0	82	0
33	1	667	0	2	2	0.0864	0.0500	0	1	0.431	9	0	0
33	1	668	0	2	3	0.0864	0.0500	1	0	0.476	0	82	0
33	1	669	0	1	1	0.0864	0.0500	1	1	0.456	9	0	82
33	1	670	0	2	2	0.0864	0.0500	0	1	0.516	8	0	0
33	1	671	9	1	1	0.0864	0.0500	0	0	0.489	0	0	0
33	1	672	1	1	2	0.0864	0.0500	1	0	0.550	0	82	0
33	1	673	0	1	3	0.0864	0.0500	1	1	0.503	8	0	82
33	1	674	9	2	1	0.0864	0.0500	1	1	0.696	0	82	0
33	1	675	9	1	2	0.0864	0.0500	1	1	0.753	0	82	0
33	1	676	0	2	3	0.0864	0.0500	0	1	0.770	6	0	0
33	1	677	0	1	3	0.0864	0.0500	1	1	0.575	8	0	82
33	1	678	9	2	1	0.0864	0.0500	0	1	0.645	0	0	0
33	1	679	0	1	2	0.0864	0.0500	0	1	0.575	8	0	0
33	1	680	1	1	2	0.0864	0.0500	0	1	0.794	56	82	82
33	1	681	0	1	3	0.0864	0.0500	1	1	0.513	8	0	82
33	1	682	9	1	1	0.0864	0.0500	1	1	0.354	0	0	82
33	1	683	0	1	1	0.0864	0.0500	1	1	0.443	9	0	82
33	1	684	1	2	3	0.0864	0.0500	1	1	0.365	99	0	82
33	1	685	0	1	1	0.0864	0.0500	0	0	0.456	0	0	0
33	1	686	9	1	3	0.0864	0.0500	1	1	0.455	0	0	82
33	1	687	1	2	3	0.0864	0.0500	1	1	0.403	95	0	82
33	1	688	1	2	3	0.0864	0.0500	1	1	0.408	94	0	82
33	1	689	9	2	2	0.0864	0.0500	0	1	0.514	0	0	0
33	1	690	1	2	2	0.0864	0.0500	1	1	0.561	79	0	82
33	1	691	1	1	3	0.0864	0.0500	0	0	0.548	0	82	82
33	1	692	1	2	3	0.0864	0.0500	0	1	0.550	80	82	82
33	1	693	1	2	3	0.0864	0.0500	0	1	0.472	88	82	82
33	1	694	1	1	1	0.0864	0.0500	0	1	0.564	79	82	82
33	1	695	1	2	2	0.0864	0.0500	1	1	0.462	89	0	82
33	1	696	1	1	2	0.0864	0.0500	1	1	0.448	90	82	0
33	1	697	1	2	3	0.0864	0.0500	0	1	0.526	82	82	82
33	1	698	1	1	3	0.0864	0.0500	1	1	0.464	89	82	0
33	1	699	0	2	3	0.0864	0.0500	1	1	0.446	9	82	0
33	1	700	1	1	3	0.0864	0.0500	1	1	0.517	83	82	0
33	1	701	9	2	3	0.0864	0.0500	0	1	0.502	0	0	0
33	1	702	1	2	2	0.0864	0.0500	1	1	0.470	88	0	82
33	1	703	0	2	2	0.0864	0.0500	0	1	0.517	8	0	0
33	1	704	0	1	3	0.0864	0.0500	1	1	0.493	9	0	82
33	1	705	1	1	1	0.0864	0.0500	0	1	0.524	83	82	82
33	1	706	0	1	1	0.0864	0.0500	1	1	0.415	9	0	82
33	1	707	0	2	2	0.0864	0.0500	0	1	0.408	9	0	0
33	1	708	0	2	3	0.0864	0.0500	1	1	0.591	8	82	0
33	1	709	1	2	3	0.0864	0.0500	0	0	0.495	0	82	82
33	1	710	9	1	1	0.0864	0.0500	1	1	0.486	0	82	0
33	1	711	0	1	1	0.0864	0.0500	1	1	0.585	8	0	82
33	1	712	1	2	3	0.0864	0.0500	0	1	0.472	88	82	82
33	1	713	1	2	3	0.0864	0.0500	0	1	0.470	88	82	82
33	1	714	0	2	2	0.0864	0.0500	0	1	0.456	9	0	0
33	1	715	1	1	1	0.0864	0.0500	0	0	0.569	0	82	82
33	1	716	1	2	2	0.0864	0.0500	1	1	0.505	84	0	82
33	1	717	0	2	1	0.0864	0.0500	0	1	0.604	7	0	0
33	1	718	0	2	2	0.0864	0.0500	1	0	0.571	0	82	0
33	1	719	9	2	3	0.0864	0.0500	1	1	0.502	0	0	82
33	1	720	0	2	2	0.0864	0.0500	1	1	0.528	8	82	0
