sub	sess	t	loc	co1	co2	or	resp	rt
77	1	1	1	1.0000	1.0000	0	0	4.211
77	1	2	2	1.0000	1.0000	0	1	8.414
77	1	3	2	1.0000	1.0000	0	0	0.441
77	1	4	1	1.0000	1.0000	0	0	2.098
77	1	5	2	1.0000	1.0000	0	1	0.330
77	1	6	2	1.0000	1.0000	0	1	0.876
77	1	7	1	1.0000	1.0000	0	0	0.913
77	1	8	1	1.0000	1.0000	1	1	2.275
77	1	9	2	1.0000	1.0000	0	1	1.222
77	1	10	1	1.0000	1.0000	1	0	2.151
77	1	11	1	1.0000	1.0000	1	1	1.017
77	1	12	1	1.0000	1.0000	1	1	0.726
77	1	13	2	1.0000	1.0000	1	0	0.843
77	1	14	1	1.0000	1.0000	0	0	0.661
77	1	15	1	1.0000	1.0000	1	0	1.134
77	1	16	1	1.0000	1.0000	0	0	0.651
77	1	17	2	1.0000	1.0000	1	0	1.252
77	1	18	2	1.0000	1.0000	1	0	0.932
77	1	19	1	1.0000	1.0000	1	1	0.909
77	1	20	1	1.0000	1.0000	0	0	0.667
77	1	21	2	1.0000	1.0000	1	0	1.020
77	1	22	2	1.0000	1.0000	1	1	1.068
77	1	23	2	1.0000	1.0000	0	1	0.593
77	1	24	2	1.0000	1.0000	1	1	0.610
77	1	25	2	1.0000	1.0000	0	1	0.591
77	1	26	1	1.0000	1.0000	0	1	0.782
77	1	27	1	1.0000	1.0000	1	1	1.520
77	1	28	1	1.0000	1.0000	1	0	0.558
77	1	29	1	1.0000	1.0000	0	1	0.695
77	1	30	2	1.0000	1.0000	1	1	1.241
77	1	31	1	1.0000	1.0000	1	1	1.011
77	1	32	2	1.0000	1.0000	1	1	1.171
77	1	33	1	1.0000	1.0000	0	1	0.845
77	1	34	2	1.0000	1.0000	1	0	0.557
77	1	35	2	1.0000	1.0000	0	0	1.143
77	1	36	2	1.0000	1.0000	0	1	0.755
77	1	37	1	1.0000	1.0000	0	1	1.052
77	1	38	1	1.0000	1.0000	0	0	0.833
77	1	39	1	1.0000	1.0000	1	0	0.514
77	1	40	2	1.0000	1.0000	1	1	0.760
77	1	41	2	1.0000	1.0000	0	0	0.847
77	1	42	2	1.0000	1.0000	1	0	0.503
77	1	43	2	1.0000	1.0000	0	0	0.796
77	1	44	1	1.0000	1.0000	1	1	0.572
77	1	45	2	1.0000	1.0000	1	1	0.958
77	1	46	2	1.0000	1.0000	0	0	0.810
77	1	47	1	1.0000	1.0000	0	0	0.957
77	1	48	1	1.0000	1.0000	1	0	0.527
77	1	49	2	1.0000	1.0000	1	1	0.693
77	1	50	2	1.0000	1.0000	1	1	0.586
77	1	51	2	1.0000	1.0000	1	1	0.647
77	1	52	1	1.0000	1.0000	0	0	1.599
77	1	53	2	1.0000	1.0000	0	1	0.934
77	1	54	1	1.0000	1.0000	0	1	0.607
77	1	55	1	1.0000	1.0000	1	1	0.661
77	1	56	2	1.0000	1.0000	0	1	1.832
77	1	57	2	1.0000	1.0000	0	0	2.143
77	1	58	2	1.0000	1.0000	1	0	0.960
77	1	59	1	1.0000	1.0000	0	1	0.853
77	1	60	2	1.0000	1.0000	1	0	0.874
77	1	61	1	1.0000	1.0000	1	1	0.773
77	1	62	1	1.0000	1.0000	0	0	0.809
77	1	63	2	1.0000	1.0000	0	0	0.567
77	1	64	1	1.0000	1.0000	1	1	0.868
77	1	65	1	1.0000	1.0000	1	0	0.962
77	1	66	1	1.0000	1.0000	1	1	0.775
77	1	67	1	1.0000	1.0000	0	0	0.654
77	1	68	2	1.0000	1.0000	0	1	1.147
77	1	69	1	1.0000	1.0000	1	0	0.713
77	1	70	2	1.0000	1.0000	0	0	0.762
77	1	71	1	1.0000	1.0000	0	1	0.448
77	1	72	2	1.0000	1.0000	1	0	0.564
77	1	73	1	1.0000	1.0000	1	1	0.631
77	1	74	1	1.0000	1.0000	1	0	0.523
77	1	75	2	1.0000	1.0000	1	1	1.193
77	1	76	2	1.0000	1.0000	1	1	0.643
77	1	77	2	1.0000	1.0000	0	0	0.561
77	1	78	1	1.0000	1.0000	0	1	1.312
77	1	79	1	1.0000	1.0000	1	1	1.770
77	1	80	2	1.0000	1.0000	0	1	1.568
77	1	81	2	1.0000	1.0000	0	0	0.914
77	1	82	2	1.0000	1.0000	0	1	1.625
77	1	83	2	1.0000	1.0000	0	1	1.533
77	1	84	1	1.0000	1.0000	0	1	2.553
77	1	85	1	1.0000	1.0000	1	1	1.832
77	1	86	2	1.0000	1.0000	1	1	1.606
77	1	87	1	1.0000	1.0000	0	0	2.211
77	1	88	2	1.0000	1.0000	0	1	0.774
77	1	89	2	1.0000	1.0000	1	0	1.594
77	1	90	1	1.0000	1.0000	1	0	1.453
77	1	91	1	1.0000	1.0000	1	1	0.591
77	1	92	1	1.0000	1.0000	0	1	1.244
77	1	93	2	1.0000	1.0000	1	0	3.210
77	1	94	1	1.0000	1.0000	0	0	1.220
77	1	95	2	1.0000	1.0000	1	1	1.160
77	1	96	1	1.0000	1.0000	0	1	3.108
77	1	97	2	1.0000	1.0000	0	0	1.004
77	1	98	1	1.0000	1.0000	0	1	0.745
77	1	99	1	1.0000	1.0000	1	0	0.835
77	1	100	1	1.0000	1.0000	0	0	1.473
77	1	101	1	1.0000	1.0000	1	0	0.461
77	1	102	1	1.0000	1.0000	0	0	0.592
77	1	103	2	1.0000	1.0000	1	0	0.718
77	1	104	1	1.0000	1.0000	0	0	0.609
77	1	105	1	1.0000	1.0000	1	0	0.658
77	1	106	1	1.0000	1.0000	0	1	0.959
77	1	107	1	1.0000	1.0000	1	1	1.405
77	1	108	1	1.0000	1.0000	1	1	1.748
77	1	109	2	1.0000	1.0000	0	1	1.069
77	1	110	2	1.0000	1.0000	0	0	1.114
77	1	111	2	1.0000	1.0000	1	0	0.770
77	1	112	2	1.0000	1.0000	1	1	0.581
77	1	113	2	1.0000	1.0000	1	0	1.339
77	1	114	2	1.0000	1.0000	0	1	1.057
77	1	115	1	1.0000	1.0000	1	0	1.145
77	1	116	2	1.0000	1.0000	0	0	1.660
77	1	117	2	1.0000	1.0000	0	1	1.459
77	1	118	2	1.0000	1.0000	1	0	1.623
77	1	119	2	1.0000	1.0000	1	1	1.398
77	1	120	1	1.0000	1.0000	0	0	2.222
77	1	121	1	1.0000	1.0000	0	1	1.207
77	1	122	2	1.0000	1.0000	1	0	1.010
77	1	123	2	1.0000	1.0000	0	0	1.018
77	1	124	2	1.0000	1.0000	1	0	0.542
77	1	125	2	1.0000	1.0000	0	0	0.646
77	1	126	2	1.0000	1.0000	0	1	0.539
77	1	127	2	1.0000	1.0000	0	0	0.764
77	1	128	2	1.0000	1.0000	1	0	0.126
77	1	129	1	1.0000	1.0000	0	0	1.033
77	1	130	2	1.0000	1.0000	0	1	0.486
77	1	131	1	1.0000	1.0000	1	0	1.504
77	1	132	1	1.0000	1.0000	1	1	1.992
77	1	133	2	1.0000	1.0000	1	1	0.817
77	1	134	2	1.0000	1.0000	1	0	0.659
77	1	135	1	1.0000	1.0000	0	1	3.010
77	1	136	2	1.0000	1.0000	1	0	1.429
77	1	137	2	1.0000	1.0000	0	0	3.364
77	1	138	1	1.0000	1.0000	0	1	2.406
77	1	139	1	1.0000	1.0000	1	1	3.055
77	1	140	1	1.0000	1.0000	0	0	1.999
77	1	141	1	1.0000	1.0000	1	1	1.948
77	1	142	1	1.0000	1.0000	1	1	1.732
77	1	143	1	1.0000	1.0000	1	0	3.480
77	1	144	1	1.0000	1.0000	0	1	1.765
77	1	145	2	1.0000	1.0000	0	0	1.867
77	1	146	2	1.0000	1.0000	0	1	1.095
77	1	147	2	1.0000	1.0000	0	1	2.393
77	1	148	2	1.0000	1.0000	1	0	3.863
77	1	149	2	1.0000	1.0000	1	0	1.161
77	1	150	2	1.0000	1.0000	0	0	1.746
77	1	151	1	1.0000	1.0000	0	1	0.887
77	1	152	1	1.0000	1.0000	0	1	1.565
77	1	153	1	1.0000	1.0000	0	0	2.446
77	1	154	1	1.0000	1.0000	0	1	1.399
77	1	155	1	1.0000	1.0000	1	1	1.660
77	1	156	1	1.0000	1.0000	0	0	1.003
77	1	157	1	1.0000	1.0000	1	0	0.541
77	1	158	1	1.0000	1.0000	1	1	1.402
77	1	159	2	1.0000	1.0000	0	1	2.390
77	1	160	2	1.0000	1.0000	1	0	1.011
77	1	161	1	1.0000	1.0000	1	1	1.567
77	1	162	1	1.0000	1.0000	1	1	1.179
77	1	163	2	1.0000	1.0000	1	1	0.617
77	1	164	2	1.0000	1.0000	1	1	0.524
77	1	165	1	1.0000	1.0000	1	0	0.583
77	1	166	2	1.0000	1.0000	1	0	1.363
77	1	167	2	1.0000	1.0000	0	1	1.635
77	1	168	1	1.0000	1.0000	0	1	1.157
77	1	169	1	1.0000	1.0000	1	1	1.594
77	1	170	1	1.0000	1.0000	1	1	1.375
77	1	171	1	1.0000	1.0000	0	1	1.562
77	1	172	2	1.0000	1.0000	0	0	0.608
77	1	173	1	1.0000	1.0000	1	1	0.726
77	1	174	1	1.0000	1.0000	1	1	0.641
77	1	175	2	1.0000	1.0000	0	1	0.595
77	1	176	2	1.0000	1.0000	0	1	0.399
77	1	177	1	1.0000	1.0000	0	0	0.703
77	1	178	1	1.0000	1.0000	0	1	0.480
77	1	179	2	1.0000	1.0000	1	1	0.551
77	1	180	2	1.0000	1.0000	0	0	0.789
77	1	181	2	1.0000	1.0000	0	1	0.899
77	1	182	2	1.0000	1.0000	1	0	1.242
77	1	183	1	1.0000	1.0000	1	0	0.604
77	1	184	1	1.0000	1.0000	0	0	0.547
77	1	185	2	1.0000	1.0000	1	0	0.450
77	1	186	2	1.0000	1.0000	1	1	0.381
77	1	187	1	1.0000	1.0000	0	1	0.447
77	1	188	2	1.0000	1.0000	0	0	0.511
77	1	189	2	1.0000	1.0000	1	0	0.479
77	1	190	1	1.0000	1.0000	1	0	0.639
77	1	191	1	1.0000	1.0000	0	0	0.388
77	1	192	2	1.0000	1.0000	1	0	0.320
77	1	193	1	1.0000	1.0000	1	0	0.768
77	1	194	1	1.0000	1.0000	0	0	0.382
77	1	195	2	1.0000	1.0000	1	0	0.455
77	1	196	2	1.0000	1.0000	1	0	0.926
77	1	197	2	1.0000	1.0000	0	0	0.582
77	1	198	1	1.0000	1.0000	1	0	1.104
77	1	199	1	1.0000	1.0000	0	0	0.487
77	1	200	2	1.0000	1.0000	1	1	0.267
77	1	201	1	1.0000	1.0000	0	1	0.464
77	1	202	1	1.0000	1.0000	0	0	1.011
77	1	203	1	1.0000	1.0000	0	1	0.418
77	1	204	2	1.0000	1.0000	0	0	0.578
77	1	205	2	1.0000	1.0000	0	1	0.676
77	1	206	2	1.0000	1.0000	1	0	0.461
77	1	207	1	1.0000	1.0000	1	0	0.912
77	1	208	1	1.0000	1.0000	1	1	2.142
77	1	209	2	1.0000	1.0000	0	1	0.380
77	1	210	1	1.0000	1.0000	0	0	0.461
77	1	211	1	1.0000	1.0000	1	0	0.774
77	1	212	2	1.0000	1.0000	0	1	0.628
77	1	213	2	1.0000	1.0000	1	0	0.420
77	1	214	2	1.0000	1.0000	0	1	1.216
77	1	215	2	1.0000	1.0000	1	0	1.012
77	1	216	1	1.0000	1.0000	1	0	0.540
77	1	217	2	1.0000	1.0000	1	1	1.000
77	1	218	1	1.0000	1.0000	1	0	0.407
77	1	219	2	1.0000	1.0000	0	1	0.440
77	1	220	2	1.0000	1.0000	1	0	0.416
77	1	221	1	1.0000	1.0000	0	1	0.613
77	1	222	2	1.0000	1.0000	1	1	0.575
77	1	223	1	1.0000	1.0000	0	1	0.527
77	1	224	1	1.0000	1.0000	1	0	0.481
77	1	225	1	1.0000	1.0000	1	1	0.840
77	1	226	1	1.0000	1.0000	0	0	0.693
77	1	227	1	1.0000	1.0000	1	0	0.928
77	1	228	1	1.0000	1.0000	0	1	1.522
77	1	229	2	1.0000	1.0000	0	0	1.053
