sub	sess	t	rew	loc	cue	co1	co2	or	resp	rt	rew_tot	left_col	right_col
132	1	1	9	1	1	0.2072	0.2728	0	1	0.714	0	0	0
132	1	2	0	2	2	0.2072	0.2728	0	1	0.805	5	82	82
132	1	3	0	1	1	0.2072	0.2728	0	1	0.622	7	82	82
132	1	4	0	1	1	0.2072	0.2728	1	1	0.760	6	82	0
132	1	5	9	1	3	0.2072	0.2728	1	1	0.565	0	82	0
132	1	6	0	1	1	0.2072	0.2728	1	1	0.417	9	82	0
132	1	7	0	1	3	0.2072	0.2728	0	1	0.521	8	82	82
132	1	8	0	2	3	0.2072	0.2728	1	1	0.733	6	0	82
132	1	9	0	2	3	0.2072	0.2728	1	1	0.537	8	0	82
132	1	10	9	2	3	0.2072	0.2728	1	1	0.604	0	82	0
132	1	11	1	1	1	0.2072	0.2728	0	1	0.568	78	0	0
132	1	12	9	2	1	0.2072	0.2728	0	1	0.643	0	82	82
132	1	13	1	2	3	0.2072	0.2728	1	1	0.517	83	82	0
132	1	14	1	1	1	0.2072	0.2728	0	1	0.513	84	0	0
132	1	15	9	2	3	0.2072	0.2728	1	1	0.495	0	82	0
132	1	16	0	2	2	0.2072	0.2728	1	1	0.566	8	0	82
132	1	17	0	1	2	0.2072	0.2728	0	1	0.578	8	82	82
132	1	18	1	2	2	0.2072	0.2728	0	1	0.468	88	0	0
132	1	19	1	1	3	0.2072	0.2728	0	1	0.609	74	0	0
132	1	20	9	1	1	0.2072	0.2728	0	1	0.408	0	82	82
132	1	21	0	2	2	0.2072	0.2728	1	1	0.669	7	0	82
132	1	22	0	1	3	0.2072	0.2728	1	1	0.746	6	82	0
132	1	23	1	1	2	0.2072	0.2728	1	0	0.726	0	0	82
132	1	24	1	1	1	0.2072	0.2728	0	1	0.682	67	0	0
132	1	25	0	1	1	0.2072	0.2728	1	1	0.630	7	82	0
132	1	26	9	1	3	0.2072	0.2728	0	1	0.503	0	0	0
132	1	27	1	2	2	0.2072	0.2728	0	1	0.627	72	0	0
132	1	28	1	1	1	0.2072	0.2728	0	1	0.594	76	0	0
132	1	29	1	2	3	0.2072	0.2728	1	1	0.458	89	82	0
132	1	30	9	2	2	0.2072	0.2728	0	1	0.640	0	82	82
132	1	31	0	2	2	0.2072	0.2728	1	1	0.554	8	0	82
132	1	32	0	2	3	0.2072	0.2728	0	1	0.404	9	82	82
132	1	33	0	1	3	0.2072	0.2728	0	0	0.524	0	82	82
132	1	34	0	2	1	0.2072	0.2728	0	1	0.623	7	82	82
132	1	35	9	1	2	0.2072	0.2728	1	1	0.487	0	82	0
132	1	36	9	1	1	0.2072	0.2728	0	1	0.508	0	0	0
132	1	37	1	1	3	0.2072	0.2728	0	1	0.610	74	0	0
132	1	38	1	1	3	0.2072	0.2728	1	1	0.634	72	0	82
132	1	39	1	2	1	0.2072	0.2728	0	1	0.410	94	0	0
132	1	40	1	2	3	0.2072	0.2728	1	0	0.562	0	82	0
132	1	41	9	2	3	0.2072	0.2728	0	1	0.661	0	0	0
132	1	42	9	1	1	0.2072	0.2728	0	1	0.509	0	82	82
132	1	43	1	1	1	0.2072	0.2728	0	1	0.474	88	0	0
132	1	44	1	1	2	0.2072	0.2728	1	1	0.624	73	0	82
132	1	45	1	2	3	0.2072	0.2728	0	1	0.593	76	0	0
132	1	46	0	1	1	0.2072	0.2728	1	1	0.592	8	82	0
132	1	47	1	1	1	0.2072	0.2728	1	1	0.636	71	0	82
132	1	48	9	2	1	0.2072	0.2728	0	1	0.525	0	0	0
132	1	49	9	2	3	0.2072	0.2728	0	1	0.466	0	0	0
132	1	50	1	2	2	0.2072	0.2728	1	1	0.439	91	82	0
132	1	51	0	2	2	0.2072	0.2728	1	1	0.431	9	0	82
132	1	52	1	2	3	0.2072	0.2728	0	1	0.503	85	0	0
132	1	53	1	2	2	0.2072	0.2728	0	1	0.316	100	0	0
132	1	54	1	1	3	0.2072	0.2728	0	1	0.696	65	0	0
132	1	55	0	2	1	0.2072	0.2728	1	0	0.684	0	0	82
132	1	56	0	1	1	0.2072	0.2728	1	1	0.498	9	82	0
132	1	57	1	2	3	0.2072	0.2728	0	1	0.295	100	0	0
132	1	58	0	2	2	0.2072	0.2728	0	1	0.324	10	82	82
132	1	59	9	1	1	0.2072	0.2728	1	1	0.449	0	82	0
132	1	60	0	2	1	0.2072	0.2728	1	1	0.418	9	0	82
132	1	61	0	2	3	0.2072	0.2728	0	1	0.522	8	82	82
132	1	62	0	2	2	0.2072	0.2728	0	1	0.414	9	82	82
132	1	63	1	2	3	0.2072	0.2728	1	1	0.535	81	82	0
132	1	64	0	1	1	0.2072	0.2728	1	1	0.337	10	82	0
132	1	65	9	2	3	0.2072	0.2728	0	1	0.388	0	82	82
132	1	66	1	2	2	0.2072	0.2728	0	1	0.375	97	0	0
132	1	67	0	2	1	0.2072	0.2728	0	1	0.392	10	82	82
132	1	68	9	1	1	0.2072	0.2728	1	1	0.378	0	0	82
132	1	69	9	2	2	0.2072	0.2728	1	1	0.485	0	82	0
132	1	70	9	1	1	0.2072	0.2728	0	1	0.381	0	0	0
132	1	71	9	1	1	0.2072	0.2728	1	1	0.615	0	82	0
132	1	72	9	2	2	0.2072	0.2728	1	0	0.401	0	0	82
132	1	73	0	1	1	0.2072	0.2728	0	1	0.416	9	82	82
132	1	74	9	1	3	0.2072	0.2728	0	1	0.601	0	82	82
132	1	75	0	1	1	0.2072	0.2728	0	1	0.602	7	82	82
132	1	76	1	1	2	0.2072	0.2728	1	0	0.587	0	0	82
132	1	77	1	2	2	0.2072	0.2728	1	1	0.373	98	82	0
132	1	78	9	2	2	0.2072	0.2728	0	1	0.480	0	0	0
132	1	79	9	2	1	0.2072	0.2728	1	1	0.472	0	82	0
132	1	80	9	1	3	0.2072	0.2728	0	1	0.589	0	0	0
132	1	81	0	2	1	0.2072	0.2728	0	1	0.437	9	82	82
132	1	82	0	1	3	0.2072	0.2728	1	0	0.669	0	82	0
132	1	83	0	1	3	0.2072	0.2728	1	1	0.482	9	82	0
132	1	84	1	1	3	0.2072	0.2728	1	1	0.456	89	0	82
132	1	85	1	2	3	0.2072	0.2728	1	1	0.608	74	82	0
132	1	86	0	1	3	0.2072	0.2728	1	1	0.465	9	82	0
132	1	87	1	1	2	0.2072	0.2728	0	1	0.511	84	0	0
132	1	88	0	1	1	0.2072	0.2728	0	1	0.452	9	82	82
132	1	89	1	1	1	0.2072	0.2728	1	1	0.546	80	0	82
132	1	90	1	2	3	0.2072	0.2728	1	1	0.524	83	82	0
132	1	91	1	2	3	0.2072	0.2728	1	1	0.440	91	82	0
132	1	92	0	1	1	0.2072	0.2728	0	1	0.560	8	82	82
132	1	93	1	1	1	0.2072	0.2728	1	1	0.386	96	0	82
132	1	94	0	2	1	0.2072	0.2728	0	1	0.466	9	82	82
132	1	95	0	2	2	0.2072	0.2728	1	1	0.368	10	0	82
132	1	96	0	2	2	0.2072	0.2728	1	1	0.378	10	0	82
132	1	97	1	1	3	0.2072	0.2728	1	1	0.572	78	0	82
132	1	98	9	1	3	0.2072	0.2728	1	1	0.568	0	82	0
132	1	99	0	1	1	0.2072	0.2728	0	1	0.417	9	82	82
132	1	100	1	2	3	0.2072	0.2728	0	1	0.459	89	0	0
132	1	101	0	1	3	0.2072	0.2728	0	1	0.454	9	82	82
132	1	102	1	1	3	0.2072	0.2728	0	1	0.535	81	0	0
132	1	103	0	1	1	0.2072	0.2728	0	1	0.589	8	82	82
132	1	104	0	2	3	0.2072	0.2728	0	1	0.431	9	82	82
132	1	105	1	2	1	0.2072	0.2728	1	1	0.390	96	82	0
132	1	106	0	2	3	0.2072	0.2728	0	1	0.478	9	82	82
132	1	107	0	1	3	0.2072	0.2728	0	1	0.548	8	82	82
132	1	108	9	1	2	0.2072	0.2728	0	0	0.432	0	0	0
132	1	109	1	2	3	0.2072	0.2728	0	1	0.432	92	0	0
132	1	110	9	2	1	0.2072	0.2728	1	1	0.583	0	0	82
132	1	111	1	2	3	0.2072	0.2728	0	1	0.395	95	0	0
132	1	112	0	2	3	0.2072	0.2728	0	1	0.365	10	82	82
132	1	113	9	1	3	0.2072	0.2728	1	1	0.350	0	0	82
132	1	114	0	1	3	0.2072	0.2728	1	1	0.567	8	82	0
132	1	115	0	1	1	0.2072	0.2728	0	0	0.530	0	82	82
132	1	116	1	1	3	0.2072	0.2728	1	1	0.628	72	0	82
132	1	117	0	1	1	0.2072	0.2728	0	1	0.439	9	82	82
132	1	118	0	2	2	0.2072	0.2728	1	0	0.790	0	0	82
132	1	119	1	1	1	0.2072	0.2728	1	1	0.402	95	0	82
132	1	120	0	1	3	0.2072	0.2728	1	1	0.627	7	82	0
132	1	121	0	1	2	0.2072	0.2728	1	1	0.619	7	82	0
132	1	122	1	2	2	0.2072	0.2728	1	0	0.918	0	82	0
132	1	123	1	1	1	0.2072	0.2728	1	1	0.458	89	0	82
132	1	124	9	1	3	0.2072	0.2728	1	1	0.472	0	82	0
132	1	125	9	1	3	0.2072	0.2728	0	1	0.407	0	0	0
132	1	126	0	2	2	0.2072	0.2728	0	1	0.449	9	82	82
132	1	127	9	2	2	0.2072	0.2728	1	1	0.559	0	82	0
132	1	128	1	1	1	0.2072	0.2728	1	1	0.505	84	0	82
132	1	129	1	2	1	0.2072	0.2728	1	0	0.567	0	82	0
132	1	130	1	2	3	0.2072	0.2728	1	1	0.411	94	82	0
132	1	131	9	1	1	0.2072	0.2728	1	1	0.364	0	0	82
132	1	132	1	2	1	0.2072	0.2728	1	1	0.340	100	82	0
132	1	133	0	2	2	0.2072	0.2728	1	1	0.591	8	0	82
132	1	134	1	1	3	0.2072	0.2728	1	0	0.827	0	0	82
132	1	135	9	2	2	0.2072	0.2728	0	1	0.497	0	82	82
132	1	136	1	1	3	0.2072	0.2728	1	1	0.566	78	0	82
132	1	137	1	2	2	0.2072	0.2728	1	1	0.352	100	82	0
132	1	138	0	2	3	0.2072	0.2728	1	0	0.508	0	0	82
132	1	139	1	1	1	0.2072	0.2728	0	1	0.489	86	0	0
132	1	140	1	1	1	0.2072	0.2728	1	1	0.401	95	0	82
132	1	141	0	2	2	0.2072	0.2728	0	1	0.509	8	82	82
132	1	142	9	2	3	0.2072	0.2728	1	1	0.531	0	0	82
132	1	143	0	2	3	0.2072	0.2728	1	1	0.513	8	0	82
132	1	144	0	1	1	0.2072	0.2728	0	1	0.454	9	82	82
132	1	145	1	2	2	0.2072	0.2728	1	1	0.349	100	82	0
132	1	146	1	1	3	0.2072	0.2728	0	0	0.494	0	0	0
132	1	147	1	1	3	0.2072	0.2728	0	1	0.538	81	0	0
132	1	148	1	2	3	0.2072	0.2728	1	0	1.232	0	82	0
132	1	149	1	2	2	0.2072	0.2728	0	1	0.417	93	0	0
132	1	150	1	1	3	0.2072	0.2728	1	1	0.393	96	0	82
132	1	151	1	2	2	0.2072	0.2728	0	1	0.499	85	0	0
132	1	152	0	1	3	0.2072	0.2728	1	1	0.536	8	82	0
132	1	153	0	1	1	0.2072	0.2728	1	1	0.548	8	82	0
132	1	154	9	1	2	0.2072	0.2728	0	0	0.576	0	82	82
132	1	155	9	2	3	0.2072	0.2728	0	1	0.499	0	0	0
132	1	156	9	1	3	0.2072	0.2728	1	1	0.800	0	82	0
132	1	157	0	1	3	0.2072	0.2728	0	1	0.616	7	82	82
132	1	158	0	1	3	0.2072	0.2728	1	1	0.560	8	82	0
132	1	159	1	2	2	0.2072	0.2728	0	1	0.418	93	0	0
132	1	160	0	1	3	0.2072	0.2728	0	0	0.612	0	82	82
132	1	161	0	1	1	0.2072	0.2728	0	0	0.505	0	82	82
132	1	162	0	1	3	0.2072	0.2728	0	1	0.600	8	82	82
132	1	163	0	1	1	0.2072	0.2728	1	1	0.674	7	82	0
132	1	164	0	2	2	0.2072	0.2728	0	1	0.386	10	82	82
132	1	165	9	2	2	0.2072	0.2728	1	1	0.420	0	82	0
132	1	166	1	1	1	0.2072	0.2728	1	1	0.366	98	0	82
132	1	167	1	1	1	0.2072	0.2728	1	1	0.312	100	0	82
132	1	168	1	2	1	0.2072	0.2728	1	1	0.301	100	82	0
132	1	169	1	1	1	0.2072	0.2728	0	1	0.451	90	0	0
132	1	170	0	2	3	0.2072	0.2728	0	1	0.347	10	82	82
132	1	171	9	1	1	0.2072	0.2728	1	1	0.360	0	82	0
132	1	172	0	2	3	0.2072	0.2728	1	1	0.377	10	0	82
132	1	173	0	2	2	0.2072	0.2728	1	0	0.612	0	0	82
132	1	174	1	1	3	0.2072	0.2728	0	1	0.383	97	0	0
132	1	175	9	1	2	0.2072	0.2728	1	1	0.384	0	0	82
132	1	176	1	1	1	0.2072	0.2728	0	0	0.387	0	0	0
132	1	177	1	2	3	0.2072	0.2728	1	1	0.349	100	82	0
132	1	178	1	2	2	0.2072	0.2728	1	1	0.321	100	82	0
132	1	179	9	1	1	0.2072	0.2728	0	1	0.591	0	0	0
132	1	180	0	2	3	0.2072	0.2728	0	1	0.553	8	82	82
132	1	181	9	1	3	0.2072	0.2728	1	1	0.379	0	0	82
132	1	182	0	1	3	0.2072	0.2728	0	0	0.518	0	82	82
132	1	183	0	2	3	0.2072	0.2728	0	1	0.451	9	82	82
132	1	184	1	1	3	0.2072	0.2728	1	1	0.381	97	0	82
132	1	185	1	2	3	0.2072	0.2728	1	1	0.329	100	82	0
132	1	186	0	2	3	0.2072	0.2728	1	0	0.581	0	0	82
132	1	187	1	2	1	0.2072	0.2728	0	0	0.808	0	0	0
132	1	188	0	2	2	0.2072	0.2728	1	1	0.600	8	0	82
132	1	189	0	2	3	0.2072	0.2728	1	1	0.633	7	0	82
132	1	190	9	2	2	0.2072	0.2728	0	1	0.361	0	0	0
132	1	191	0	2	2	0.2072	0.2728	0	1	0.365	10	82	82
132	1	192	0	1	1	0.2072	0.2728	1	1	0.417	9	82	0
132	1	193	1	1	1	0.2072	0.2728	0	1	0.547	80	0	0
132	1	194	0	2	3	0.2072	0.2728	0	1	0.390	10	82	82
132	1	195	9	1	3	0.2072	0.2728	1	1	0.368	0	0	82
132	1	196	1	1	3	0.2072	0.2728	0	1	0.355	99	0	0
132	1	197	1	1	1	0.2072	0.2728	0	1	0.472	88	0	0
132	1	198	9	2	2	0.2072	0.2728	1	1	0.536	0	0	82
132	1	199	9	2	2	0.2072	0.2728	0	1	0.460	0	82	82
132	1	200	1	1	3	0.2072	0.2728	0	1	0.427	92	0	0
132	1	201	1	2	3	0.2072	0.2728	0	1	0.352	100	0	0
132	1	202	0	1	1	0.2072	0.2728	1	1	0.437	9	82	0
132	1	203	1	1	3	0.2072	0.2728	0	1	0.555	79	0	0
132	1	204	1	1	1	0.2072	0.2728	0	1	0.360	99	0	0
132	1	205	9	1	3	0.2072	0.2728	0	1	0.436	0	82	82
132	1	206	9	2	3	0.2072	0.2728	1	1	0.412	0	82	0
132	1	207	0	1	1	0.2072	0.2728	1	1	0.437	9	82	0
132	1	208	0	1	3	0.2072	0.2728	0	1	0.543	8	82	82
132	1	209	1	2	2	0.2072	0.2728	1	1	0.371	98	82	0
132	1	210	0	2	2	0.2072	0.2728	0	1	0.381	10	82	82
132	1	211	0	2	3	0.2072	0.2728	0	1	0.368	10	82	82
132	1	212	1	2	2	0.2072	0.2728	0	1	0.292	100	0	0
132	1	213	0	2	1	0.2072	0.2728	1	0	0.448	0	0	82
132	1	214	0	1	1	0.2072	0.2728	1	1	0.408	9	82	0
132	1	215	1	1	2	0.2072	0.2728	0	1	0.561	79	0	0
132	1	216	0	2	2	0.2072	0.2728	0	1	0.413	9	82	82
132	1	217	1	1	2	0.2072	0.2728	0	1	0.467	88	0	0
132	1	218	1	2	2	0.2072	0.2728	1	1	0.411	94	82	0
132	1	219	1	1	3	0.2072	0.2728	1	1	0.516	83	0	82
132	1	220	0	2	3	0.2072	0.2728	1	0	0.496	0	0	82
132	1	221	0	2	2	0.2072	0.2728	1	1	0.521	8	0	82
132	1	222	1	1	1	0.2072	0.2728	0	1	0.518	83	0	0
132	1	223	1	1	3	0.2072	0.2728	1	0	0.467	0	0	82
132	1	224	0	1	3	0.2072	0.2728	1	1	0.515	8	82	0
132	1	225	1	2	2	0.2072	0.2728	0	1	0.328	100	0	0
132	1	226	1	2	2	0.2072	0.2728	1	1	0.371	98	82	0
132	1	227	0	1	3	0.2072	0.2728	0	1	0.454	9	82	82
132	1	228	1	2	2	0.2072	0.2728	1	1	0.388	96	82	0
132	1	229	1	1	3	0.2072	0.2728	0	1	0.471	88	0	0
132	1	230	0	1	3	0.2072	0.2728	0	0	0.477	0	82	82
132	1	231	9	2	2	0.2072	0.2728	1	0	0.498	0	0	82
132	1	232	1	2	2	0.2072	0.2728	1	1	0.401	95	82	0
132	1	233	1	2	2	0.2072	0.2728	1	1	0.434	92	82	0
132	1	234	0	2	2	0.2072	0.2728	1	1	0.369	10	0	82
132	1	235	1	1	3	0.2072	0.2728	1	1	0.765	59	0	82
132	1	236	1	2	3	0.2072	0.2728	0	1	0.360	99	0	0
132	1	237	0	1	1	0.2072	0.2728	0	0	0.369	0	82	82
132	1	238	1	1	1	0.2072	0.2728	0	1	0.499	85	0	0
132	1	239	0	2	2	0.2072	0.2728	1	0	0.448	0	0	82
132	1	240	1	2	1	0.2072	0.2728	0	1	0.473	88	0	0
132	1	241	9	2	3	0.2072	0.2728	1	1	0.421	0	82	0
132	1	242	9	1	3	0.2072	0.2728	1	1	0.516	0	0	82
132	1	243	9	2	3	0.2072	0.2728	1	0	0.472	0	0	82
132	1	244	0	1	3	0.2072	0.2728	1	1	0.552	8	82	0
132	1	245	9	1	3	0.2072	0.2728	0	0	0.468	0	82	82
132	1	246	9	2	2	0.2072	0.2728	1	1	0.372	0	82	0
132	1	247	1	2	1	0.2072	0.2728	0	1	0.654	70	0	0
132	1	248	1	2	3	0.2072	0.2728	0	1	0.605	75	0	0
132	1	249	0	1	1	0.2072	0.2728	1	1	0.437	9	82	0
132	1	250	1	1	3	0.2072	0.2728	0	1	0.495	86	0	0
132	1	251	1	2	2	0.2072	0.2728	1	1	0.333	100	82	0
132	1	252	1	1	1	0.2072	0.2728	1	1	0.311	100	0	82
132	1	253	0	1	3	0.2072	0.2728	1	1	0.645	7	82	0
132	1	254	0	1	3	0.2072	0.2728	1	1	0.445	9	82	0
132	1	255	9	1	1	0.2072	0.2728	1	1	0.460	0	82	0
132	1	256	1	2	2	0.2072	0.2728	1	1	0.441	91	82	0
132	1	257	1	1	3	0.2072	0.2728	0	1	0.457	89	0	0
132	1	258	1	2	2	0.2072	0.2728	0	1	0.337	100	0	0
132	1	259	1	2	2	0.2072	0.2728	1	1	0.415	93	82	0
132	1	260	0	1	3	0.2072	0.2728	1	0	0.336	0	82	0
132	1	261	1	2	2	0.2072	0.2728	0	1	0.442	91	0	0
132	1	262	9	2	3	0.2072	0.2728	0	1	0.384	0	0	0
132	1	263	1	1	1	0.2072	0.2728	1	1	0.402	95	0	82
132	1	264	1	1	3	0.2072	0.2728	1	1	0.396	95	0	82
132	1	265	1	2	2	0.2072	0.2728	0	1	0.334	100	0	0
132	1	266	1	1	1	0.2072	0.2728	1	1	0.395	96	0	82
132	1	267	0	2	3	0.2072	0.2728	1	0	0.380	0	0	82
132	1	268	1	1	1	0.2072	0.2728	1	1	0.327	100	0	82
132	1	269	0	1	3	0.2072	0.2728	0	0	0.444	0	82	82
132	1	270	1	2	3	0.2072	0.2728	0	1	0.523	83	0	0
132	1	271	0	1	2	0.2072	0.2728	0	0	0.440	0	82	82
132	1	272	9	2	3	0.2072	0.2728	0	1	0.425	0	82	82
132	1	273	1	2	3	0.2072	0.2728	0	1	0.387	96	0	0
132	1	274	0	2	2	0.2072	0.2728	0	1	0.365	10	82	82
132	1	275	1	1	3	0.2072	0.2728	1	1	0.647	70	0	82
132	1	276	1	2	3	0.2072	0.2728	0	1	0.406	94	0	0
132	1	277	1	2	3	0.2072	0.2728	0	1	0.318	100	0	0
132	1	278	1	1	3	0.2072	0.2728	0	1	0.507	84	0	0
132	1	279	0	1	3	0.2072	0.2728	0	0	0.447	0	82	82
132	1	280	0	1	3	0.2072	0.2728	0	1	0.413	9	82	82
132	1	281	0	2	2	0.2072	0.2728	0	1	0.324	10	82	82
132	1	282	0	1	1	0.2072	0.2728	0	0	0.446	0	82	82
132	1	283	0	2	3	0.2072	0.2728	0	1	0.336	10	82	82
132	1	284	0	1	3	0.2072	0.2728	1	1	0.565	8	82	0
132	1	285	0	2	3	0.2072	0.2728	1	1	0.458	9	0	82
132	1	286	1	2	3	0.2072	0.2728	0	1	0.455	90	0	0
132	1	287	1	2	3	0.2072	0.2728	0	1	0.368	98	0	0
132	1	288	0	2	3	0.2072	0.2728	1	1	0.475	9	0	82
132	1	289	0	2	3	0.2072	0.2728	0	1	0.304	10	82	82
132	1	290	9	2	3	0.2072	0.2728	0	1	0.317	0	82	82
132	1	291	9	2	3	0.2072	0.2728	0	1	0.362	0	82	82
132	1	292	0	1	2	0.2072	0.2728	1	1	0.566	8	82	0
132	1	293	1	1	2	0.2072	0.2728	0	1	0.290	100	0	0
132	1	294	0	2	2	0.2072	0.2728	0	1	0.335	10	82	82
132	1	295	1	1	3	0.2072	0.2728	1	1	0.637	71	0	82
132	1	296	1	2	3	0.2072	0.2728	1	0	0.267	0	82	0
132	1	297	0	2	3	0.2072	0.2728	1	1	0.627	7	0	82
132	1	298	1	1	1	0.2072	0.2728	1	1	0.620	73	0	82
132	1	299	0	2	3	0.2072	0.2728	0	1	0.516	8	82	82
132	1	300	9	1	3	0.2072	0.2728	0	0	0.442	0	82	82
132	1	301	9	2	2	0.2072	0.2728	0	1	0.308	0	0	0
132	1	302	9	1	1	0.2072	0.2728	0	0	0.393	0	82	82
132	1	303	1	1	3	0.2072	0.2728	1	1	0.513	84	0	82
132	1	304	1	1	1	0.2072	0.2728	1	1	0.439	91	0	82
132	1	305	1	2	2	0.2072	0.2728	0	1	0.359	99	0	0
132	1	306	1	1	3	0.2072	0.2728	0	0	0.443	0	0	0
132	1	307	0	2	3	0.2072	0.2728	0	1	0.324	10	82	82
132	1	308	1	1	3	0.2072	0.2728	0	0	0.440	0	0	0
132	1	309	0	1	2	0.2072	0.2728	1	1	0.487	9	82	0
132	1	310	0	2	2	0.2072	0.2728	0	1	0.309	10	82	82
132	1	311	0	1	3	0.2072	0.2728	0	0	0.433	0	82	82
132	1	312	9	1	1	0.2072	0.2728	0	0	0.490	0	82	82
132	1	313	1	2	2	0.2072	0.2728	1	1	0.440	91	82	0
132	1	314	9	2	2	0.2072	0.2728	0	1	0.449	0	82	82
132	1	315	0	1	3	0.2072	0.2728	0	0	0.504	0	82	82
132	1	316	9	1	1	0.2072	0.2728	1	0	0.547	0	0	82
132	1	317	0	1	2	0.2072	0.2728	0	0	0.528	0	82	82
132	1	318	0	1	2	0.2072	0.2728	0	1	0.646	7	82	82
132	1	319	9	1	3	0.2072	0.2728	0	0	0.636	0	0	0
132	1	320	1	2	3	0.2072	0.2728	1	1	0.467	88	82	0
132	1	321	0	1	2	0.2072	0.2728	1	0	0.597	0	82	0
132	1	322	1	2	2	0.2072	0.2728	0	1	0.430	92	0	0
132	1	323	9	2	2	0.2072	0.2728	0	1	0.438	0	0	0
132	1	324	0	1	1	0.2072	0.2728	1	1	0.527	8	82	0
132	1	325	1	1	2	0.2072	0.2728	1	1	0.435	92	0	82
132	1	326	1	2	2	0.2072	0.2728	0	1	0.484	87	0	0
132	1	327	9	2	3	0.2072	0.2728	1	0	0.473	0	0	82
132	1	328	1	1	3	0.2072	0.2728	1	1	0.529	82	0	82
132	1	329	0	1	1	0.2072	0.2728	0	0	0.359	0	82	82
132	1	330	0	2	3	0.2072	0.2728	0	1	0.443	9	82	82
132	1	331	0	2	2	0.2072	0.2728	1	0	0.368	0	0	82
132	1	332	1	2	3	0.2072	0.2728	1	1	0.348	100	82	0
132	1	333	0	1	1	0.2072	0.2728	1	1	0.657	7	82	0
132	1	334	1	2	3	0.2072	0.2728	0	1	0.432	92	0	0
132	1	335	0	2	2	0.2072	0.2728	0	1	0.344	10	82	82
132	1	336	0	2	3	0.2072	0.2728	1	1	0.587	8	0	82
132	1	337	0	2	2	0.2072	0.2728	0	1	0.332	10	82	82
132	1	338	9	2	2	0.2072	0.2728	1	1	0.471	0	0	82
132	1	339	0	1	3	0.2072	0.2728	1	1	0.678	7	82	0
132	1	340	1	1	1	0.2072	0.2728	0	0	0.354	0	0	0
132	1	341	1	2	2	0.2072	0.2728	0	1	0.428	92	0	0
132	1	342	0	2	3	0.2072	0.2728	1	1	0.444	9	0	82
132	1	343	1	1	1	0.2072	0.2728	0	1	0.572	78	0	0
132	1	344	9	1	1	0.2072	0.2728	1	1	0.637	0	0	82
132	1	345	0	2	2	0.2072	0.2728	0	1	0.453	9	82	82
132	1	346	0	1	1	0.2072	0.2728	0	1	0.499	9	82	82
132	1	347	9	2	3	0.2072	0.2728	1	1	0.521	0	0	82
132	1	348	1	1	1	0.2072	0.2728	1	1	0.477	87	0	82
132	1	349	0	2	2	0.2072	0.2728	1	1	0.404	9	0	82
132	1	350	1	2	3	0.2072	0.2728	1	1	0.348	100	82	0
132	1	351	0	2	3	0.2072	0.2728	1	1	0.479	9	0	82
132	1	352	1	1	1	0.2072	0.2728	0	1	0.567	78	0	0
132	1	353	0	2	3	0.2072	0.2728	1	1	0.570	8	0	82
132	1	354	0	2	3	0.2072	0.2728	0	1	0.453	9	82	82
132	1	355	0	2	1	0.2072	0.2728	1	0	0.579	0	0	82
132	1	356	0	1	1	0.2072	0.2728	1	1	0.900	5	82	0
132	1	357	0	2	2	0.2072	0.2728	1	1	0.425	9	0	82
132	1	358	0	1	3	0.2072	0.2728	1	1	0.634	7	82	0
132	1	359	1	2	3	0.2072	0.2728	1	1	0.419	93	82	0
132	1	360	0	1	1	0.2072	0.2728	0	1	0.460	9	82	82
132	1	361	9	2	2	0.2072	0.2728	1	1	0.534	0	0	82
132	1	362	9	1	1	0.2072	0.2728	0	1	0.393	0	0	0
132	1	363	9	1	1	0.2072	0.2728	0	0	0.602	0	82	82
132	1	364	1	2	2	0.2072	0.2728	0	1	0.370	98	0	0
132	1	365	0	1	1	0.2072	0.2728	1	1	0.764	6	82	0
132	1	366	9	2	2	0.2072	0.2728	0	1	0.344	0	0	0
132	1	367	1	1	1	0.2072	0.2728	1	1	0.395	95	0	82
132	1	368	1	2	3	0.2072	0.2728	1	1	0.635	72	82	0
132	1	369	1	2	3	0.2072	0.2728	1	1	0.348	100	82	0
132	1	370	1	1	1	0.2072	0.2728	1	1	0.423	93	0	82
132	1	371	0	1	1	0.2072	0.2728	1	1	0.326	10	82	0
132	1	372	1	2	2	0.2072	0.2728	1	0	0.362	0	82	0
132	1	373	1	2	3	0.2072	0.2728	0	0	0.684	0	0	0
132	1	374	1	2	2	0.2072	0.2728	1	1	0.336	100	82	0
132	1	375	1	2	1	0.2072	0.2728	1	1	0.485	87	82	0
132	1	376	1	2	2	0.2072	0.2728	1	1	0.325	100	82	0
132	1	377	1	1	3	0.2072	0.2728	0	1	0.521	83	0	0
132	1	378	1	2	3	0.2072	0.2728	0	0	0.599	0	0	0
132	1	379	0	2	3	0.2072	0.2728	1	0	0.607	0	0	82
132	1	380	1	2	3	0.2072	0.2728	0	1	0.359	99	0	0
132	1	381	0	1	1	0.2072	0.2728	0	0	0.522	0	82	82
132	1	382	1	2	3	0.2072	0.2728	1	1	0.416	93	82	0
132	1	383	9	2	3	0.2072	0.2728	1	1	0.381	0	82	0
132	1	384	1	1	3	0.2072	0.2728	1	1	0.297	100	0	82
132	1	385	0	1	1	0.2072	0.2728	0	1	0.366	10	82	82
132	1	386	1	1	1	0.2072	0.2728	1	1	0.344	100	0	82
132	1	387	1	2	3	0.2072	0.2728	0	1	0.484	87	0	0
132	1	388	9	1	3	0.2072	0.2728	0	0	0.394	0	0	0
132	1	389	1	1	3	0.2072	0.2728	1	1	0.354	100	0	82
132	1	390	1	2	2	0.2072	0.2728	0	1	0.372	98	0	0
132	1	391	9	2	3	0.2072	0.2728	1	1	0.350	0	82	0
132	1	392	1	1	3	0.2072	0.2728	1	1	0.345	100	0	82
132	1	393	1	2	2	0.2072	0.2728	1	1	0.357	99	82	0
132	1	394	9	2	1	0.2072	0.2728	1	1	0.294	0	82	0
132	1	395	1	1	1	0.2072	0.2728	0	1	0.482	87	0	0
132	1	396	9	1	2	0.2072	0.2728	0	0	0.463	0	0	0
132	1	397	0	1	1	0.2072	0.2728	0	1	0.334	10	82	82
132	1	398	9	1	3	0.2072	0.2728	1	1	0.418	0	0	82
132	1	399	0	1	3	0.2072	0.2728	1	1	0.498	9	82	0
132	1	400	9	2	1	0.2072	0.2728	1	0	0.454	0	0	82
132	1	401	1	1	3	0.2072	0.2728	0	1	0.469	88	0	0
132	1	402	0	2	3	0.2072	0.2728	0	1	0.381	10	82	82
132	1	403	1	2	3	0.2072	0.2728	0	1	0.384	97	0	0
132	1	404	0	1	3	0.2072	0.2728	1	1	0.433	9	82	0
132	1	405	0	2	3	0.2072	0.2728	0	1	0.386	10	82	82
132	1	406	1	2	3	0.2072	0.2728	1	1	0.379	97	82	0
132	1	407	0	2	3	0.2072	0.2728	0	1	0.516	8	82	82
132	1	408	0	2	3	0.2072	0.2728	0	1	0.353	10	82	82
132	1	409	0	2	3	0.2072	0.2728	1	1	0.644	7	0	82
132	1	410	1	2	2	0.2072	0.2728	1	1	0.373	98	82	0
132	1	411	1	1	1	0.2072	0.2728	0	0	0.487	0	0	0
132	1	412	1	1	3	0.2072	0.2728	1	1	0.413	94	0	82
132	1	413	9	2	3	0.2072	0.2728	0	1	0.398	0	0	0
132	1	414	1	2	2	0.2072	0.2728	1	1	0.303	100	82	0
132	1	415	9	1	1	0.2072	0.2728	1	1	0.326	0	0	82
132	1	416	0	2	1	0.2072	0.2728	0	1	0.409	9	82	82
132	1	417	0	2	3	0.2072	0.2728	1	1	0.537	8	0	82
132	1	418	1	1	1	0.2072	0.2728	0	1	0.507	84	0	0
132	1	419	0	1	3	0.2072	0.2728	0	1	0.515	8	82	82
132	1	420	0	2	3	0.2072	0.2728	0	1	0.424	9	82	82
132	1	421	0	2	2	0.2072	0.2728	1	1	0.439	9	0	82
132	1	422	0	1	3	0.2072	0.2728	1	1	0.582	8	82	0
132	1	423	1	1	3	0.2072	0.2728	1	1	0.368	98	0	82
132	1	424	0	2	2	0.2072	0.2728	0	1	0.425	9	82	82
132	1	425	0	1	1	0.2072	0.2728	1	1	0.411	9	82	0
132	1	426	9	2	3	0.2072	0.2728	0	1	0.378	0	82	82
132	1	427	9	1	1	0.2072	0.2728	0	0	0.380	0	82	82
132	1	428	1	2	3	0.2072	0.2728	1	1	0.300	100	82	0
132	1	429	0	1	3	0.2072	0.2728	1	1	0.563	8	82	0
132	1	430	0	1	2	0.2072	0.2728	1	1	0.485	9	82	0
132	1	431	0	1	2	0.2072	0.2728	1	1	0.707	6	82	0
132	1	432	0	2	2	0.2072	0.2728	0	1	0.409	9	82	82
132	1	433	1	1	1	0.2072	0.2728	1	1	0.289	100	0	82
132	1	434	0	1	1	0.2072	0.2728	0	0	0.335	0	82	82
132	1	435	1	1	2	0.2072	0.2728	0	1	0.689	66	0	0
132	1	436	0	2	3	0.2072	0.2728	0	1	0.376	10	82	82
132	1	437	9	1	3	0.2072	0.2728	0	1	0.580	0	82	82
132	1	438	1	2	3	0.2072	0.2728	1	1	0.478	87	82	0
132	1	439	0	1	3	0.2072	0.2728	0	1	0.470	9	82	82
132	1	440	1	2	2	0.2072	0.2728	1	1	0.431	92	82	0
132	1	441	0	1	3	0.2072	0.2728	1	1	0.529	8	82	0
132	1	442	9	2	1	0.2072	0.2728	0	1	0.406	0	0	0
132	1	443	0	2	1	0.2072	0.2728	0	1	0.385	10	82	82
132	1	444	0	2	2	0.2072	0.2728	0	1	0.300	10	82	82
132	1	445	1	1	1	0.2072	0.2728	1	1	0.336	100	0	82
132	1	446	9	2	3	0.2072	0.2728	1	1	0.445	0	82	0
132	1	447	0	2	2	0.2072	0.2728	1	0	0.525	0	0	82
132	1	448	0	1	3	0.2072	0.2728	0	0	0.521	0	82	82
132	1	449	0	2	1	0.2072	0.2728	1	0	0.567	0	0	82
132	1	450	1	1	2	0.2072	0.2728	0	0	0.425	0	0	0
132	1	451	1	2	3	0.2072	0.2728	0	1	0.401	95	0	0
132	1	452	0	2	2	0.2072	0.2728	1	0	0.408	0	0	82
132	1	453	0	1	1	0.2072	0.2728	0	1	0.426	9	82	82
132	1	454	9	2	3	0.2072	0.2728	1	1	0.385	0	0	82
132	1	455	9	1	3	0.2072	0.2728	0	1	0.573	0	0	0
132	1	456	1	1	2	0.2072	0.2728	1	1	0.471	88	0	82
132	1	457	0	1	1	0.2072	0.2728	0	1	0.422	9	82	82
132	1	458	9	2	3	0.2072	0.2728	0	1	0.429	0	82	82
132	1	459	1	1	3	0.2072	0.2728	0	0	0.423	0	0	0
132	1	460	1	1	1	0.2072	0.2728	0	1	0.272	100	0	0
132	1	461	9	2	2	0.2072	0.2728	0	1	0.402	0	0	0
132	1	462	1	2	3	0.2072	0.2728	0	1	0.316	100	0	0
132	1	463	1	2	3	0.2072	0.2728	0	1	0.399	95	0	0
132	1	464	1	2	3	0.2072	0.2728	1	1	0.393	96	82	0
132	1	465	0	2	2	0.2072	0.2728	1	1	0.427	9	0	82
132	1	466	0	2	3	0.2072	0.2728	1	1	0.491	9	0	82
132	1	467	0	1	1	0.2072	0.2728	0	0	0.409	0	82	82
132	1	468	1	2	3	0.2072	0.2728	1	1	0.394	96	82	0
132	1	469	0	1	3	0.2072	0.2728	0	1	0.563	8	82	82
132	1	470	9	2	2	0.2072	0.2728	0	1	0.309	0	0	0
132	1	471	0	2	3	0.2072	0.2728	1	0	0.452	0	0	82
132	1	472	1	2	2	0.2072	0.2728	0	1	0.387	96	0	0
132	1	473	9	1	3	0.2072	0.2728	0	1	0.589	0	82	82
132	1	474	1	1	1	0.2072	0.2728	0	1	0.408	94	0	0
132	1	475	0	2	3	0.2072	0.2728	1	1	0.464	9	0	82
132	1	476	0	2	3	0.2072	0.2728	0	1	0.405	9	82	82
132	1	477	1	1	3	0.2072	0.2728	0	1	0.518	83	0	0
132	1	478	0	2	2	0.2072	0.2728	1	1	0.354	10	0	82
132	1	479	1	2	3	0.2072	0.2728	0	1	0.350	100	0	0
132	1	480	1	1	1	0.2072	0.2728	0	1	0.474	88	0	0
132	1	481	9	1	1	0.2072	0.2728	1	1	0.477	0	0	82
132	1	482	0	2	3	0.2072	0.2728	1	0	0.403	0	0	82
132	1	483	0	1	3	0.2072	0.2728	1	1	0.365	10	82	0
132	1	484	0	1	3	0.2072	0.2728	0	0	0.430	0	82	82
132	1	485	0	1	3	0.2072	0.2728	1	1	0.477	9	82	0
132	1	486	1	2	2	0.2072	0.2728	0	1	0.396	95	0	0
132	1	487	1	2	1	0.2072	0.2728	0	1	0.398	95	0	0
132	1	488	1	1	1	0.2072	0.2728	1	1	0.327	100	0	82
132	1	489	0	2	3	0.2072	0.2728	1	1	0.443	9	0	82
132	1	490	9	1	3	0.2072	0.2728	1	1	0.372	0	82	0
132	1	491	0	1	3	0.2072	0.2728	1	1	0.406	9	82	0
132	1	492	0	2	3	0.2072	0.2728	1	1	0.383	10	0	82
132	1	493	1	1	2	0.2072	0.2728	0	0	0.384	0	0	0
132	1	494	1	1	1	0.2072	0.2728	0	1	0.444	91	0	0
132	1	495	9	1	1	0.2072	0.2728	0	1	0.330	0	0	0
132	1	496	1	2	2	0.2072	0.2728	0	1	0.365	98	0	0
132	1	497	0	2	2	0.2072	0.2728	0	1	0.344	10	82	82
132	1	498	1	2	3	0.2072	0.2728	0	1	0.308	100	0	0
132	1	499	1	1	3	0.2072	0.2728	1	1	0.416	93	0	82
132	1	500	0	2	2	0.2072	0.2728	0	1	0.344	10	82	82
132	1	501	9	1	1	0.2072	0.2728	1	1	0.373	0	82	0
132	1	502	0	1	1	0.2072	0.2728	1	1	0.431	9	82	0
132	1	503	1	1	3	0.2072	0.2728	1	1	0.462	89	0	82
132	1	504	1	1	1	0.2072	0.2728	1	1	0.365	98	0	82
132	1	505	1	2	2	0.2072	0.2728	0	1	0.329	100	0	0
132	1	506	0	1	3	0.2072	0.2728	0	0	0.390	0	82	82
132	1	507	1	1	1	0.2072	0.2728	1	1	0.369	98	0	82
132	1	508	9	2	3	0.2072	0.2728	1	1	0.374	0	0	82
132	1	509	1	1	3	0.2072	0.2728	0	0	0.456	0	0	0
132	1	510	1	2	2	0.2072	0.2728	1	0	0.480	0	82	0
132	1	511	0	2	3	0.2072	0.2728	0	1	0.496	9	82	82
132	1	512	0	2	1	0.2072	0.2728	1	1	0.500	8	0	82
132	1	513	0	1	1	0.2072	0.2728	1	1	0.483	9	82	0
132	1	514	1	2	3	0.2072	0.2728	1	1	0.434	92	82	0
132	1	515	9	1	3	0.2072	0.2728	0	1	0.577	0	82	82
132	1	516	0	1	3	0.2072	0.2728	1	1	0.372	10	82	0
132	1	517	1	2	3	0.2072	0.2728	1	1	0.422	93	82	0
132	1	518	1	1	1	0.2072	0.2728	0	1	0.461	89	0	0
132	1	519	0	1	2	0.2072	0.2728	0	0	0.356	0	82	82
132	1	520	1	2	1	0.2072	0.2728	0	0	0.546	0	0	0
132	1	521	1	1	1	0.2072	0.2728	1	1	0.359	99	0	82
132	1	522	9	2	2	0.2072	0.2728	1	0	0.457	0	0	82
132	1	523	1	1	3	0.2072	0.2728	1	1	0.440	91	0	82
132	1	524	9	2	2	0.2072	0.2728	0	1	0.406	0	0	0
132	1	525	9	1	3	0.2072	0.2728	0	1	0.441	0	82	82
132	1	526	0	1	1	0.2072	0.2728	0	1	0.521	8	82	82
132	1	527	1	2	3	0.2072	0.2728	0	1	0.472	88	0	0
132	1	528	0	2	1	0.2072	0.2728	1	1	0.565	8	0	82
132	1	529	9	1	1	0.2072	0.2728	1	1	0.537	0	82	0
132	1	530	9	2	2	0.2072	0.2728	0	1	0.283	0	82	82
132	1	531	9	2	2	0.2072	0.2728	1	1	0.361	0	0	82
132	1	532	0	2	3	0.2072	0.2728	1	1	0.322	10	0	82
132	1	533	0	1	1	0.2072	0.2728	1	1	0.333	10	82	0
132	1	534	0	2	2	0.2072	0.2728	1	1	0.394	10	0	82
132	1	535	1	2	2	0.2072	0.2728	0	0	0.291	0	0	0
132	1	536	1	2	2	0.2072	0.2728	1	1	0.296	100	82	0
132	1	537	1	1	1	0.2072	0.2728	1	1	0.365	98	0	82
132	1	538	9	1	1	0.2072	0.2728	1	1	0.311	0	0	82
132	1	539	0	2	2	0.2072	0.2728	1	0	0.309	0	0	82
132	1	540	0	1	3	0.2072	0.2728	0	0	0.347	0	82	82
132	1	541	0	2	3	0.2072	0.2728	1	1	0.460	9	0	82
132	1	542	0	1	1	0.2072	0.2728	0	1	0.557	8	82	82
132	1	543	9	1	3	0.2072	0.2728	1	1	0.554	0	0	82
132	1	544	9	1	1	0.2072	0.2728	0	1	0.390	0	0	0
132	1	545	9	2	3	0.2072	0.2728	0	1	0.480	0	0	0
132	1	546	9	2	3	0.2072	0.2728	0	1	0.439	0	0	0
132	1	547	1	2	2	0.2072	0.2728	1	1	0.366	98	82	0
132	1	548	1	1	3	0.2072	0.2728	1	1	0.418	93	0	82
132	1	549	1	1	3	0.2072	0.2728	0	1	0.419	93	0	0
132	1	550	1	2	2	0.2072	0.2728	0	1	0.332	100	0	0
132	1	551	0	1	3	0.2072	0.2728	0	0	0.401	0	82	82
132	1	552	1	1	1	0.2072	0.2728	0	1	0.314	100	0	0
132	1	553	1	1	3	0.2072	0.2728	0	1	0.309	100	0	0
132	1	554	0	2	3	0.2072	0.2728	0	1	0.329	10	82	82
132	1	555	1	1	3	0.2072	0.2728	0	1	0.319	100	0	0
132	1	556	0	2	2	0.2072	0.2728	0	1	0.276	10	82	82
132	1	557	1	1	1	0.2072	0.2728	1	1	0.314	100	0	82
132	1	558	9	1	1	0.2072	0.2728	0	1	0.352	0	0	0
132	1	559	9	1	1	0.2072	0.2728	1	1	0.298	0	82	0
132	1	560	1	2	3	0.2072	0.2728	0	1	0.432	92	0	0
132	1	561	0	1	2	0.2072	0.2728	0	0	0.539	0	82	82
132	1	562	0	1	1	0.2072	0.2728	1	1	0.405	9	82	0
132	1	563	0	2	2	0.2072	0.2728	1	1	0.447	9	0	82
132	1	564	0	1	1	0.2072	0.2728	0	1	0.423	9	82	82
132	1	565	0	1	1	0.2072	0.2728	1	1	0.584	8	82	0
132	1	566	9	2	2	0.2072	0.2728	1	1	0.330	0	82	0
132	1	567	0	2	1	0.2072	0.2728	1	1	0.404	9	0	82
132	1	568	1	2	3	0.2072	0.2728	0	1	0.549	80	0	0
132	1	569	1	2	2	0.2072	0.2728	1	1	0.369	98	82	0
132	1	570	0	1	1	0.2072	0.2728	0	1	0.307	10	82	82
132	1	571	1	2	2	0.2072	0.2728	0	1	0.249	100	0	0
132	1	572	0	1	3	0.2072	0.2728	0	1	0.473	9	82	82
132	1	573	1	2	1	0.2072	0.2728	0	1	0.598	75	0	0
132	1	574	1	1	1	0.2072	0.2728	0	1	0.304	100	0	0
132	1	575	0	1	1	0.2072	0.2728	1	1	0.470	9	82	0
132	1	576	0	2	3	0.2072	0.2728	0	1	0.334	10	82	82
132	1	577	0	2	2	0.2072	0.2728	0	1	0.273	10	82	82
132	1	578	9	2	3	0.2072	0.2728	1	1	0.391	0	82	0
132	1	579	1	1	1	0.2072	0.2728	1	1	0.311	100	0	82
132	1	580	0	1	1	0.2072	0.2728	0	1	0.388	10	82	82
132	1	581	1	1	3	0.2072	0.2728	0	1	0.331	100	0	0
132	1	582	0	2	2	0.2072	0.2728	0	1	0.280	10	82	82
132	1	583	9	1	2	0.2072	0.2728	1	0	0.428	0	82	0
132	1	584	0	2	3	0.2072	0.2728	0	1	0.421	9	82	82
132	1	585	0	1	1	0.2072	0.2728	0	1	0.501	8	82	82
132	1	586	0	2	2	0.2072	0.2728	1	1	0.388	10	0	82
132	1	587	1	2	2	0.2072	0.2728	1	1	0.311	100	82	0
132	1	588	1	2	2	0.2072	0.2728	0	1	0.378	97	0	0
132	1	589	0	2	2	0.2072	0.2728	1	1	0.365	10	0	82
132	1	590	0	2	2	0.2072	0.2728	0	1	0.318	10	82	82
132	1	591	0	1	3	0.2072	0.2728	0	0	0.491	0	82	82
132	1	592	1	2	2	0.2072	0.2728	0	1	0.314	100	0	0
132	1	593	0	2	2	0.2072	0.2728	0	1	0.360	10	82	82
132	1	594	9	2	2	0.2072	0.2728	1	0	0.435	0	0	82
132	1	595	0	1	1	0.2072	0.2728	1	1	0.497	9	82	0
132	1	596	0	1	2	0.2072	0.2728	0	0	0.902	0	82	82
132	1	597	0	2	1	0.2072	0.2728	0	1	0.379	10	82	82
132	1	598	0	1	3	0.2072	0.2728	1	1	0.477	9	82	0
132	1	599	9	1	3	0.2072	0.2728	1	1	0.449	0	82	0
132	1	600	0	1	1	0.2072	0.2728	1	1	0.401	9	82	0
132	1	601	1	1	1	0.2072	0.2728	1	1	0.567	78	0	82
132	1	602	0	2	3	0.2072	0.2728	1	0	0.448	0	0	82
132	1	603	0	2	2	0.2072	0.2728	1	1	0.433	9	0	82
132	1	604	0	1	1	0.2072	0.2728	1	1	0.481	9	82	0
132	1	605	9	2	2	0.2072	0.2728	0	1	0.465	0	82	82
132	1	606	1	1	2	0.2072	0.2728	1	1	0.542	81	0	82
132	1	607	1	1	1	0.2072	0.2728	0	0	0.409	0	0	0
132	1	608	0	1	3	0.2072	0.2728	0	1	0.434	9	82	82
132	1	609	1	2	1	0.2072	0.2728	1	1	0.514	84	82	0
132	1	610	0	1	3	0.2072	0.2728	1	1	0.600	7	82	0
132	1	611	0	2	2	0.2072	0.2728	0	1	0.435	9	82	82
132	1	612	9	1	1	0.2072	0.2728	1	1	0.427	0	82	0
132	1	613	0	1	3	0.2072	0.2728	0	1	0.444	9	82	82
132	1	614	9	2	1	0.2072	0.2728	0	0	0.542	0	82	82
132	1	615	1	2	3	0.2072	0.2728	0	1	0.289	100	0	0
132	1	616	0	2	2	0.2072	0.2728	0	1	0.311	10	82	82
132	1	617	1	2	3	0.2072	0.2728	1	1	0.380	97	82	0
132	1	618	1	1	3	0.2072	0.2728	0	1	0.542	81	0	0
132	1	619	1	2	1	0.2072	0.2728	1	1	0.451	90	82	0
132	1	620	9	2	2	0.2072	0.2728	0	1	0.331	0	82	82
132	1	621	0	1	3	0.2072	0.2728	0	1	0.310	10	82	82
132	1	622	1	1	2	0.2072	0.2728	1	0	0.284	0	0	82
132	1	623	0	2	2	0.2072	0.2728	0	1	0.275	10	82	82
132	1	624	0	2	2	0.2072	0.2728	1	1	0.360	10	0	82
132	1	625	1	1	3	0.2072	0.2728	0	1	0.540	81	0	0
132	1	626	9	2	2	0.2072	0.2728	1	1	0.390	0	82	0
132	1	627	9	1	1	0.2072	0.2728	0	1	0.336	0	82	82
132	1	628	9	2	2	0.2072	0.2728	1	1	0.450	0	82	0
132	1	629	9	1	1	0.2072	0.2728	1	1	0.320	0	0	82
132	1	630	1	1	3	0.2072	0.2728	0	0	0.436	0	0	0
132	1	631	9	1	2	0.2072	0.2728	0	1	0.524	0	82	82
132	1	632	0	1	3	0.2072	0.2728	1	1	0.442	9	82	0
132	1	633	9	1	3	0.2072	0.2728	1	1	0.371	0	0	82
132	1	634	1	1	1	0.2072	0.2728	1	1	0.277	100	0	82
132	1	635	0	2	2	0.2072	0.2728	0	1	0.348	10	82	82
132	1	636	0	1	1	0.2072	0.2728	1	1	0.289	10	82	0
132	1	637	0	2	3	0.2072	0.2728	0	1	0.318	10	82	82
132	1	638	1	1	1	0.2072	0.2728	0	0	0.227	0	0	0
132	1	639	0	2	3	0.2072	0.2728	1	0	0.308	0	0	82
132	1	640	0	1	1	0.2072	0.2728	0	1	0.303	10	82	82
132	1	641	9	2	2	0.2072	0.2728	1	1	0.441	0	82	0
132	1	642	1	2	2	0.2072	0.2728	0	1	0.374	98	0	0
132	1	643	1	2	2	0.2072	0.2728	0	1	0.328	100	0	0
132	1	644	9	1	3	0.2072	0.2728	1	1	0.515	0	82	0
132	1	645	1	2	2	0.2072	0.2728	0	1	0.263	100	0	0
132	1	646	1	2	3	0.2072	0.2728	0	1	0.332	100	0	0
132	1	647	0	1	3	0.2072	0.2728	0	0	0.440	0	82	82
132	1	648	9	2	3	0.2072	0.2728	0	1	0.311	0	82	82
132	1	649	0	1	2	0.2072	0.2728	1	0	0.338	0	82	0
132	1	650	1	2	1	0.2072	0.2728	1	1	0.429	92	82	0
132	1	651	1	1	1	0.2072	0.2728	0	1	0.461	89	0	0
132	1	652	9	1	3	0.2072	0.2728	1	1	0.635	0	82	0
132	1	653	1	1	3	0.2072	0.2728	0	1	0.574	78	0	0
132	1	654	1	2	2	0.2072	0.2728	1	1	0.384	97	82	0
132	1	655	0	2	1	0.2072	0.2728	0	1	0.288	10	82	82
132	1	656	0	2	2	0.2072	0.2728	0	1	0.343	10	82	82
132	1	657	1	2	3	0.2072	0.2728	1	1	0.387	96	82	0
132	1	658	1	1	3	0.2072	0.2728	1	1	0.501	85	0	82
132	1	659	1	1	3	0.2072	0.2728	1	1	0.361	99	0	82
132	1	660	0	2	2	0.2072	0.2728	1	1	0.412	9	0	82
132	1	661	0	2	3	0.2072	0.2728	0	0	1.854	0	82	82
132	1	662	9	2	3	0.2072	0.2728	1	1	0.758	0	0	82
132	1	663	9	1	2	0.2072	0.2728	1	0	0.699	0	0	82
132	1	664	1	1	3	0.2072	0.2728	0	1	0.703	65	0	0
132	1	665	9	2	3	0.2072	0.2728	0	0	0.989	0	0	0
132	1	666	0	1	3	0.2072	0.2728	1	1	0.774	6	82	0
132	1	667	9	1	1	0.2072	0.2728	0	1	1.136	0	82	82
132	1	668	1	2	3	0.2072	0.2728	1	1	0.534	82	82	0
132	1	669	1	2	2	0.2072	0.2728	0	1	0.603	75	0	0
132	1	670	0	2	2	0.2072	0.2728	1	0	0.460	0	0	82
132	1	671	1	1	1	0.2072	0.2728	0	1	0.490	86	0	0
132	1	672	0	1	2	0.2072	0.2728	1	1	0.921	5	82	0
132	1	673	0	1	1	0.2072	0.2728	0	1	0.341	10	82	82
132	1	674	1	2	3	0.2072	0.2728	1	1	0.465	89	82	0
132	1	675	9	1	3	0.2072	0.2728	0	1	0.550	0	0	0
132	1	676	1	1	3	0.2072	0.2728	0	1	0.304	100	0	0
132	1	677	1	2	1	0.2072	0.2728	0	1	0.326	100	0	0
132	1	678	1	1	3	0.2072	0.2728	1	1	0.362	99	0	82
132	1	679	9	1	3	0.2072	0.2728	1	1	0.349	0	0	82
132	1	680	1	2	3	0.2072	0.2728	0	1	0.425	92	0	0
132	1	681	0	2	2	0.2072	0.2728	0	1	0.436	9	82	82
132	1	682	9	1	3	0.2072	0.2728	0	0	0.437	0	0	0
132	1	683	1	1	3	0.2072	0.2728	1	1	0.516	83	0	82
132	1	684	0	2	3	0.2072	0.2728	1	0	0.505	0	0	82
132	1	685	0	1	1	0.2072	0.2728	1	1	0.479	9	82	0
132	1	686	0	1	3	0.2072	0.2728	1	1	0.533	8	82	0
132	1	687	0	1	3	0.2072	0.2728	1	1	0.490	9	82	0
132	1	688	0	1	3	0.2072	0.2728	0	1	0.536	8	82	82
132	1	689	1	1	2	0.2072	0.2728	0	1	0.525	82	0	0
132	1	690	0	1	1	0.2072	0.2728	1	1	0.409	9	82	0
132	1	691	0	2	2	0.2072	0.2728	1	1	0.496	9	0	82
132	1	692	0	2	3	0.2072	0.2728	0	1	0.637	7	82	82
132	1	693	1	2	2	0.2072	0.2728	1	1	0.406	94	82	0
132	1	694	1	1	3	0.2072	0.2728	1	1	0.471	88	0	82
132	1	695	1	1	1	0.2072	0.2728	0	1	0.612	74	0	0
132	1	696	1	2	2	0.2072	0.2728	1	1	0.375	98	82	0
132	1	697	9	2	3	0.2072	0.2728	0	1	0.450	0	82	82
132	1	698	1	2	2	0.2072	0.2728	1	1	0.273	100	82	0
132	1	699	1	1	1	0.2072	0.2728	1	1	0.422	93	0	82
132	1	700	0	1	3	0.2072	0.2728	0	0	0.423	0	82	82
132	1	701	0	2	3	0.2072	0.2728	1	1	0.583	8	0	82
132	1	702	0	1	2	0.2072	0.2728	0	1	0.521	8	82	82
132	1	703	0	2	2	0.2072	0.2728	1	1	0.436	9	0	82
132	1	704	1	2	2	0.2072	0.2728	0	1	0.366	98	0	0
132	1	705	0	2	3	0.2072	0.2728	1	1	0.433	9	0	82
132	1	706	1	1	1	0.2072	0.2728	1	1	0.306	100	0	82
132	1	707	1	2	3	0.2072	0.2728	1	1	0.353	100	82	0
132	1	708	1	2	3	0.2072	0.2728	1	1	0.364	99	82	0
132	1	709	0	2	3	0.2072	0.2728	0	1	0.448	9	82	82
132	1	710	1	1	1	0.2072	0.2728	0	1	0.351	100	0	0
132	1	711	0	1	3	0.2072	0.2728	1	1	0.636	7	82	0
132	1	712	0	1	1	0.2072	0.2728	1	1	0.394	10	82	0
132	1	713	1	1	3	0.2072	0.2728	0	1	0.434	92	0	0
132	1	714	9	2	3	0.2072	0.2728	1	1	0.546	0	0	82
132	1	715	0	2	3	0.2072	0.2728	0	1	0.372	10	82	82
132	1	716	1	1	3	0.2072	0.2728	1	1	0.311	100	0	82
132	1	717	1	1	2	0.2072	0.2728	1	1	0.397	95	0	82
132	1	718	1	1	3	0.2072	0.2728	1	1	0.302	100	0	82
132	1	719	0	1	1	0.2072	0.2728	0	0	0.341	0	82	82
132	1	720	9	2	2	0.2072	0.2728	0	1	0.281	0	82	82
