sub	sess	t	rew	loc	cue	co1	co2	or	resp	rt	rew_tot	left_col	right_col
109	1	1	1	2	2	0.2063	0.0817	1	1	0.518	83	0	82
109	1	2	0	2	2	0.2063	0.0817	0	1	0.453	9	0	0
109	1	3	9	1	3	0.2063	0.0817	1	0	0.500	0	0	82
109	1	4	9	2	3	0.2063	0.0817	1	1	0.497	0	82	0
109	1	5	0	1	2	0.2063	0.0817	0	1	0.630	7	0	0
109	1	6	0	1	2	0.2063	0.0817	1	0	0.542	0	0	82
109	1	7	0	2	2	0.2063	0.0817	1	1	0.570	8	82	0
109	1	8	1	1	1	0.2063	0.0817	0	1	0.525	82	82	82
109	1	9	0	1	3	0.2063	0.0817	1	1	0.679	7	0	82
109	1	10	1	2	2	0.2063	0.0817	1	1	0.877	50	0	82
109	1	11	1	1	1	0.2063	0.0817	0	1	0.459	89	82	82
109	1	12	0	1	1	0.2063	0.0817	0	1	0.442	9	0	0
109	1	13	0	1	1	0.2063	0.0817	0	1	0.449	9	0	0
109	1	14	1	1	1	0.2063	0.0817	0	1	0.624	73	82	82
109	1	15	0	1	3	0.2063	0.0817	0	1	0.351	10	0	0
109	1	16	9	1	3	0.2063	0.0817	0	1	0.369	0	0	0
109	1	17	0	1	1	0.2063	0.0817	0	1	0.476	9	0	0
109	1	18	1	1	3	0.2063	0.0817	0	1	0.352	100	82	82
109	1	19	0	1	1	0.2063	0.0817	1	0	0.420	0	0	82
109	1	20	1	1	1	0.2063	0.0817	1	1	0.540	81	82	0
109	1	21	1	1	3	0.2063	0.0817	0	1	0.611	74	82	82
109	1	22	0	1	3	0.2063	0.0817	0	1	0.484	9	0	0
109	1	23	9	1	3	0.2063	0.0817	0	1	0.468	0	0	0
109	1	24	1	2	2	0.2063	0.0817	1	1	0.562	79	0	82
109	1	25	1	2	1	0.2063	0.0817	1	1	0.606	74	0	82
109	1	26	0	2	2	0.2063	0.0817	0	1	0.614	7	0	0
109	1	27	1	1	3	0.2063	0.0817	1	1	0.545	81	82	0
109	1	28	1	2	2	0.2063	0.0817	0	1	0.501	85	82	82
109	1	29	9	1	1	0.2063	0.0817	1	1	0.499	0	0	82
109	1	30	1	1	1	0.2063	0.0817	1	1	0.561	79	82	0
109	1	31	1	1	3	0.2063	0.0817	1	1	0.338	100	82	0
109	1	32	1	2	2	0.2063	0.0817	0	1	0.495	85	82	82
109	1	33	9	2	3	0.2063	0.0817	0	1	0.420	0	82	82
109	1	34	1	2	1	0.2063	0.0817	0	1	0.468	88	82	82
109	1	35	1	2	2	0.2063	0.0817	0	1	0.481	87	82	82
109	1	36	9	1	3	0.2063	0.0817	1	1	0.671	0	82	0
109	1	37	0	2	2	0.2063	0.0817	1	1	0.399	10	82	0
109	1	38	0	2	3	0.2063	0.0817	1	1	0.417	9	82	0
109	1	39	0	2	2	0.2063	0.0817	0	1	0.339	10	0	0
109	1	40	0	2	3	0.2063	0.0817	1	1	0.328	10	82	0
109	1	41	1	1	1	0.2063	0.0817	0	1	0.454	90	82	82
109	1	42	1	1	2	0.2063	0.0817	0	1	0.431	92	82	82
109	1	43	1	2	3	0.2063	0.0817	0	1	0.415	93	82	82
109	1	44	0	2	2	0.2063	0.0817	0	1	0.576	8	0	0
109	1	45	1	2	2	0.2063	0.0817	1	1	0.329	100	0	82
109	1	46	0	2	3	0.2063	0.0817	0	1	0.430	9	0	0
109	1	47	0	1	1	0.2063	0.0817	1	1	0.376	10	0	82
109	1	48	1	2	3	0.2063	0.0817	0	1	0.404	95	82	82
109	1	49	1	2	2	0.2063	0.0817	1	1	0.525	82	0	82
109	1	50	9	2	3	0.2063	0.0817	1	1	0.723	0	0	82
109	1	51	1	1	1	0.2063	0.0817	1	1	0.447	90	82	0
109	1	52	1	1	3	0.2063	0.0817	1	0	0.631	0	82	0
109	1	53	1	1	1	0.2063	0.0817	1	1	0.478	87	82	0
109	1	54	1	1	3	0.2063	0.0817	1	1	0.374	98	82	0
109	1	55	9	1	2	0.2063	0.0817	0	1	0.680	0	82	82
109	1	56	1	1	1	0.2063	0.0817	0	1	0.479	87	82	82
109	1	57	1	2	3	0.2063	0.0817	0	1	0.805	54	82	82
109	1	58	1	2	2	0.2063	0.0817	1	1	0.415	93	0	82
109	1	59	0	2	2	0.2063	0.0817	1	1	0.431	9	82	0
109	1	60	0	2	3	0.2063	0.0817	1	1	0.510	8	82	0
109	1	61	1	2	1	0.2063	0.0817	0	1	0.570	78	82	82
109	1	62	9	1	2	0.2063	0.0817	0	1	0.757	0	0	0
109	1	63	1	2	2	0.2063	0.0817	0	0	0.591	0	82	82
109	1	64	9	2	2	0.2063	0.0817	0	1	0.762	0	0	0
109	1	65	9	2	2	0.2063	0.0817	1	1	0.461	0	0	82
109	1	66	0	2	2	0.2063	0.0817	0	1	0.590	8	0	0
109	1	67	0	2	3	0.2063	0.0817	1	1	0.432	9	82	0
109	1	68	0	1	2	0.2063	0.0817	0	1	0.584	8	0	0
109	1	69	1	1	3	0.2063	0.0817	1	1	0.593	76	82	0
109	1	70	0	2	2	0.2063	0.0817	1	1	0.805	5	82	0
109	1	71	0	1	1	0.2063	0.0817	1	1	0.662	7	0	82
109	1	72	1	2	3	0.2063	0.0817	1	1	0.693	66	0	82
109	1	73	0	1	1	0.2063	0.0817	1	1	0.796	6	0	82
109	1	74	1	2	2	0.2063	0.0817	1	1	0.397	95	0	82
109	1	75	0	1	3	0.2063	0.0817	0	0	0.584	0	0	0
109	1	76	1	2	3	0.2063	0.0817	0	1	0.674	68	82	82
109	1	77	0	2	3	0.2063	0.0817	1	1	0.424	9	82	0
109	1	78	1	1	3	0.2063	0.0817	1	1	0.439	91	82	0
109	1	79	0	1	3	0.2063	0.0817	1	1	0.445	9	0	82
109	1	80	9	2	3	0.2063	0.0817	1	1	0.437	0	82	0
109	1	81	0	2	3	0.2063	0.0817	0	1	0.504	8	0	0
109	1	82	1	1	2	0.2063	0.0817	1	1	0.376	97	82	0
109	1	83	9	2	3	0.2063	0.0817	1	1	0.394	0	0	82
109	1	84	0	2	2	0.2063	0.0817	1	1	0.515	8	82	0
109	1	85	0	2	3	0.2063	0.0817	0	1	0.574	8	0	0
109	1	86	1	2	1	0.2063	0.0817	0	1	0.401	95	82	82
109	1	87	0	1	3	0.2063	0.0817	1	0	0.379	0	0	82
109	1	88	0	1	1	0.2063	0.0817	0	0	0.469	0	0	0
109	1	89	9	2	2	0.2063	0.0817	0	1	0.578	0	82	82
109	1	90	0	2	3	0.2063	0.0817	1	1	0.443	9	82	0
109	1	91	1	1	2	0.2063	0.0817	1	1	0.459	89	82	0
109	1	92	1	2	2	0.2063	0.0817	1	1	0.482	87	0	82
109	1	93	0	1	3	0.2063	0.0817	1	1	0.485	9	0	82
109	1	94	9	1	3	0.2063	0.0817	1	1	0.443	0	82	0
109	1	95	0	1	1	0.2063	0.0817	0	0	0.484	0	0	0
109	1	96	1	1	3	0.2063	0.0817	0	1	0.514	84	82	82
109	1	97	0	2	2	0.2063	0.0817	1	1	0.784	6	82	0
109	1	98	9	1	1	0.2063	0.0817	1	1	0.483	0	82	0
109	1	99	0	1	3	0.2063	0.0817	1	1	0.730	6	0	82
109	1	100	9	1	1	0.2063	0.0817	1	1	0.480	0	82	0
109	1	101	9	1	1	0.2063	0.0817	1	1	0.445	0	82	0
109	1	102	9	1	2	0.2063	0.0817	1	1	0.438	0	82	0
109	1	103	1	1	1	0.2063	0.0817	0	1	0.512	84	82	82
109	1	104	0	1	3	0.2063	0.0817	0	1	0.419	9	0	0
109	1	105	1	1	3	0.2063	0.0817	0	1	0.412	94	82	82
109	1	106	1	1	3	0.2063	0.0817	1	1	0.445	91	82	0
109	1	107	0	1	3	0.2063	0.0817	1	1	0.403	9	0	82
109	1	108	1	2	2	0.2063	0.0817	1	1	0.413	94	0	82
109	1	109	1	2	2	0.2063	0.0817	0	1	0.447	90	82	82
109	1	110	1	1	1	0.2063	0.0817	0	1	0.431	92	82	82
109	1	111	0	2	1	0.2063	0.0817	1	1	0.481	9	82	0
109	1	112	9	2	1	0.2063	0.0817	0	0	0.494	0	0	0
109	1	113	1	1	3	0.2063	0.0817	1	1	0.474	88	82	0
109	1	114	1	2	3	0.2063	0.0817	0	1	0.455	90	82	82
109	1	115	1	1	3	0.2063	0.0817	1	1	0.461	89	82	0
109	1	116	1	2	1	0.2063	0.0817	0	1	0.445	91	82	82
109	1	117	0	2	2	0.2063	0.0817	0	1	0.685	7	0	0
109	1	118	0	1	1	0.2063	0.0817	0	1	0.477	9	0	0
109	1	119	1	2	3	0.2063	0.0817	1	1	0.338	100	0	82
109	1	120	1	2	2	0.2063	0.0817	1	1	0.344	100	0	82
109	1	121	0	2	3	0.2063	0.0817	0	1	0.511	8	0	0
109	1	122	0	2	1	0.2063	0.0817	0	1	0.557	8	0	0
109	1	123	1	2	3	0.2063	0.0817	0	1	0.570	78	82	82
109	1	124	0	2	3	0.2063	0.0817	1	1	0.363	10	82	0
109	1	125	0	2	3	0.2063	0.0817	1	1	0.391	10	82	0
109	1	126	1	1	1	0.2063	0.0817	0	1	0.434	92	82	82
109	1	127	0	1	1	0.2063	0.0817	1	0	0.355	0	0	82
109	1	128	9	2	2	0.2063	0.0817	1	1	0.486	0	82	0
109	1	129	1	1	1	0.2063	0.0817	1	1	0.545	80	82	0
109	1	130	0	1	3	0.2063	0.0817	0	1	0.406	9	0	0
109	1	131	9	1	1	0.2063	0.0817	0	1	0.407	0	0	0
109	1	132	0	2	3	0.2063	0.0817	1	1	0.647	7	82	0
109	1	133	9	1	3	0.2063	0.0817	0	1	0.508	0	0	0
109	1	134	0	1	1	0.2063	0.0817	1	0	0.497	0	0	82
109	1	135	1	2	2	0.2063	0.0817	0	1	0.654	70	82	82
109	1	136	9	1	1	0.2063	0.0817	0	1	0.419	0	0	0
109	1	137	0	1	3	0.2063	0.0817	0	1	0.525	8	0	0
109	1	138	0	2	2	0.2063	0.0817	1	1	0.619	7	82	0
109	1	139	0	2	3	0.2063	0.0817	0	1	0.635	7	0	0
109	1	140	1	1	1	0.2063	0.0817	1	1	0.453	90	82	0
109	1	141	0	1	1	0.2063	0.0817	1	1	0.688	7	0	82
109	1	142	1	1	1	0.2063	0.0817	1	1	0.518	83	82	0
109	1	143	1	1	1	0.2063	0.0817	0	1	0.546	80	82	82
109	1	144	1	1	1	0.2063	0.0817	1	1	0.453	90	82	0
109	1	145	1	1	3	0.2063	0.0817	1	1	0.422	93	82	0
109	1	146	0	1	3	0.2063	0.0817	1	1	0.408	9	0	82
109	1	147	1	2	2	0.2063	0.0817	0	1	0.386	96	82	82
109	1	148	9	1	1	0.2063	0.0817	0	0	0.461	0	82	82
109	1	149	9	1	3	0.2063	0.0817	1	1	0.531	0	0	82
109	1	150	1	1	1	0.2063	0.0817	0	1	0.349	100	82	82
109	1	151	1	2	3	0.2063	0.0817	1	1	0.433	92	0	82
109	1	152	0	1	3	0.2063	0.0817	1	1	0.458	9	0	82
109	1	153	1	1	2	0.2063	0.0817	0	1	0.432	92	82	82
109	1	154	1	1	3	0.2063	0.0817	0	1	0.654	70	82	82
109	1	155	1	2	3	0.2063	0.0817	1	1	0.524	83	0	82
109	1	156	1	2	1	0.2063	0.0817	1	1	0.496	85	0	82
109	1	157	0	2	3	0.2063	0.0817	1	1	0.501	8	82	0
109	1	158	0	2	3	0.2063	0.0817	0	0	0.475	0	0	0
109	1	159	0	1	3	0.2063	0.0817	1	1	0.682	7	0	82
109	1	160	9	2	3	0.2063	0.0817	0	1	0.337	0	0	0
109	1	161	1	1	2	0.2063	0.0817	0	1	0.658	69	82	82
109	1	162	1	2	2	0.2063	0.0817	0	1	0.719	63	82	82
109	1	163	0	2	1	0.2063	0.0817	1	1	0.413	9	82	0
109	1	164	9	2	2	0.2063	0.0817	1	1	0.613	0	0	82
109	1	165	1	1	1	0.2063	0.0817	0	1	0.477	87	82	82
109	1	166	9	1	3	0.2063	0.0817	1	1	0.596	0	0	82
109	1	167	1	2	3	0.2063	0.0817	0	0	0.527	0	82	82
109	1	168	1	1	1	0.2063	0.0817	1	1	0.501	85	82	0
109	1	169	1	1	1	0.2063	0.0817	1	1	0.433	92	82	0
109	1	170	0	1	1	0.2063	0.0817	1	1	0.473	9	0	82
109	1	171	9	1	3	0.2063	0.0817	1	1	0.470	0	82	0
109	1	172	1	2	2	0.2063	0.0817	0	1	0.654	70	82	82
109	1	173	9	2	2	0.2063	0.0817	0	1	0.469	0	82	82
109	1	174	0	2	3	0.2063	0.0817	0	1	0.476	9	0	0
109	1	175	9	2	1	0.2063	0.0817	1	1	0.507	0	82	0
109	1	176	1	1	2	0.2063	0.0817	1	1	0.562	79	82	0
109	1	177	9	1	3	0.2063	0.0817	1	1	0.350	0	82	0
109	1	178	0	2	2	0.2063	0.0817	1	1	0.499	9	82	0
109	1	179	0	1	1	0.2063	0.0817	0	1	0.409	9	0	0
109	1	180	0	2	3	0.2063	0.0817	1	1	0.355	10	82	0
109	1	181	0	2	1	0.2063	0.0817	1	1	0.392	10	82	0
109	1	182	0	1	1	0.2063	0.0817	1	0	0.434	0	0	82
109	1	183	0	2	3	0.2063	0.0817	0	1	0.540	8	0	0
109	1	184	0	2	2	0.2063	0.0817	0	1	0.466	9	0	0
109	1	185	1	1	1	0.2063	0.0817	1	1	0.297	100	82	0
109	1	186	9	2	2	0.2063	0.0817	1	1	0.495	0	0	82
109	1	187	0	1	3	0.2063	0.0817	0	1	0.515	8	0	0
109	1	188	0	1	3	0.2063	0.0817	1	1	0.542	8	0	82
109	1	189	9	2	2	0.2063	0.0817	1	1	0.434	0	82	0
109	1	190	1	2	2	0.2063	0.0817	1	1	0.353	100	0	82
109	1	191	0	1	2	0.2063	0.0817	1	0	0.476	0	0	82
109	1	192	0	2	2	0.2063	0.0817	0	1	0.570	8	0	0
109	1	193	1	1	1	0.2063	0.0817	0	1	0.450	90	82	82
109	1	194	0	1	1	0.2063	0.0817	1	0	0.433	0	0	82
109	1	195	9	2	3	0.2063	0.0817	0	1	0.759	0	0	0
109	1	196	1	1	1	0.2063	0.0817	1	1	0.384	97	82	0
109	1	197	1	2	3	0.2063	0.0817	1	1	0.443	91	0	82
109	1	198	0	2	2	0.2063	0.0817	0	1	0.556	8	0	0
109	1	199	0	1	2	0.2063	0.0817	0	1	0.510	8	0	0
109	1	200	0	1	1	0.2063	0.0817	0	1	0.490	9	0	0
109	1	201	0	2	2	0.2063	0.0817	1	1	0.418	9	82	0
109	1	202	9	2	3	0.2063	0.0817	0	1	1.132	0	82	82
109	1	203	1	1	3	0.2063	0.0817	0	1	0.577	77	82	82
109	1	204	9	1	3	0.2063	0.0817	0	1	0.409	0	82	82
109	1	205	9	1	2	0.2063	0.0817	1	0	0.579	0	0	82
109	1	206	1	1	3	0.2063	0.0817	1	1	0.453	90	82	0
109	1	207	9	1	1	0.2063	0.0817	1	1	0.519	0	0	82
109	1	208	9	2	2	0.2063	0.0817	0	1	0.517	0	0	0
109	1	209	1	2	2	0.2063	0.0817	1	1	0.364	99	0	82
109	1	210	1	2	3	0.2063	0.0817	0	1	0.776	57	82	82
109	1	211	0	1	3	0.2063	0.0817	1	0	0.417	0	0	82
109	1	212	9	1	3	0.2063	0.0817	0	1	0.594	0	82	82
109	1	213	0	2	3	0.2063	0.0817	0	0	0.347	0	0	0
109	1	214	9	1	1	0.2063	0.0817	0	1	0.462	0	0	0
109	1	215	0	2	3	0.2063	0.0817	0	1	0.534	8	0	0
109	1	216	1	1	3	0.2063	0.0817	0	1	0.410	94	82	82
109	1	217	0	2	1	0.2063	0.0817	1	1	1.260	5	82	0
109	1	218	1	1	3	0.2063	0.0817	0	1	0.514	84	82	82
109	1	219	1	2	3	0.2063	0.0817	1	1	0.501	85	0	82
109	1	220	1	1	3	0.2063	0.0817	0	1	0.521	83	82	82
109	1	221	1	2	3	0.2063	0.0817	0	1	0.532	82	82	82
109	1	222	0	2	3	0.2063	0.0817	0	1	0.487	9	0	0
109	1	223	1	2	2	0.2063	0.0817	0	1	0.436	91	82	82
109	1	224	0	2	3	0.2063	0.0817	0	1	0.467	9	0	0
109	1	225	1	2	2	0.2063	0.0817	0	1	0.473	88	82	82
109	1	226	1	1	3	0.2063	0.0817	1	0	0.321	0	82	0
109	1	227	0	2	3	0.2063	0.0817	1	1	0.381	10	82	0
109	1	228	1	2	3	0.2063	0.0817	0	1	0.301	100	82	82
109	1	229	0	1	3	0.2063	0.0817	1	1	0.372	10	0	82
109	1	230	1	2	3	0.2063	0.0817	1	1	4.261	50	0	82
109	1	231	0	1	3	0.2063	0.0817	1	1	0.645	7	0	82
109	1	232	1	2	3	0.2063	0.0817	1	1	0.459	89	0	82
109	1	233	0	2	3	0.2063	0.0817	0	1	0.435	9	0	0
109	1	234	0	2	1	0.2063	0.0817	0	1	0.469	9	0	0
109	1	235	0	2	2	0.2063	0.0817	1	1	0.337	10	82	0
109	1	236	1	2	2	0.2063	0.0817	1	0	0.486	0	0	82
109	1	237	0	1	2	0.2063	0.0817	1	1	0.742	6	0	82
109	1	238	9	1	3	0.2063	0.0817	0	1	0.793	0	82	82
109	1	239	0	1	1	0.2063	0.0817	0	1	0.689	7	0	0
109	1	240	1	1	2	0.2063	0.0817	1	1	0.359	99	82	0
109	1	241	0	2	2	0.2063	0.0817	0	1	4.607	5	0	0
109	1	242	9	2	1	0.2063	0.0817	0	1	0.448	0	82	82
109	1	243	9	1	1	0.2063	0.0817	1	1	0.553	0	0	82
109	1	244	1	1	3	0.2063	0.0817	0	1	0.395	95	82	82
109	1	245	0	2	3	0.2063	0.0817	1	1	0.435	9	82	0
109	1	246	1	2	3	0.2063	0.0817	1	1	0.401	95	0	82
109	1	247	1	1	1	0.2063	0.0817	1	1	0.483	87	82	0
109	1	248	0	2	3	0.2063	0.0817	1	1	0.555	8	82	0
109	1	249	9	1	1	0.2063	0.0817	0	1	0.421	0	82	82
109	1	250	1	2	3	0.2063	0.0817	1	1	0.503	85	0	82
109	1	251	0	1	3	0.2063	0.0817	1	1	0.469	9	0	82
109	1	252	0	2	1	0.2063	0.0817	0	1	0.420	9	0	0
109	1	253	0	1	2	0.2063	0.0817	1	1	0.615	7	0	82
109	1	254	1	2	3	0.2063	0.0817	1	1	0.422	93	0	82
109	1	255	0	1	3	0.2063	0.0817	0	0	0.413	0	0	0
109	1	256	1	2	3	0.2063	0.0817	1	1	0.407	94	0	82
109	1	257	0	1	1	0.2063	0.0817	1	1	0.401	9	0	82
109	1	258	0	1	1	0.2063	0.0817	0	1	0.353	10	0	0
109	1	259	0	1	2	0.2063	0.0817	0	1	0.451	9	0	0
109	1	260	0	2	2	0.2063	0.0817	0	0	0.388	0	0	0
109	1	261	9	1	1	0.2063	0.0817	0	1	0.388	0	82	82
109	1	262	0	1	3	0.2063	0.0817	0	1	0.383	10	0	0
109	1	263	1	2	2	0.2063	0.0817	0	1	0.377	97	82	82
109	1	264	0	1	1	0.2063	0.0817	1	0	0.316	0	0	82
109	1	265	1	2	3	0.2063	0.0817	0	1	0.359	99	82	82
109	1	266	0	1	1	0.2063	0.0817	0	1	0.394	10	0	0
109	1	267	0	1	1	0.2063	0.0817	0	1	0.500	8	0	0
109	1	268	0	2	2	0.2063	0.0817	0	0	0.498	0	0	0
109	1	269	9	2	2	0.2063	0.0817	1	1	0.361	0	0	82
109	1	270	1	2	3	0.2063	0.0817	0	0	0.581	0	82	82
109	1	271	1	2	3	0.2063	0.0817	0	1	0.478	87	82	82
109	1	272	9	2	2	0.2063	0.0817	0	1	0.540	0	0	0
109	1	273	0	2	2	0.2063	0.0817	0	1	0.464	9	0	0
109	1	274	1	1	1	0.2063	0.0817	0	1	0.894	50	82	82
109	1	275	9	2	3	0.2063	0.0817	0	1	0.452	0	82	82
109	1	276	1	2	3	0.2063	0.0817	1	1	0.461	89	0	82
109	1	277	0	1	1	0.2063	0.0817	1	0	0.469	0	0	82
109	1	278	1	1	3	0.2063	0.0817	1	1	0.395	95	82	0
109	1	279	1	2	3	0.2063	0.0817	0	1	0.459	89	82	82
109	1	280	0	1	1	0.2063	0.0817	1	1	0.457	9	0	82
109	1	281	9	2	3	0.2063	0.0817	1	1	0.417	0	0	82
109	1	282	0	1	3	0.2063	0.0817	0	1	0.377	10	0	0
109	1	283	0	2	2	0.2063	0.0817	0	1	0.530	8	0	0
109	1	284	1	2	2	0.2063	0.0817	0	0	0.368	0	82	82
109	1	285	1	1	1	0.2063	0.0817	0	1	0.420	93	82	82
109	1	286	1	2	3	0.2063	0.0817	0	1	0.501	85	82	82
109	1	287	0	2	2	0.2063	0.0817	0	1	0.505	8	0	0
109	1	288	0	2	3	0.2063	0.0817	0	1	0.382	10	0	0
109	1	289	1	2	3	0.2063	0.0817	0	1	0.399	95	82	82
109	1	290	1	2	2	0.2063	0.0817	0	1	0.464	89	82	82
109	1	291	9	2	3	0.2063	0.0817	1	1	0.385	0	0	82
109	1	292	0	1	1	0.2063	0.0817	1	0	0.451	0	0	82
109	1	293	0	2	3	0.2063	0.0817	1	1	0.436	9	82	0
109	1	294	0	1	3	0.2063	0.0817	0	1	0.549	8	0	0
109	1	295	9	2	2	0.2063	0.0817	0	1	0.753	0	0	0
109	1	296	0	1	3	0.2063	0.0817	0	1	0.541	8	0	0
109	1	297	1	1	3	0.2063	0.0817	1	1	0.731	62	82	0
109	1	298	1	2	2	0.2063	0.0817	1	1	0.574	78	0	82
109	1	299	0	2	3	0.2063	0.0817	1	1	0.512	8	82	0
109	1	300	1	2	3	0.2063	0.0817	1	1	0.564	79	0	82
109	1	301	1	2	3	0.2063	0.0817	1	1	0.379	97	0	82
109	1	302	0	1	1	0.2063	0.0817	0	1	0.390	10	0	0
109	1	303	1	2	2	0.2063	0.0817	0	1	0.482	87	82	82
109	1	304	1	1	3	0.2063	0.0817	0	1	0.456	89	82	82
109	1	305	0	1	3	0.2063	0.0817	1	1	0.342	10	0	82
109	1	306	1	1	1	0.2063	0.0817	0	1	0.386	96	82	82
109	1	307	1	2	2	0.2063	0.0817	0	1	0.381	97	82	82
109	1	308	0	1	3	0.2063	0.0817	1	1	0.321	10	0	82
109	1	309	1	1	1	0.2063	0.0817	1	0	0.381	0	82	0
109	1	310	9	2	2	0.2063	0.0817	0	0	0.528	0	82	82
109	1	311	0	2	1	0.2063	0.0817	0	1	0.490	9	0	0
109	1	312	9	2	3	0.2063	0.0817	0	1	0.567	0	0	0
109	1	313	9	2	3	0.2063	0.0817	0	1	0.450	0	0	0
109	1	314	9	1	1	0.2063	0.0817	0	0	0.522	0	82	82
109	1	315	9	1	3	0.2063	0.0817	1	1	0.495	0	0	82
109	1	316	1	1	1	0.2063	0.0817	1	1	0.359	99	82	0
109	1	317	0	1	3	0.2063	0.0817	0	1	0.410	9	0	0
109	1	318	0	2	3	0.2063	0.0817	0	0	0.427	0	0	0
109	1	319	0	2	2	0.2063	0.0817	1	1	0.410	9	82	0
109	1	320	0	1	1	0.2063	0.0817	0	1	0.417	9	0	0
109	1	321	1	2	1	0.2063	0.0817	1	1	0.473	88	0	82
109	1	322	9	1	3	0.2063	0.0817	0	1	0.414	0	0	0
109	1	323	0	2	2	0.2063	0.0817	1	1	0.342	10	82	0
109	1	324	1	1	3	0.2063	0.0817	0	1	0.433	92	82	82
109	1	325	0	1	1	0.2063	0.0817	0	1	0.322	10	0	0
109	1	326	9	2	2	0.2063	0.0817	1	1	0.416	0	82	0
109	1	327	1	2	2	0.2063	0.0817	1	1	0.313	100	0	82
109	1	328	9	1	1	0.2063	0.0817	0	1	0.308	0	0	0
109	1	329	9	2	3	0.2063	0.0817	1	1	0.256	0	82	0
109	1	330	9	2	2	0.2063	0.0817	1	1	0.415	0	82	0
109	1	331	1	2	3	0.2063	0.0817	1	1	0.552	80	0	82
109	1	332	0	2	2	0.2063	0.0817	1	1	0.364	10	82	0
109	1	333	9	2	2	0.2063	0.0817	0	1	0.406	0	82	82
109	1	334	9	1	3	0.2063	0.0817	0	1	0.542	0	82	82
109	1	335	9	2	3	0.2063	0.0817	0	1	0.466	0	82	82
109	1	336	0	1	3	0.2063	0.0817	0	1	0.425	9	0	0
109	1	337	1	1	3	0.2063	0.0817	0	0	0.288	0	82	82
109	1	338	1	1	1	0.2063	0.0817	0	1	0.357	99	82	82
109	1	339	0	2	3	0.2063	0.0817	0	1	0.486	9	0	0
109	1	340	0	1	3	0.2063	0.0817	0	1	0.334	10	0	0
109	1	341	1	2	1	0.2063	0.0817	1	1	0.340	100	0	82
109	1	342	9	2	1	0.2063	0.0817	1	0	0.280	0	0	82
109	1	343	0	2	2	0.2063	0.0817	0	1	0.470	9	0	0
109	1	344	1	1	3	0.2063	0.0817	0	1	0.427	92	82	82
109	1	345	9	1	1	0.2063	0.0817	1	0	0.405	0	0	82
109	1	346	0	2	2	0.2063	0.0817	1	1	0.405	9	82	0
109	1	347	0	2	2	0.2063	0.0817	1	1	0.360	10	82	0
109	1	348	9	2	3	0.2063	0.0817	1	1	0.380	0	82	0
109	1	349	9	1	1	0.2063	0.0817	1	1	0.511	0	82	0
109	1	350	1	1	3	0.2063	0.0817	0	1	0.331	100	82	82
109	1	351	0	1	3	0.2063	0.0817	0	1	0.377	10	0	0
109	1	352	1	1	3	0.2063	0.0817	0	1	0.538	81	82	82
109	1	353	0	1	1	0.2063	0.0817	1	1	0.301	10	0	82
109	1	354	0	1	1	0.2063	0.0817	0	1	0.329	10	0	0
109	1	355	1	1	1	0.2063	0.0817	1	1	0.268	100	82	0
109	1	356	1	1	3	0.2063	0.0817	1	1	0.492	86	82	0
109	1	357	1	1	2	0.2063	0.0817	0	0	0.314	0	82	82
109	1	358	1	2	2	0.2063	0.0817	1	1	0.398	95	0	82
109	1	359	1	1	3	0.2063	0.0817	1	1	0.398	95	82	0
109	1	360	0	2	2	0.2063	0.0817	1	1	0.456	9	82	0
109	1	361	9	1	2	0.2063	0.0817	1	1	0.646	0	0	82
109	1	362	0	2	3	0.2063	0.0817	0	1	0.559	8	0	0
109	1	363	9	2	2	0.2063	0.0817	0	1	0.403	0	0	0
109	1	364	0	2	2	0.2063	0.0817	1	1	0.355	10	82	0
109	1	365	1	1	3	0.2063	0.0817	0	1	0.437	91	82	82
109	1	366	9	1	3	0.2063	0.0817	1	0	0.412	0	0	82
109	1	367	0	1	3	0.2063	0.0817	1	0	0.428	0	0	82
109	1	368	9	2	3	0.2063	0.0817	1	1	0.422	0	82	0
109	1	369	1	2	2	0.2063	0.0817	1	1	0.296	100	0	82
109	1	370	0	2	2	0.2063	0.0817	1	1	0.276	10	82	0
109	1	371	1	2	2	0.2063	0.0817	0	0	0.385	0	82	82
109	1	372	9	2	3	0.2063	0.0817	0	0	0.435	0	0	0
109	1	373	1	1	1	0.2063	0.0817	1	1	0.643	71	82	0
109	1	374	9	1	1	0.2063	0.0817	0	1	0.388	0	82	82
109	1	375	1	1	3	0.2063	0.0817	1	1	0.718	63	82	0
109	1	376	0	2	2	0.2063	0.0817	0	1	0.514	8	0	0
109	1	377	0	2	2	0.2063	0.0817	1	1	0.310	10	82	0
109	1	378	0	1	3	0.2063	0.0817	0	1	0.405	9	0	0
109	1	379	1	1	1	0.2063	0.0817	1	1	0.302	100	82	0
109	1	380	1	1	3	0.2063	0.0817	1	1	0.412	94	82	0
109	1	381	0	2	3	0.2063	0.0817	0	0	0.642	0	0	0
109	1	382	0	1	3	0.2063	0.0817	0	1	0.475	9	0	0
109	1	383	0	1	3	0.2063	0.0817	0	1	0.387	10	0	0
109	1	384	0	2	1	0.2063	0.0817	1	1	0.327	10	82	0
109	1	385	1	2	2	0.2063	0.0817	0	1	0.546	80	82	82
109	1	386	0	2	3	0.2063	0.0817	1	1	0.285	10	82	0
109	1	387	1	2	3	0.2063	0.0817	1	1	0.540	81	0	82
109	1	388	1	2	2	0.2063	0.0817	1	1	0.375	98	0	82
109	1	389	0	1	1	0.2063	0.0817	0	1	0.377	10	0	0
109	1	390	0	1	1	0.2063	0.0817	1	0	0.476	0	0	82
109	1	391	0	2	2	0.2063	0.0817	1	1	0.401	9	82	0
109	1	392	1	1	2	0.2063	0.0817	0	1	0.459	89	82	82
109	1	393	1	2	3	0.2063	0.0817	1	1	0.394	96	0	82
109	1	394	9	2	3	0.2063	0.0817	1	0	0.274	0	82	0
109	1	395	0	1	1	0.2063	0.0817	1	1	0.552	8	0	82
109	1	396	9	1	1	0.2063	0.0817	0	1	0.532	0	82	82
109	1	397	9	1	2	0.2063	0.0817	0	0	0.344	0	0	0
109	1	398	1	1	3	0.2063	0.0817	0	1	0.365	99	82	82
109	1	399	0	2	2	0.2063	0.0817	1	1	0.350	10	82	0
109	1	400	1	1	2	0.2063	0.0817	1	0	0.416	0	82	0
109	1	401	1	1	1	0.2063	0.0817	0	1	0.759	59	82	82
109	1	402	0	2	3	0.2063	0.0817	0	1	0.626	7	0	0
109	1	403	0	1	3	0.2063	0.0817	0	1	0.506	8	0	0
109	1	404	1	2	1	0.2063	0.0817	0	1	0.446	90	82	82
109	1	405	0	2	3	0.2063	0.0817	1	1	0.358	10	82	0
109	1	406	1	2	3	0.2063	0.0817	0	0	0.449	0	82	82
109	1	407	1	2	2	0.2063	0.0817	0	1	0.433	92	82	82
109	1	408	9	2	3	0.2063	0.0817	1	1	0.371	0	82	0
109	1	409	0	1	3	0.2063	0.0817	0	1	0.518	8	0	0
109	1	410	0	1	3	0.2063	0.0817	1	1	0.475	9	0	82
109	1	411	1	2	3	0.2063	0.0817	0	1	0.490	86	82	82
109	1	412	1	1	1	0.2063	0.0817	0	1	0.648	70	82	82
109	1	413	0	2	2	0.2063	0.0817	1	1	0.354	10	82	0
109	1	414	0	2	3	0.2063	0.0817	1	1	0.430	9	82	0
109	1	415	1	2	2	0.2063	0.0817	1	1	0.397	95	0	82
109	1	416	1	1	1	0.2063	0.0817	0	1	0.326	100	82	82
109	1	417	1	2	3	0.2063	0.0817	0	1	0.489	86	82	82
109	1	418	9	2	2	0.2063	0.0817	1	1	0.351	0	82	0
109	1	419	9	2	2	0.2063	0.0817	0	1	0.369	0	0	0
109	1	420	1	2	3	0.2063	0.0817	0	0	0.460	0	82	82
109	1	421	0	2	3	0.2063	0.0817	1	1	0.355	10	82	0
109	1	422	1	2	2	0.2063	0.0817	1	1	0.430	92	0	82
109	1	423	1	1	1	0.2063	0.0817	1	0	0.342	0	82	0
109	1	424	1	1	3	0.2063	0.0817	0	1	0.371	98	82	82
109	1	425	0	1	1	0.2063	0.0817	0	1	0.415	9	0	0
109	1	426	9	1	3	0.2063	0.0817	1	1	0.414	0	82	0
109	1	427	0	1	3	0.2063	0.0817	1	0	0.630	0	0	82
109	1	428	0	1	2	0.2063	0.0817	0	1	0.445	9	0	0
109	1	429	1	1	2	0.2063	0.0817	1	1	0.460	89	82	0
109	1	430	0	1	2	0.2063	0.0817	0	1	0.571	8	0	0
109	1	431	9	1	1	0.2063	0.0817	1	1	0.454	0	0	82
109	1	432	9	2	2	0.2063	0.0817	0	1	0.324	0	0	0
109	1	433	1	1	3	0.2063	0.0817	1	1	0.282	100	82	0
109	1	434	9	1	1	0.2063	0.0817	0	1	0.424	0	82	82
109	1	435	1	1	3	0.2063	0.0817	0	1	0.425	93	82	82
109	1	436	0	2	2	0.2063	0.0817	0	1	0.505	8	0	0
109	1	437	9	1	1	0.2063	0.0817	0	1	0.390	0	0	0
109	1	438	1	1	1	0.2063	0.0817	0	1	0.385	96	82	82
109	1	439	1	2	1	0.2063	0.0817	1	1	0.373	98	0	82
109	1	440	0	1	1	0.2063	0.0817	1	0	0.432	0	0	82
109	1	441	0	1	1	0.2063	0.0817	0	0	0.480	0	0	0
109	1	442	9	2	2	0.2063	0.0817	0	1	2.255	0	82	82
109	1	443	1	1	3	0.2063	0.0817	0	1	0.670	68	82	82
109	1	444	9	2	3	0.2063	0.0817	0	1	0.395	0	0	0
109	1	445	0	2	3	0.2063	0.0817	0	1	0.395	10	0	0
109	1	446	1	1	3	0.2063	0.0817	0	1	0.421	93	82	82
109	1	447	9	2	3	0.2063	0.0817	1	0	0.348	0	0	82
109	1	448	1	1	1	0.2063	0.0817	0	1	0.430	92	82	82
109	1	449	1	1	1	0.2063	0.0817	0	1	0.423	93	82	82
109	1	450	0	2	3	0.2063	0.0817	0	0	0.455	0	0	0
109	1	451	0	1	3	0.2063	0.0817	1	1	0.503	8	0	82
109	1	452	1	2	2	0.2063	0.0817	1	1	0.350	100	0	82
109	1	453	0	2	3	0.2063	0.0817	0	1	0.385	10	0	0
109	1	454	1	1	1	0.2063	0.0817	1	1	0.349	100	82	0
109	1	455	9	1	2	0.2063	0.0817	1	1	0.410	0	82	0
109	1	456	0	1	1	0.2063	0.0817	0	0	0.298	0	0	0
109	1	457	0	2	2	0.2063	0.0817	0	1	0.872	5	0	0
109	1	458	9	2	2	0.2063	0.0817	1	1	0.392	0	0	82
109	1	459	1	2	3	0.2063	0.0817	0	1	0.484	87	82	82
109	1	460	0	2	3	0.2063	0.0817	1	1	0.363	10	82	0
109	1	461	1	1	3	0.2063	0.0817	1	1	0.585	77	82	0
109	1	462	1	2	2	0.2063	0.0817	0	1	0.417	93	82	82
109	1	463	9	2	3	0.2063	0.0817	0	1	0.435	0	0	0
109	1	464	9	1	1	0.2063	0.0817	1	1	0.339	0	0	82
109	1	465	1	1	2	0.2063	0.0817	1	0	0.527	0	82	0
109	1	466	1	1	3	0.2063	0.0817	1	1	0.564	79	82	0
109	1	467	9	2	2	0.2063	0.0817	1	1	0.384	0	0	82
109	1	468	9	1	3	0.2063	0.0817	1	0	0.692	0	0	82
109	1	469	1	2	2	0.2063	0.0817	1	1	0.348	100	0	82
109	1	470	0	2	1	0.2063	0.0817	1	1	0.319	10	82	0
109	1	471	0	1	1	0.2063	0.0817	0	1	0.350	10	0	0
109	1	472	0	2	2	0.2063	0.0817	0	0	0.675	0	0	0
109	1	473	0	1	3	0.2063	0.0817	1	1	0.647	7	0	82
109	1	474	1	1	3	0.2063	0.0817	1	1	0.469	88	82	0
109	1	475	9	1	3	0.2063	0.0817	0	1	0.267	0	0	0
109	1	476	9	1	1	0.2063	0.0817	1	1	0.548	0	0	82
109	1	477	0	1	2	0.2063	0.0817	1	0	0.512	0	0	82
109	1	478	0	2	2	0.2063	0.0817	0	1	0.588	8	0	0
109	1	479	1	2	2	0.2063	0.0817	1	1	0.349	100	0	82
109	1	480	1	1	1	0.2063	0.0817	1	1	0.585	76	82	0
109	1	481	1	2	2	0.2063	0.0817	1	1	0.371	98	0	82
109	1	482	0	2	2	0.2063	0.0817	1	1	0.310	10	82	0
109	1	483	1	2	2	0.2063	0.0817	0	0	0.641	0	82	82
109	1	484	1	2	1	0.2063	0.0817	1	1	0.512	84	0	82
109	1	485	0	1	1	0.2063	0.0817	1	1	0.525	8	0	82
109	1	486	1	1	1	0.2063	0.0817	0	1	0.394	96	82	82
109	1	487	0	2	2	0.2063	0.0817	0	1	0.372	10	0	0
109	1	488	9	2	3	0.2063	0.0817	0	1	0.448	0	82	82
109	1	489	1	1	3	0.2063	0.0817	0	1	0.271	100	82	82
109	1	490	1	2	1	0.2063	0.0817	0	1	0.495	86	82	82
109	1	491	1	1	3	0.2063	0.0817	1	1	0.475	87	82	0
109	1	492	0	2	1	0.2063	0.0817	0	1	0.274	10	0	0
109	1	493	1	2	3	0.2063	0.0817	0	1	0.483	87	82	82
109	1	494	1	2	3	0.2063	0.0817	0	1	0.497	85	82	82
109	1	495	1	2	2	0.2063	0.0817	0	0	0.374	0	82	82
109	1	496	9	1	1	0.2063	0.0817	0	1	0.450	0	0	0
109	1	497	9	1	1	0.2063	0.0817	1	0	0.274	0	82	0
109	1	498	0	2	2	0.2063	0.0817	1	1	0.449	9	82	0
109	1	499	9	1	1	0.2063	0.0817	1	1	0.296	0	82	0
109	1	500	0	1	3	0.2063	0.0817	1	1	0.421	9	0	82
109	1	501	1	2	1	0.2063	0.0817	1	1	0.373	98	0	82
109	1	502	1	1	1	0.2063	0.0817	1	1	0.465	89	82	0
109	1	503	0	2	3	0.2063	0.0817	0	1	0.440	9	0	0
109	1	504	1	1	1	0.2063	0.0817	0	0	0.233	0	82	82
109	1	505	0	1	1	0.2063	0.0817	0	1	0.379	10	0	0
109	1	506	1	2	3	0.2063	0.0817	0	1	0.495	86	82	82
109	1	507	1	1	1	0.2063	0.0817	0	1	0.405	95	82	82
109	1	508	9	1	3	0.2063	0.0817	1	1	2.854	0	82	0
109	1	509	0	2	3	0.2063	0.0817	0	1	0.477	9	0	0
109	1	510	1	2	3	0.2063	0.0817	1	1	0.339	100	0	82
109	1	511	1	2	3	0.2063	0.0817	0	1	0.367	98	82	82
109	1	512	0	1	2	0.2063	0.0817	1	1	0.411	9	0	82
109	1	513	9	1	3	0.2063	0.0817	1	1	0.467	0	82	0
109	1	514	9	2	1	0.2063	0.0817	0	1	0.490	0	82	82
109	1	515	0	1	3	0.2063	0.0817	0	1	0.426	9	0	0
109	1	516	1	2	2	0.2063	0.0817	1	1	0.530	82	0	82
109	1	517	0	1	2	0.2063	0.0817	0	1	0.415	9	0	0
109	1	518	0	2	3	0.2063	0.0817	0	1	0.391	10	0	0
109	1	519	0	1	2	0.2063	0.0817	0	1	0.465	9	0	0
109	1	520	0	2	1	0.2063	0.0817	0	1	0.473	9	0	0
109	1	521	1	1	1	0.2063	0.0817	1	0	0.456	0	82	0
109	1	522	0	1	1	0.2063	0.0817	1	1	0.648	7	0	82
109	1	523	0	2	3	0.2063	0.0817	1	1	0.431	9	82	0
109	1	524	1	1	3	0.2063	0.0817	0	1	0.535	81	82	82
109	1	525	9	2	2	0.2063	0.0817	0	0	0.442	0	0	0
109	1	526	1	2	3	0.2063	0.0817	1	1	0.400	95	0	82
109	1	527	0	1	1	0.2063	0.0817	1	1	0.467	9	0	82
109	1	528	1	1	3	0.2063	0.0817	1	1	0.433	92	82	0
109	1	529	9	2	2	0.2063	0.0817	0	1	0.473	0	82	82
109	1	530	1	2	1	0.2063	0.0817	0	1	0.487	86	82	82
109	1	531	1	1	3	0.2063	0.0817	1	1	0.499	85	82	0
109	1	532	0	1	1	0.2063	0.0817	1	0	0.546	0	0	82
109	1	533	9	1	3	0.2063	0.0817	1	1	0.456	0	0	82
109	1	534	1	1	2	0.2063	0.0817	0	0	0.433	0	82	82
109	1	535	1	2	2	0.2063	0.0817	1	1	0.409	94	0	82
109	1	536	0	1	3	0.2063	0.0817	0	1	0.451	9	0	0
109	1	537	0	1	3	0.2063	0.0817	0	1	0.417	9	0	0
109	1	538	1	2	2	0.2063	0.0817	0	1	0.444	91	82	82
109	1	539	9	1	3	0.2063	0.0817	0	1	0.596	0	0	0
109	1	540	0	2	2	0.2063	0.0817	0	1	0.390	10	0	0
109	1	541	9	2	3	0.2063	0.0817	1	1	0.386	0	82	0
109	1	542	1	1	1	0.2063	0.0817	0	1	0.341	100	82	82
109	1	543	9	2	2	0.2063	0.0817	1	1	0.449	0	82	0
109	1	544	1	2	2	0.2063	0.0817	1	1	0.345	100	0	82
109	1	545	9	2	2	0.2063	0.0817	1	1	0.322	0	0	82
109	1	546	1	1	3	0.2063	0.0817	0	0	0.337	0	82	82
109	1	547	1	1	3	0.2063	0.0817	1	1	0.575	78	82	0
109	1	548	1	1	3	0.2063	0.0817	0	1	0.295	100	82	82
109	1	549	1	2	3	0.2063	0.0817	1	1	0.307	100	0	82
109	1	550	1	2	3	0.2063	0.0817	1	1	0.435	92	0	82
109	1	551	1	1	3	0.2063	0.0817	0	1	0.274	100	82	82
109	1	552	0	1	2	0.2063	0.0817	1	0	0.483	0	0	82
109	1	553	1	1	1	0.2063	0.0817	1	1	0.457	89	82	0
109	1	554	1	2	3	0.2063	0.0817	0	1	0.409	94	82	82
109	1	555	1	2	3	0.2063	0.0817	1	1	0.258	100	0	82
109	1	556	1	2	3	0.2063	0.0817	1	0	0.295	0	0	82
109	1	557	0	1	3	0.2063	0.0817	0	0	0.276	0	0	0
109	1	558	0	1	3	0.2063	0.0817	1	1	0.457	9	0	82
109	1	559	1	1	3	0.2063	0.0817	0	1	0.377	97	82	82
109	1	560	0	1	1	0.2063	0.0817	0	1	0.474	9	0	0
109	1	561	0	1	3	0.2063	0.0817	0	1	0.742	6	0	0
109	1	562	1	1	1	0.2063	0.0817	0	0	0.289	0	82	82
109	1	563	1	1	1	0.2063	0.0817	0	1	0.406	94	82	82
109	1	564	0	2	2	0.2063	0.0817	0	1	0.568	8	0	0
109	1	565	1	2	2	0.2063	0.0817	1	0	0.330	0	0	82
109	1	566	0	2	2	0.2063	0.0817	1	1	0.335	10	82	0
109	1	567	1	2	2	0.2063	0.0817	0	1	0.450	90	82	82
109	1	568	1	2	3	0.2063	0.0817	1	1	0.416	93	0	82
109	1	569	0	2	3	0.2063	0.0817	0	1	0.481	9	0	0
109	1	570	0	2	2	0.2063	0.0817	0	1	0.519	8	0	0
109	1	571	0	2	2	0.2063	0.0817	0	1	0.429	9	0	0
109	1	572	1	2	2	0.2063	0.0817	0	1	0.453	90	82	82
109	1	573	0	2	2	0.2063	0.0817	1	1	0.461	9	82	0
109	1	574	0	1	1	0.2063	0.0817	0	1	0.517	8	0	0
109	1	575	1	1	1	0.2063	0.0817	0	1	0.530	82	82	82
109	1	576	0	1	3	0.2063	0.0817	1	1	0.821	5	0	82
109	1	577	9	1	1	0.2063	0.0817	1	1	0.411	0	82	0
109	1	578	0	1	3	0.2063	0.0817	0	1	0.388	10	0	0
109	1	579	0	1	1	0.2063	0.0817	1	1	0.315	10	0	82
109	1	580	0	2	3	0.2063	0.0817	1	1	0.497	9	82	0
109	1	581	1	2	3	0.2063	0.0817	0	1	0.451	90	82	82
109	1	582	1	1	3	0.2063	0.0817	1	1	0.650	70	82	0
109	1	583	0	2	3	0.2063	0.0817	1	1	0.387	10	82	0
109	1	584	0	2	3	0.2063	0.0817	0	1	0.347	10	0	0
109	1	585	1	2	3	0.2063	0.0817	0	1	0.478	87	82	82
109	1	586	0	1	1	0.2063	0.0817	1	1	0.426	9	0	82
109	1	587	9	2	1	0.2063	0.0817	1	1	0.484	0	0	82
109	1	588	1	2	2	0.2063	0.0817	1	1	0.380	97	0	82
109	1	589	0	2	3	0.2063	0.0817	0	1	0.542	8	0	0
109	1	590	1	1	1	0.2063	0.0817	1	1	0.299	100	82	0
109	1	591	0	1	1	0.2063	0.0817	1	0	0.560	0	0	82
109	1	592	9	1	3	0.2063	0.0817	0	1	0.459	0	82	82
109	1	593	9	2	2	0.2063	0.0817	1	1	0.321	0	82	0
109	1	594	1	1	3	0.2063	0.0817	1	1	0.286	100	82	0
109	1	595	0	1	1	0.2063	0.0817	1	1	0.412	9	0	82
109	1	596	0	1	1	0.2063	0.0817	0	0	0.422	0	0	0
109	1	597	0	1	3	0.2063	0.0817	1	0	0.462	0	0	82
109	1	598	0	2	2	0.2063	0.0817	1	1	0.322	10	82	0
109	1	599	9	2	3	0.2063	0.0817	1	1	0.342	0	0	82
109	1	600	1	2	3	0.2063	0.0817	0	1	0.546	80	82	82
109	1	601	9	2	1	0.2063	0.0817	0	1	0.389	0	0	0
109	1	602	0	2	3	0.2063	0.0817	0	1	0.310	10	0	0
109	1	603	1	2	3	0.2063	0.0817	1	1	0.354	100	0	82
109	1	604	1	1	1	0.2063	0.0817	1	1	0.524	83	82	0
109	1	605	1	1	1	0.2063	0.0817	1	1	0.377	97	82	0
109	1	606	0	1	1	0.2063	0.0817	1	1	0.427	9	0	82
109	1	607	1	2	2	0.2063	0.0817	0	1	0.379	97	82	82
109	1	608	1	2	2	0.2063	0.0817	0	1	0.422	93	82	82
109	1	609	9	2	2	0.2063	0.0817	1	1	0.350	0	82	0
109	1	610	1	2	2	0.2063	0.0817	0	1	0.456	89	82	82
109	1	611	1	2	3	0.2063	0.0817	1	1	0.359	99	0	82
109	1	612	0	1	3	0.2063	0.0817	1	0	0.483	0	0	82
109	1	613	1	2	1	0.2063	0.0817	1	1	0.305	100	0	82
109	1	614	1	2	3	0.2063	0.0817	1	1	0.397	95	0	82
109	1	615	0	2	2	0.2063	0.0817	1	1	0.345	10	82	0
109	1	616	1	1	2	0.2063	0.0817	0	0	0.395	0	82	82
109	1	617	0	2	3	0.2063	0.0817	0	1	0.356	10	0	0
109	1	618	0	1	1	0.2063	0.0817	0	0	0.503	0	0	0
109	1	619	1	2	3	0.2063	0.0817	1	1	0.571	78	0	82
109	1	620	9	1	3	0.2063	0.0817	0	1	0.452	0	0	0
109	1	621	0	2	2	0.2063	0.0817	0	1	0.549	8	0	0
109	1	622	1	1	1	0.2063	0.0817	1	0	0.439	0	82	0
109	1	623	1	2	2	0.2063	0.0817	0	0	0.687	0	82	82
109	1	624	0	1	3	0.2063	0.0817	1	1	0.611	7	0	82
109	1	625	0	1	3	0.2063	0.0817	1	1	0.557	8	0	82
109	1	626	9	2	3	0.2063	0.0817	0	0	0.650	0	82	82
109	1	627	1	1	3	0.2063	0.0817	0	1	0.609	74	82	82
109	1	628	0	2	3	0.2063	0.0817	1	1	0.498	9	82	0
109	1	629	0	1	3	0.2063	0.0817	0	1	0.457	9	0	0
109	1	630	0	2	1	0.2063	0.0817	0	1	0.759	6	0	0
109	1	631	9	1	3	0.2063	0.0817	0	1	0.522	0	0	0
109	1	632	1	1	3	0.2063	0.0817	1	1	0.487	86	82	0
109	1	633	9	1	2	0.2063	0.0817	0	1	0.557	0	82	82
109	1	634	0	1	1	0.2063	0.0817	1	1	0.498	9	0	82
109	1	635	0	1	1	0.2063	0.0817	0	1	0.504	8	0	0
109	1	636	0	1	1	0.2063	0.0817	0	1	0.500	9	0	0
109	1	637	1	2	2	0.2063	0.0817	0	0	0.697	0	82	82
109	1	638	0	2	2	0.2063	0.0817	0	1	0.485	9	0	0
109	1	639	0	2	2	0.2063	0.0817	0	1	0.557	8	0	0
109	1	640	0	2	1	0.2063	0.0817	1	1	0.311	10	82	0
109	1	641	0	2	3	0.2063	0.0817	1	1	0.369	10	82	0
109	1	642	0	1	1	0.2063	0.0817	0	1	0.348	10	0	0
109	1	643	0	1	3	0.2063	0.0817	1	1	0.697	7	0	82
109	1	644	0	2	2	0.2063	0.0817	1	1	0.448	9	82	0
109	1	645	1	1	1	0.2063	0.0817	1	1	0.439	91	82	0
109	1	646	0	1	3	0.2063	0.0817	1	1	0.494	9	0	82
109	1	647	1	2	2	0.2063	0.0817	0	1	0.636	71	82	82
109	1	648	1	1	1	0.2063	0.0817	1	1	0.284	100	82	0
109	1	649	9	1	3	0.2063	0.0817	0	1	0.451	0	82	82
109	1	650	1	2	2	0.2063	0.0817	1	1	0.393	96	0	82
109	1	651	0	2	3	0.2063	0.0817	0	1	0.448	9	0	0
109	1	652	0	1	1	0.2063	0.0817	0	1	0.481	9	0	0
109	1	653	0	2	1	0.2063	0.0817	0	1	0.406	9	0	0
109	1	654	9	1	3	0.2063	0.0817	0	1	0.350	0	82	82
109	1	655	9	1	1	0.2063	0.0817	0	1	0.368	0	0	0
109	1	656	1	1	3	0.2063	0.0817	1	0	0.443	0	82	0
109	1	657	1	1	1	0.2063	0.0817	1	1	0.475	87	82	0
109	1	658	9	2	2	0.2063	0.0817	0	1	0.482	0	82	82
109	1	659	9	2	2	0.2063	0.0817	0	1	0.486	0	82	82
109	1	660	1	2	1	0.2063	0.0817	0	1	0.395	96	82	82
109	1	661	1	1	3	0.2063	0.0817	0	1	0.539	81	82	82
109	1	662	1	1	3	0.2063	0.0817	0	1	0.416	93	82	82
109	1	663	1	1	1	0.2063	0.0817	0	1	0.416	93	82	82
109	1	664	0	1	3	0.2063	0.0817	0	1	0.464	9	0	0
109	1	665	9	2	3	0.2063	0.0817	1	1	0.342	0	0	82
109	1	666	0	1	3	0.2063	0.0817	0	1	0.449	9	0	0
109	1	667	1	1	3	0.2063	0.0817	0	1	0.415	94	82	82
109	1	668	9	2	3	0.2063	0.0817	0	1	0.368	0	82	82
109	1	669	0	2	3	0.2063	0.0817	0	1	0.290	10	0	0
109	1	670	1	2	2	0.2063	0.0817	1	1	0.377	97	0	82
109	1	671	1	2	3	0.2063	0.0817	1	1	0.372	98	0	82
109	1	672	0	1	1	0.2063	0.0817	0	1	0.302	10	0	0
109	1	673	1	2	2	0.2063	0.0817	0	1	0.316	100	82	82
109	1	674	1	2	3	0.2063	0.0817	0	1	0.384	97	82	82
109	1	675	1	1	3	0.2063	0.0817	1	1	0.484	87	82	0
109	1	676	0	2	2	0.2063	0.0817	0	1	0.323	10	0	0
109	1	677	0	1	3	0.2063	0.0817	1	1	0.352	10	0	82
109	1	678	0	1	1	0.2063	0.0817	1	1	0.571	8	0	82
109	1	679	1	1	2	0.2063	0.0817	1	1	0.324	100	82	0
109	1	680	9	1	1	0.2063	0.0817	0	1	0.376	0	0	0
109	1	681	1	1	3	0.2063	0.0817	1	1	0.413	94	82	0
109	1	682	0	2	3	0.2063	0.0817	1	1	0.414	9	82	0
109	1	683	0	2	3	0.2063	0.0817	1	1	0.359	10	82	0
109	1	684	1	1	1	0.2063	0.0817	0	1	0.370	98	82	82
109	1	685	0	2	2	0.2063	0.0817	1	1	0.341	10	82	0
109	1	686	0	1	3	0.2063	0.0817	0	1	0.392	10	0	0
109	1	687	9	2	3	0.2063	0.0817	0	0	0.284	0	82	82
109	1	688	0	1	1	0.2063	0.0817	1	1	0.321	10	0	82
109	1	689	0	1	1	0.2063	0.0817	0	1	0.317	10	0	0
109	1	690	0	2	3	0.2063	0.0817	1	1	0.344	10	82	0
109	1	691	0	2	2	0.2063	0.0817	0	1	0.557	8	0	0
109	1	692	0	1	3	0.2063	0.0817	0	1	0.327	10	0	0
109	1	693	1	1	1	0.2063	0.0817	0	1	0.364	99	82	82
109	1	694	1	2	3	0.2063	0.0817	1	1	0.456	89	0	82
109	1	695	9	1	3	0.2063	0.0817	0	1	0.342	0	82	82
109	1	696	0	1	1	0.2063	0.0817	1	1	0.527	8	0	82
109	1	697	9	2	3	0.2063	0.0817	1	1	0.403	0	0	82
109	1	698	9	1	1	0.2063	0.0817	1	0	0.349	0	82	0
109	1	699	0	1	2	0.2063	0.0817	1	1	0.432	9	0	82
109	1	700	1	2	3	0.2063	0.0817	0	1	0.495	85	82	82
109	1	701	0	2	3	0.2063	0.0817	1	1	0.402	9	82	0
109	1	702	1	2	3	0.2063	0.0817	1	1	0.348	100	0	82
109	1	703	1	1	2	0.2063	0.0817	0	1	0.309	100	82	82
109	1	704	0	2	3	0.2063	0.0817	1	1	0.434	9	82	0
109	1	705	9	2	1	0.2063	0.0817	1	0	0.386	0	82	0
109	1	706	1	2	2	0.2063	0.0817	1	1	0.300	100	0	82
109	1	707	1	1	1	0.2063	0.0817	1	1	0.587	76	82	0
109	1	708	9	1	1	0.2063	0.0817	1	0	0.429	0	0	82
109	1	709	0	2	2	0.2063	0.0817	0	1	0.555	8	0	0
109	1	710	1	2	3	0.2063	0.0817	0	0	0.349	0	82	82
109	1	711	9	2	3	0.2063	0.0817	0	1	0.490	0	0	0
109	1	712	0	2	2	0.2063	0.0817	1	1	0.287	10	82	0
109	1	713	9	1	1	0.2063	0.0817	0	0	0.308	0	82	82
109	1	714	0	2	1	0.2063	0.0817	1	1	0.378	10	82	0
109	1	715	9	1	3	0.2063	0.0817	1	1	0.507	0	0	82
109	1	716	0	1	3	0.2063	0.0817	1	1	0.386	10	0	82
109	1	717	0	2	3	0.2063	0.0817	1	1	0.274	10	82	0
109	1	718	9	2	2	0.2063	0.0817	1	1	0.362	0	0	82
109	1	719	0	2	2	0.2063	0.0817	1	1	0.277	10	82	0
109	1	720	9	1	3	0.2063	0.0817	1	1	0.307	0	82	0
