sub	sess	t	loc	co1	co2	or	resp	rt
1	1	1	2	1.0000	1.0000	1	0	1.038
1	1	2	2	1.0000	1.0000	1	0	3.239
1	1	3	1	1.0000	1.0000	1	1	0.625
1	1	4	1	1.0000	1.0000	0	0	0.548
1	1	5	1	1.0000	1.0000	0	0	0.681
1	1	6	1	1.0000	1.0000	0	0	1.070
1	1	7	2	1.0000	1.0000	1	0	1.242
1	1	8	2	1.0000	1.0000	1	0	1.198
1	1	9	2	1.0000	1.0000	1	0	6.221
1	1	10	1	1.0000	1.0000	0	1	1.615
1	1	11	2	1.0000	1.0000	0	0	0.865
1	1	12	2	1.0000	1.0000	0	1	0.984
1	1	13	1	1.0000	1.0000	1	0	0.869
1	1	14	1	1.0000	1.0000	1	1	1.094
1	1	15	2	1.0000	1.0000	0	1	1.200
1	1	16	2	1.0000	1.0000	0	1	0.663
1	1	17	1	1.0000	1.0000	1	1	0.856
1	1	18	2	1.0000	1.0000	1	1	1.037
1	1	19	1	1.0000	1.0000	1	1	0.983
1	1	20	2	1.0000	1.0000	0	1	0.656
1	1	21	1	1.0000	1.0000	0	1	0.719
1	1	22	1	1.0000	1.0000	0	1	0.607
1	1	23	1	1.0000	1.0000	1	1	0.653
1	1	24	2	1.0000	1.0000	0	1	0.688
1	1	25	1	1.0000	1.0000	1	1	0.641
1	1	26	2	1.0000	1.0000	0	1	0.678
1	1	27	2	1.0000	1.0000	1	1	0.562
1	1	28	1	1.0000	1.0000	0	1	0.469
1	1	29	2	1.0000	1.0000	0	0	1.142
1	1	30	2	1.0000	1.0000	1	1	0.672
1	1	31	1	1.0000	1.0000	0	1	0.636
1	1	32	2	1.0000	1.0000	1	1	0.596
1	1	33	1	1.0000	1.0000	1	1	0.920
1	1	34	1	1.0000	1.0000	1	1	1.071
1	1	35	1	1.0000	1.0000	0	1	0.589
1	1	36	2	1.0000	1.0000	0	1	0.728
1	1	37	1	0.2500	0.2500	1	1	0.649
1	1	38	2	0.2629	0.2629	1	1	1.286
1	1	39	1	0.2758	0.2758	0	1	0.520
1	1	40	1	0.2887	0.2887	0	1	0.619
1	1	41	2	0.3016	0.3016	1	1	0.727
1	1	42	1	0.3145	0.3145	1	1	0.772
1	1	43	1	0.3274	0.3274	1	1	0.611
1	1	44	2	0.3403	0.3403	0	1	0.693
1	1	45	1	0.3532	0.3532	0	1	0.575
1	1	46	1	0.3661	0.3661	0	1	0.662
1	1	47	1	0.3790	0.3790	1	1	0.629
1	1	48	1	0.3919	0.3919	1	1	0.739
1	1	49	2	0.4048	0.4048	1	1	0.599
1	1	50	2	0.4177	0.4177	0	1	0.593
1	1	51	2	0.4306	0.4306	1	1	0.584
1	1	52	2	0.4435	0.4435	0	1	0.610
1	1	53	1	0.4565	0.4565	0	1	0.522
1	1	54	2	0.4694	0.4694	0	1	0.571
1	1	55	1	0.4823	0.4823	0	1	0.763
1	1	56	1	0.4952	0.4952	0	1	0.632
1	1	57	2	0.5081	0.5081	0	1	0.548
1	1	58	1	0.5210	0.5210	1	1	0.734
1	1	59	1	0.5339	0.5339	1	1	0.740
1	1	60	2	0.5468	0.5468	0	1	0.496
1	1	61	2	0.5597	0.5597	1	1	0.549
1	1	62	1	0.5726	0.5726	0	0	0.883
1	1	63	2	0.5855	0.5855	1	1	0.611
1	1	64	1	0.5984	0.5984	1	1	0.702
1	1	65	2	0.6113	0.6113	1	1	0.718
1	1	66	1	0.6242	0.6242	0	1	0.608
1	1	67	2	0.6371	0.6371	0	1	0.605
1	1	68	1	0.6500	0.6500	0	1	0.756
1	1	69	1	0.2500	0.2500	1	1	0.672
1	1	70	2	0.2629	0.2629	0	1	1.020
1	1	71	2	0.2758	0.2758	0	1	0.508
1	1	72	1	0.2887	0.2887	1	1	0.579
1	1	73	2	0.3016	0.3016	0	1	0.647
1	1	74	2	0.3145	0.3145	1	1	0.596
1	1	75	2	0.3274	0.3274	1	1	0.607
1	1	76	1	0.3403	0.3403	0	1	0.681
1	1	77	1	0.3532	0.3532	0	1	0.549
1	1	78	2	0.3661	0.3661	1	1	0.687
1	1	79	1	0.3790	0.3790	1	1	1.092
1	1	80	2	0.3919	0.3919	0	1	0.594
1	1	81	2	0.4048	0.4048	0	1	0.519
1	1	82	2	0.4177	0.4177	0	1	0.506
1	1	83	2	0.4306	0.4306	0	1	0.516
1	1	84	1	0.4435	0.4435	0	1	0.718
1	1	85	1	0.4565	0.4565	0	1	0.580
1	1	86	2	0.4694	0.4694	1	1	0.675
1	1	87	1	0.4823	0.4823	1	1	0.820
1	1	88	2	0.4952	0.4952	1	1	0.649
1	1	89	2	0.5081	0.5081	1	1	0.653
1	1	90	2	0.5210	0.5210	1	1	0.588
1	1	91	2	0.5339	0.5339	1	1	0.548
1	1	92	1	0.5468	0.5468	1	1	0.831
1	1	93	1	0.5597	0.5597	0	1	0.464
1	1	94	1	0.5726	0.5726	0	1	0.522
1	1	95	2	0.5855	0.5855	0	0	0.611
1	1	96	1	0.5984	0.5984	1	1	0.828
1	1	97	2	0.6113	0.6113	0	1	0.536
1	1	98	2	0.6242	0.6242	1	1	0.764
1	1	99	1	0.6371	0.6371	1	1	0.839
1	1	100	1	0.6500	0.6500	1	0	1.091
1	1	101	2	0.6500	0.1735	0	1	0.878
1	1	102	2	0.6500	0.1621	0	0	0.965
1	1	103	1	0.1721	0.1621	1	1	0.646
1	1	104	1	0.1591	0.1621	1	1	0.744
1	1	105	1	0.1466	0.1621	0	0	0.956
1	1	106	2	0.1466	0.1952	1	1	0.716
1	1	107	1	0.1835	0.1952	1	1	0.682
1	1	108	2	0.1835	0.1861	1	1	0.580
1	1	109	1	0.1730	0.1861	1	1	0.696
1	1	110	1	0.1631	0.1861	0	1	0.691
1	1	111	2	0.1631	0.1773	1	1	0.614
1	1	112	2	0.1631	0.1686	1	1	0.560
1	1	113	1	0.1538	0.1686	0	1	0.919
1	1	114	2	0.1538	0.1601	1	1	0.684
1	1	115	2	0.1538	0.1517	0	1	0.603
1	1	116	2	0.1538	0.1435	0	1	0.532
1	1	117	1	0.1448	0.1435	1	1	0.781
1	1	118	2	0.1448	0.1354	0	1	0.504
1	1	119	2	0.1448	0.1274	0	1	0.540
1	1	120	2	0.1448	0.1195	0	1	0.519
1	1	121	1	0.1361	0.1195	0	1	0.827
1	1	122	2	0.1361	0.1118	1	0	0.939
1	1	123	2	0.1361	0.1341	1	1	0.674
1	1	124	2	0.1361	0.1272	1	1	1.385
1	1	125	2	0.1361	0.1205	1	1	0.603
1	1	126	1	0.1277	0.1205	0	1	0.585
1	1	127	1	0.1195	0.1205	1	1	0.614
1	1	128	1	0.1115	0.1205	0	1	0.792
1	1	129	1	0.1038	0.1205	1	1	0.591
1	1	130	1	0.0962	0.1205	1	1	0.678
1	1	131	1	0.0887	0.1205	0	1	0.556
1	1	132	1	0.0815	0.1205	0	1	0.698
1	1	133	2	0.0815	0.1140	0	1	0.837
1	1	134	2	0.0815	0.1076	1	1	0.730
1	1	135	1	0.0744	0.1076	1	1	0.799
1	1	136	1	0.0675	0.1076	1	1	0.590
1	1	137	2	0.0675	0.1014	0	0	0.942
1	1	138	2	0.0675	0.1194	0	1	0.569
1	1	139	1	0.0606	0.1194	1	1	0.585
1	1	140	1	0.0541	0.1194	1	1	0.589
1	1	141	2	0.0541	0.1137	0	1	0.710
1	1	142	2	0.0541	0.1080	0	1	0.498
1	1	143	1	0.0476	0.1080	0	1	0.654
1	1	144	1	0.0413	0.1080	0	1	0.751
1	1	145	1	0.0351	0.1080	0	1	1.254
1	1	146	1	0.0291	0.1080	1	1	0.710
1	1	147	2	0.0291	0.1026	0	1	0.645
1	1	148	2	0.0291	0.0973	1	1	0.551
1	1	149	1	0.0232	0.0973	1	1	0.843
1	1	150	1	0.0175	0.0973	0	1	0.777
1	1	151	1	0.0119	0.0973	0	0	0.923
1	1	152	2	0.0119	0.0921	0	1	0.649
1	1	153	2	0.0119	0.0871	1	1	0.639
1	1	154	2	0.0119	0.0822	0	0	1.942
1	1	155	1	0.0280	0.0822	1	1	0.703
1	1	156	2	0.0280	0.0963	1	1	0.687
1	1	157	2	0.0280	0.0916	0	1	0.604
1	1	158	1	0.0227	0.0916	0	0	0.724
1	1	159	2	0.0227	0.0871	1	1	1.047
1	1	160	2	0.0227	0.0827	1	1	0.660
1	1	161	1	0.0379	0.0827	0	1	0.649
1	1	162	1	0.0329	0.0827	0	1	0.671
1	1	163	1	0.0280	0.0827	1	0	1.224
1	1	164	2	0.0280	0.0784	1	0	1.469
