sub	sess	t	rew	loc	cue	co1	co2	or	resp	rt	rew_tot	left_col	right_col
73	1	1	0	2	3	0.0594	0.0528	1	1	1.192	5	82	0
73	1	2	0	2	1	0.0594	0.0528	1	0	0.629	0	82	0
73	1	3	9	2	3	0.0594	0.0528	1	1	0.467	0	0	82
73	1	4	1	2	3	0.0594	0.0528	0	0	0.743	0	82	82
73	1	5	1	1	1	0.0594	0.0528	0	1	0.577	77	82	82
73	1	6	1	1	1	0.0594	0.0528	1	1	0.486	86	82	0
73	1	7	1	1	3	0.0594	0.0528	0	1	0.617	73	82	82
73	1	8	0	1	1	0.0594	0.0528	0	1	0.481	9	0	0
73	1	9	0	1	3	0.0594	0.0528	0	1	0.516	8	0	0
73	1	10	0	2	1	0.0594	0.0528	1	1	0.580	8	82	0
73	1	11	9	2	2	0.0594	0.0528	0	1	0.516	0	82	82
73	1	12	1	2	3	0.0594	0.0528	1	1	0.463	89	0	82
73	1	13	9	1	1	0.0594	0.0528	1	1	0.645	0	82	0
73	1	14	0	1	2	0.0594	0.0528	1	0	0.800	0	0	82
73	1	15	0	2	3	0.0594	0.0528	1	1	0.528	8	82	0
73	1	16	1	1	3	0.0594	0.0528	0	1	0.503	85	82	82
73	1	17	0	2	3	0.0594	0.0528	1	1	0.535	8	82	0
73	1	18	9	1	3	0.0594	0.0528	0	1	0.496	0	82	82
73	1	19	0	1	1	0.0594	0.0528	0	1	0.495	9	0	0
73	1	20	1	1	3	0.0594	0.0528	1	1	0.437	91	82	0
73	1	21	1	1	3	0.0594	0.0528	0	1	0.457	89	82	82
73	1	22	0	1	3	0.0594	0.0528	0	1	0.446	9	0	0
73	1	23	1	1	1	0.0594	0.0528	0	1	0.410	94	82	82
73	1	24	0	1	3	0.0594	0.0528	0	1	0.417	9	0	0
73	1	25	1	2	2	0.0594	0.0528	0	1	0.535	82	82	82
73	1	26	1	1	1	0.0594	0.0528	0	1	0.529	82	82	82
73	1	27	9	2	3	0.0594	0.0528	0	1	0.505	0	82	82
73	1	28	0	2	2	0.0594	0.0528	1	1	0.544	8	82	0
73	1	29	1	2	3	0.0594	0.0528	1	1	0.653	70	0	82
73	1	30	1	2	3	0.0594	0.0528	1	1	0.548	80	0	82
73	1	31	1	1	1	0.0594	0.0528	1	0	0.559	0	82	0
73	1	32	0	1	3	0.0594	0.0528	0	1	0.482	9	0	0
73	1	33	1	1	1	0.0594	0.0528	0	1	0.455	89	82	82
73	1	34	0	2	3	0.0594	0.0528	1	1	0.593	8	82	0
73	1	35	9	2	1	0.0594	0.0528	1	1	0.686	0	82	0
73	1	36	0	1	1	0.0594	0.0528	1	1	0.467	9	0	82
73	1	37	0	2	3	0.0594	0.0528	0	1	0.565	8	0	0
73	1	38	0	1	2	0.0594	0.0528	0	1	0.415	9	0	0
73	1	39	1	2	2	0.0594	0.0528	0	0	0.769	0	82	82
73	1	40	0	1	1	0.0594	0.0528	1	1	0.724	6	0	82
73	1	41	1	2	1	0.0594	0.0528	0	1	0.683	67	82	82
73	1	42	1	2	2	0.0594	0.0528	1	1	0.536	81	0	82
73	1	43	0	1	3	0.0594	0.0528	0	1	0.521	8	0	0
73	1	44	1	1	3	0.0594	0.0528	1	1	0.456	89	82	0
73	1	45	1	2	1	0.0594	0.0528	0	1	0.760	59	82	82
73	1	46	0	1	1	0.0594	0.0528	1	1	0.531	8	0	82
73	1	47	1	2	3	0.0594	0.0528	0	1	0.686	66	82	82
73	1	48	0	1	1	0.0594	0.0528	1	1	0.576	8	0	82
73	1	49	1	1	1	0.0594	0.0528	0	0	0.628	0	82	82
73	1	50	1	2	2	0.0594	0.0528	0	1	0.642	71	82	82
73	1	51	1	1	3	0.0594	0.0528	0	0	0.491	0	82	82
73	1	52	0	2	2	0.0594	0.0528	0	1	0.463	9	0	0
73	1	53	1	2	2	0.0594	0.0528	0	1	0.442	91	82	82
73	1	54	0	1	2	0.0594	0.0528	0	1	0.669	7	0	0
73	1	55	1	1	1	0.0594	0.0528	0	1	0.474	88	82	82
73	1	56	9	2	1	0.0594	0.0528	0	1	0.444	0	82	82
73	1	57	0	2	3	0.0594	0.0528	0	1	0.483	9	0	0
73	1	58	1	2	3	0.0594	0.0528	0	1	0.542	81	82	82
73	1	59	0	1	3	0.0594	0.0528	1	1	1.011	5	0	82
73	1	60	0	2	3	0.0594	0.0528	0	1	0.421	9	0	0
73	1	61	1	1	1	0.0594	0.0528	1	1	0.553	80	82	0
73	1	62	1	2	3	0.0594	0.0528	0	1	0.646	70	82	82
73	1	63	0	2	2	0.0594	0.0528	1	1	0.492	9	82	0
73	1	64	1	1	1	0.0594	0.0528	1	1	0.484	87	82	0
73	1	65	0	1	3	0.0594	0.0528	1	1	0.563	8	0	82
73	1	66	1	1	3	0.0594	0.0528	1	1	0.534	82	82	0
73	1	67	0	2	3	0.0594	0.0528	1	1	0.670	7	82	0
73	1	68	0	2	2	0.0594	0.0528	0	1	0.599	8	0	0
73	1	69	9	2	2	0.0594	0.0528	0	1	0.442	0	0	0
73	1	70	0	1	1	0.0594	0.0528	1	1	0.546	8	0	82
73	1	71	1	2	2	0.0594	0.0528	0	1	0.444	91	82	82
73	1	72	9	1	1	0.0594	0.0528	1	1	0.637	0	82	0
73	1	73	0	1	3	0.0594	0.0528	1	1	0.560	8	0	82
73	1	74	9	1	2	0.0594	0.0528	1	1	0.463	0	0	82
73	1	75	0	1	1	0.0594	0.0528	0	1	0.579	8	0	0
73	1	76	1	2	3	0.0594	0.0528	0	1	0.473	88	82	82
73	1	77	0	2	2	0.0594	0.0528	1	1	0.533	8	82	0
73	1	78	1	2	2	0.0594	0.0528	1	1	0.496	85	0	82
73	1	79	0	1	1	0.0594	0.0528	1	1	0.457	9	0	82
73	1	80	0	1	3	0.0594	0.0528	0	1	0.506	8	0	0
73	1	81	9	1	3	0.0594	0.0528	0	1	0.450	0	0	0
73	1	82	0	1	3	0.0594	0.0528	0	1	0.500	9	0	0
73	1	83	1	2	2	0.0594	0.0528	1	1	0.556	79	0	82
73	1	84	0	2	3	0.0594	0.0528	0	0	0.737	0	0	0
73	1	85	9	1	1	0.0594	0.0528	0	1	0.436	0	0	0
73	1	86	0	2	2	0.0594	0.0528	1	0	0.480	0	82	0
73	1	87	0	2	2	0.0594	0.0528	1	1	0.583	8	82	0
73	1	88	0	2	2	0.0594	0.0528	0	1	0.623	7	0	0
73	1	89	9	1	3	0.0594	0.0528	1	1	0.535	0	0	82
73	1	90	1	1	3	0.0594	0.0528	0	1	0.562	79	82	82
73	1	91	1	2	3	0.0594	0.0528	1	1	0.465	88	0	82
73	1	92	1	1	3	0.0594	0.0528	1	1	0.455	90	82	0
73	1	93	0	2	2	0.0594	0.0528	0	1	0.467	9	0	0
73	1	94	0	1	1	0.0594	0.0528	0	1	0.474	9	0	0
73	1	95	0	2	1	0.0594	0.0528	0	1	0.457	9	0	0
73	1	96	0	2	3	0.0594	0.0528	0	1	0.436	9	0	0
73	1	97	1	1	3	0.0594	0.0528	0	1	0.485	87	82	82
73	1	98	0	1	3	0.0594	0.0528	1	1	0.525	8	0	82
73	1	99	9	1	3	0.0594	0.0528	0	1	0.401	0	0	0
73	1	100	9	1	3	0.0594	0.0528	0	1	0.435	0	0	0
73	1	101	1	2	3	0.0594	0.0528	1	1	0.530	82	0	82
73	1	102	9	2	3	0.0594	0.0528	1	1	0.724	0	82	0
73	1	103	1	1	3	0.0594	0.0528	0	1	0.528	82	82	82
73	1	104	9	1	1	0.0594	0.0528	1	1	0.409	0	0	82
73	1	105	1	2	2	0.0594	0.0528	0	1	0.453	90	82	82
73	1	106	9	1	3	0.0594	0.0528	0	1	0.467	0	82	82
73	1	107	0	2	2	0.0594	0.0528	1	1	0.619	7	82	0
73	1	108	0	1	3	0.0594	0.0528	1	1	0.480	9	0	82
73	1	109	9	1	1	0.0594	0.0528	0	1	0.502	0	82	82
73	1	110	1	2	3	0.0594	0.0528	1	1	0.473	88	0	82
73	1	111	9	1	3	0.0594	0.0528	1	1	0.423	0	0	82
73	1	112	1	1	2	0.0594	0.0528	0	1	0.478	87	82	82
73	1	113	1	1	1	0.0594	0.0528	1	1	0.425	93	82	0
73	1	114	9	1	1	0.0594	0.0528	0	1	0.520	0	82	82
73	1	115	9	1	1	0.0594	0.0528	0	1	0.465	0	0	0
73	1	116	1	1	3	0.0594	0.0528	1	1	0.474	88	82	0
73	1	117	1	1	2	0.0594	0.0528	0	1	0.765	59	82	82
73	1	118	1	2	3	0.0594	0.0528	0	0	0.594	0	82	82
73	1	119	1	2	1	0.0594	0.0528	0	1	0.422	93	82	82
73	1	120	0	1	3	0.0594	0.0528	1	1	0.724	6	0	82
73	1	121	0	2	2	0.0594	0.0528	0	1	0.451	9	0	0
73	1	122	1	1	3	0.0594	0.0528	1	1	0.474	88	82	0
73	1	123	1	2	3	0.0594	0.0528	1	0	0.492	0	0	82
73	1	124	1	1	3	0.0594	0.0528	0	1	0.550	80	82	82
73	1	125	9	1	3	0.0594	0.0528	1	1	0.973	0	82	0
73	1	126	0	1	2	0.0594	0.0528	1	1	0.489	9	0	82
73	1	127	0	2	2	0.0594	0.0528	1	1	0.589	8	82	0
73	1	128	1	1	3	0.0594	0.0528	0	1	0.530	82	82	82
73	1	129	1	1	1	0.0594	0.0528	1	1	0.474	88	82	0
73	1	130	1	2	2	0.0594	0.0528	0	1	0.443	91	82	82
73	1	131	0	2	1	0.0594	0.0528	0	1	0.501	8	0	0
73	1	132	1	2	3	0.0594	0.0528	0	1	0.430	92	82	82
73	1	133	0	1	1	0.0594	0.0528	0	1	0.462	9	0	0
73	1	134	1	1	3	0.0594	0.0528	1	1	0.679	67	82	0
73	1	135	9	2	3	0.0594	0.0528	0	1	0.561	0	0	0
73	1	136	1	2	2	0.0594	0.0528	1	1	0.562	79	0	82
73	1	137	0	1	1	0.0594	0.0528	1	1	0.482	9	0	82
73	1	138	1	1	3	0.0594	0.0528	1	1	0.458	89	82	0
73	1	139	0	2	3	0.0594	0.0528	0	1	0.502	8	0	0
73	1	140	1	2	2	0.0594	0.0528	0	1	0.448	90	82	82
73	1	141	0	2	2	0.0594	0.0528	0	1	0.444	9	0	0
73	1	142	9	2	2	0.0594	0.0528	0	0	0.658	0	0	0
73	1	143	1	2	3	0.0594	0.0528	1	1	0.580	77	0	82
73	1	144	0	1	3	0.0594	0.0528	1	1	0.480	9	0	82
73	1	145	0	1	1	0.0594	0.0528	0	1	0.537	8	0	0
73	1	146	1	1	1	0.0594	0.0528	1	1	0.418	93	82	0
73	1	147	1	2	2	0.0594	0.0528	1	0	0.443	0	0	82
73	1	148	0	1	2	0.0594	0.0528	0	1	0.485	9	0	0
73	1	149	0	2	2	0.0594	0.0528	1	1	0.687	7	82	0
73	1	150	0	1	1	0.0594	0.0528	0	1	0.504	8	0	0
73	1	151	0	2	3	0.0594	0.0528	0	0	0.635	0	0	0
73	1	152	0	2	3	0.0594	0.0528	1	0	2.011	0	82	0
73	1	153	0	2	1	0.0594	0.0528	1	1	0.547	8	82	0
73	1	154	0	2	3	0.0594	0.0528	0	0	0.599	0	0	0
73	1	155	1	2	2	0.0594	0.0528	0	1	0.675	68	82	82
73	1	156	1	2	1	0.0594	0.0528	1	1	0.575	77	0	82
73	1	157	0	2	2	0.0594	0.0528	0	1	0.540	8	0	0
73	1	158	1	1	3	0.0594	0.0528	1	1	0.485	86	82	0
73	1	159	0	1	3	0.0594	0.0528	1	1	0.548	8	0	82
73	1	160	9	1	1	0.0594	0.0528	1	1	0.512	0	82	0
73	1	161	0	1	3	0.0594	0.0528	1	1	0.539	8	0	82
73	1	162	9	2	1	0.0594	0.0528	1	1	0.622	0	0	82
73	1	163	0	2	3	0.0594	0.0528	1	1	0.472	9	82	0
73	1	164	9	2	2	0.0594	0.0528	0	1	0.644	0	82	82
73	1	165	1	2	2	0.0594	0.0528	1	1	0.599	75	0	82
73	1	166	0	2	2	0.0594	0.0528	1	1	0.439	9	82	0
73	1	167	0	2	3	0.0594	0.0528	0	1	0.506	8	0	0
73	1	168	1	1	1	0.0594	0.0528	1	1	0.478	87	82	0
73	1	169	0	1	3	0.0594	0.0528	1	1	0.434	9	0	82
73	1	170	0	1	3	0.0594	0.0528	0	1	0.497	9	0	0
73	1	171	0	1	1	0.0594	0.0528	1	1	0.504	8	0	82
73	1	172	0	1	3	0.0594	0.0528	1	1	0.383	10	0	82
73	1	173	0	2	3	0.0594	0.0528	1	1	0.564	8	82	0
73	1	174	1	2	2	0.0594	0.0528	0	1	0.604	75	82	82
73	1	175	9	2	2	0.0594	0.0528	0	1	0.479	0	0	0
73	1	176	1	1	3	0.0594	0.0528	0	0	0.408	0	82	82
73	1	177	1	2	2	0.0594	0.0528	1	1	0.502	85	0	82
73	1	178	0	2	2	0.0594	0.0528	0	1	0.428	9	0	0
73	1	179	0	1	1	0.0594	0.0528	0	1	0.486	9	0	0
73	1	180	1	2	1	0.0594	0.0528	1	0	0.464	0	0	82
73	1	181	1	2	1	0.0594	0.0528	0	0	0.577	0	82	82
73	1	182	0	1	2	0.0594	0.0528	0	1	0.653	7	0	0
73	1	183	1	2	3	0.0594	0.0528	1	1	0.603	75	0	82
73	1	184	0	1	1	0.0594	0.0528	0	1	0.485	9	0	0
73	1	185	9	2	2	0.0594	0.0528	0	1	0.648	0	0	0
73	1	186	1	1	1	0.0594	0.0528	0	1	0.433	92	82	82
73	1	187	0	2	2	0.0594	0.0528	0	1	0.397	10	0	0
73	1	188	1	2	2	0.0594	0.0528	1	1	0.482	87	0	82
73	1	189	1	1	2	0.0594	0.0528	1	1	0.484	87	82	0
73	1	190	9	2	2	0.0594	0.0528	1	1	0.518	0	0	82
73	1	191	0	2	2	0.0594	0.0528	0	0	0.588	0	0	0
73	1	192	0	1	3	0.0594	0.0528	0	1	0.504	8	0	0
73	1	193	0	2	3	0.0594	0.0528	1	0	0.639	0	82	0
73	1	194	1	2	2	0.0594	0.0528	1	1	0.565	79	0	82
73	1	195	0	2	3	0.0594	0.0528	1	1	0.482	9	82	0
73	1	196	1	1	1	0.0594	0.0528	1	1	0.510	84	82	0
73	1	197	1	2	2	0.0594	0.0528	1	1	0.461	89	0	82
73	1	198	9	1	3	0.0594	0.0528	1	1	0.414	0	82	0
73	1	199	0	2	3	0.0594	0.0528	1	1	0.507	8	82	0
73	1	200	0	1	3	0.0594	0.0528	0	1	0.548	8	0	0
73	1	201	9	2	2	0.0594	0.0528	0	1	0.452	0	82	82
73	1	202	1	1	1	0.0594	0.0528	1	1	0.462	89	82	0
73	1	203	1	1	3	0.0594	0.0528	1	1	0.470	88	82	0
73	1	204	0	1	1	0.0594	0.0528	1	1	0.365	10	0	82
73	1	205	9	1	2	0.0594	0.0528	0	1	0.588	0	82	82
73	1	206	1	1	2	0.0594	0.0528	1	1	0.395	95	82	0
73	1	207	9	2	2	0.0594	0.0528	1	1	0.551	0	0	82
73	1	208	0	1	2	0.0594	0.0528	1	1	0.498	9	0	82
73	1	209	1	1	3	0.0594	0.0528	1	1	0.562	79	82	0
73	1	210	1	1	1	0.0594	0.0528	0	1	0.437	91	82	82
73	1	211	0	2	2	0.0594	0.0528	0	1	0.606	7	0	0
73	1	212	0	2	2	0.0594	0.0528	0	1	0.424	9	0	0
73	1	213	1	2	3	0.0594	0.0528	1	1	0.487	86	0	82
73	1	214	1	1	3	0.0594	0.0528	1	1	0.428	92	82	0
73	1	215	9	2	3	0.0594	0.0528	1	1	0.488	0	82	0
73	1	216	1	2	2	0.0594	0.0528	1	1	0.440	91	0	82
73	1	217	0	2	2	0.0594	0.0528	1	1	0.478	9	82	0
73	1	218	1	2	3	0.0594	0.0528	1	1	0.494	86	0	82
73	1	219	0	2	3	0.0594	0.0528	0	1	0.499	9	0	0
73	1	220	1	2	2	0.0594	0.0528	1	1	0.421	93	0	82
73	1	221	1	2	1	0.0594	0.0528	1	1	0.436	91	0	82
73	1	222	1	2	3	0.0594	0.0528	0	1	0.788	56	82	82
73	1	223	0	1	1	0.0594	0.0528	1	1	0.355	10	0	82
73	1	224	0	2	3	0.0594	0.0528	0	1	0.442	9	0	0
73	1	225	1	1	1	0.0594	0.0528	0	1	0.464	89	82	82
73	1	226	1	2	2	0.0594	0.0528	0	1	0.425	92	82	82
73	1	227	9	2	3	0.0594	0.0528	1	0	0.438	0	82	0
73	1	228	0	1	3	0.0594	0.0528	1	1	0.506	8	0	82
73	1	229	9	2	2	0.0594	0.0528	1	0	0.469	0	0	82
73	1	230	9	1	1	0.0594	0.0528	1	1	0.408	0	82	0
73	1	231	9	2	2	0.0594	0.0528	1	1	0.473	0	82	0
73	1	232	1	2	3	0.0594	0.0528	0	1	0.529	82	82	82
73	1	233	9	1	1	0.0594	0.0528	0	1	0.495	0	82	82
73	1	234	1	1	3	0.0594	0.0528	1	1	0.430	92	82	0
73	1	235	1	1	1	0.0594	0.0528	0	0	0.443	0	82	82
73	1	236	0	2	2	0.0594	0.0528	1	1	0.537	8	82	0
73	1	237	0	1	1	0.0594	0.0528	1	1	0.450	9	0	82
73	1	238	9	2	2	0.0594	0.0528	1	0	0.470	0	0	82
73	1	239	9	1	1	0.0594	0.0528	0	1	0.505	0	0	0
73	1	240	1	1	1	0.0594	0.0528	1	1	0.615	74	82	0
73	1	241	1	1	3	0.0594	0.0528	1	1	0.439	91	82	0
73	1	242	0	1	1	0.0594	0.0528	1	1	0.655	7	0	82
73	1	243	1	1	3	0.0594	0.0528	0	0	0.489	0	82	82
73	1	244	1	2	2	0.0594	0.0528	1	1	0.494	86	0	82
73	1	245	1	2	2	0.0594	0.0528	0	1	0.488	86	82	82
73	1	246	0	2	3	0.0594	0.0528	0	0	0.526	0	0	0
73	1	247	0	1	3	0.0594	0.0528	1	1	0.529	8	0	82
73	1	248	0	1	3	0.0594	0.0528	1	1	0.903	5	0	82
73	1	249	1	1	2	0.0594	0.0528	1	1	0.433	92	82	0
73	1	250	9	1	2	0.0594	0.0528	1	1	0.432	0	82	0
73	1	251	1	2	1	0.0594	0.0528	1	0	0.517	0	0	82
73	1	252	1	2	3	0.0594	0.0528	1	1	0.486	86	0	82
73	1	253	1	1	3	0.0594	0.0528	0	1	0.488	86	82	82
73	1	254	1	1	2	0.0594	0.0528	0	1	0.486	86	82	82
73	1	255	9	2	3	0.0594	0.0528	0	1	0.502	0	82	82
73	1	256	0	2	1	0.0594	0.0528	0	1	0.459	9	0	0
73	1	257	1	1	1	0.0594	0.0528	0	1	0.420	93	82	82
73	1	258	9	2	3	0.0594	0.0528	1	1	0.464	0	0	82
73	1	259	0	1	3	0.0594	0.0528	0	1	0.522	8	0	0
73	1	260	1	2	3	0.0594	0.0528	0	1	0.486	86	82	82
73	1	261	1	2	2	0.0594	0.0528	0	1	0.446	90	82	82
73	1	262	1	2	2	0.0594	0.0528	0	1	0.425	93	82	82
73	1	263	0	2	3	0.0594	0.0528	0	1	0.447	9	0	0
73	1	264	1	2	3	0.0594	0.0528	1	1	0.603	75	0	82
73	1	265	1	2	3	0.0594	0.0528	0	1	0.444	91	82	82
73	1	266	0	2	2	0.0594	0.0528	0	1	0.438	9	0	0
73	1	267	9	1	3	0.0594	0.0528	1	1	0.527	0	0	82
73	1	268	0	1	1	0.0594	0.0528	1	1	0.455	9	0	82
73	1	269	1	1	1	0.0594	0.0528	1	1	0.432	92	82	0
73	1	270	0	1	3	0.0594	0.0528	0	1	0.474	9	0	0
73	1	271	1	1	1	0.0594	0.0528	0	1	0.454	90	82	82
73	1	272	0	1	1	0.0594	0.0528	1	0	0.462	0	0	82
73	1	273	9	2	1	0.0594	0.0528	0	1	0.498	0	0	0
73	1	274	1	2	3	0.0594	0.0528	0	1	0.433	92	82	82
73	1	275	0	2	3	0.0594	0.0528	0	1	0.460	9	0	0
73	1	276	9	1	1	0.0594	0.0528	0	1	0.503	0	82	82
73	1	277	1	1	3	0.0594	0.0528	1	1	0.440	91	82	0
73	1	278	1	1	3	0.0594	0.0528	0	1	0.466	88	82	82
73	1	279	9	1	3	0.0594	0.0528	1	1	0.411	0	82	0
73	1	280	0	1	3	0.0594	0.0528	0	1	0.392	10	0	0
73	1	281	1	2	3	0.0594	0.0528	1	0	0.649	0	0	82
73	1	282	0	1	3	0.0594	0.0528	1	1	0.436	9	0	82
73	1	283	9	2	3	0.0594	0.0528	1	1	0.491	0	0	82
73	1	284	0	2	3	0.0594	0.0528	1	1	0.563	8	82	0
73	1	285	0	2	3	0.0594	0.0528	1	1	0.474	9	82	0
73	1	286	9	2	3	0.0594	0.0528	0	1	0.527	0	82	82
73	1	287	0	1	1	0.0594	0.0528	0	1	0.461	9	0	0
73	1	288	0	1	1	0.0594	0.0528	1	1	0.543	8	0	82
73	1	289	0	1	1	0.0594	0.0528	0	1	0.497	9	0	0
73	1	290	0	2	2	0.0594	0.0528	1	1	0.509	8	82	0
73	1	291	1	2	2	0.0594	0.0528	1	1	0.449	90	0	82
73	1	292	0	2	3	0.0594	0.0528	0	1	0.419	9	0	0
73	1	293	0	1	3	0.0594	0.0528	0	1	0.480	9	0	0
73	1	294	1	1	3	0.0594	0.0528	1	1	0.406	94	82	0
73	1	295	1	2	2	0.0594	0.0528	1	1	0.460	89	0	82
73	1	296	9	2	3	0.0594	0.0528	0	1	0.424	0	0	0
73	1	297	0	2	2	0.0594	0.0528	1	1	0.458	9	82	0
73	1	298	1	1	1	0.0594	0.0528	1	1	0.550	80	82	0
73	1	299	1	2	3	0.0594	0.0528	0	1	0.609	74	82	82
73	1	300	1	1	1	0.0594	0.0528	0	0	0.429	0	82	82
73	1	301	9	2	3	0.0594	0.0528	0	1	0.492	0	0	0
73	1	302	9	2	2	0.0594	0.0528	1	1	0.451	0	82	0
73	1	303	0	1	1	0.0594	0.0528	0	1	0.475	9	0	0
73	1	304	0	1	3	0.0594	0.0528	0	1	0.485	9	0	0
73	1	305	1	2	2	0.0594	0.0528	0	1	0.435	92	82	82
73	1	306	9	1	3	0.0594	0.0528	0	1	0.380	0	0	0
73	1	307	1	1	3	0.0594	0.0528	0	1	0.460	89	82	82
73	1	308	1	1	1	0.0594	0.0528	0	1	0.379	97	82	82
73	1	309	9	1	1	0.0594	0.0528	1	1	0.442	0	0	82
73	1	310	1	1	1	0.0594	0.0528	0	0	0.650	0	82	82
73	1	311	1	2	2	0.0594	0.0528	1	1	0.535	82	0	82
73	1	312	9	1	1	0.0594	0.0528	1	1	0.390	0	0	82
73	1	313	1	1	1	0.0594	0.0528	1	1	0.400	95	82	0
73	1	314	1	2	3	0.0594	0.0528	1	0	0.456	0	0	82
73	1	315	1	1	1	0.0594	0.0528	1	1	0.485	86	82	0
73	1	316	0	2	2	0.0594	0.0528	1	1	0.586	8	82	0
73	1	317	0	1	3	0.0594	0.0528	0	1	0.497	9	0	0
73	1	318	0	2	1	0.0594	0.0528	0	1	0.504	8	0	0
73	1	319	1	1	2	0.0594	0.0528	0	1	0.440	91	82	82
73	1	320	0	2	3	0.0594	0.0528	1	1	0.846	5	82	0
73	1	321	0	1	3	0.0594	0.0528	1	1	0.432	9	0	82
73	1	322	9	1	3	0.0594	0.0528	1	1	0.403	0	0	82
73	1	323	1	1	1	0.0594	0.0528	1	1	0.344	100	82	0
73	1	324	1	1	3	0.0594	0.0528	0	0	0.447	0	82	82
73	1	325	9	1	3	0.0594	0.0528	0	1	0.467	0	82	82
73	1	326	0	2	2	0.0594	0.0528	1	0	0.387	0	82	0
73	1	327	1	2	2	0.0594	0.0528	0	1	0.447	90	82	82
73	1	328	1	2	3	0.0594	0.0528	0	1	0.467	88	82	82
73	1	329	1	1	2	0.0594	0.0528	1	1	0.501	85	82	0
73	1	330	9	1	1	0.0594	0.0528	1	1	0.438	0	0	82
73	1	331	0	2	3	0.0594	0.0528	0	1	0.449	9	0	0
73	1	332	9	1	3	0.0594	0.0528	0	0	0.439	0	82	82
73	1	333	0	1	2	0.0594	0.0528	1	1	0.419	9	0	82
73	1	334	0	1	1	0.0594	0.0528	0	1	0.549	8	0	0
73	1	335	9	2	3	0.0594	0.0528	0	1	0.454	0	0	0
73	1	336	9	2	2	0.0594	0.0528	1	1	0.499	0	82	0
73	1	337	0	1	1	0.0594	0.0528	0	1	0.623	7	0	0
73	1	338	0	2	2	0.0594	0.0528	0	1	0.436	9	0	0
73	1	339	9	2	3	0.0594	0.0528	0	1	0.420	0	82	82
73	1	340	0	2	3	0.0594	0.0528	1	1	0.461	9	82	0
73	1	341	0	2	2	0.0594	0.0528	0	1	0.438	9	0	0
73	1	342	1	1	3	0.0594	0.0528	0	1	0.587	76	82	82
73	1	343	0	1	1	0.0594	0.0528	0	1	0.381	10	0	0
73	1	344	1	2	3	0.0594	0.0528	1	0	0.472	0	0	82
73	1	345	0	2	2	0.0594	0.0528	0	1	0.466	9	0	0
73	1	346	0	1	1	0.0594	0.0528	1	1	0.481	9	0	82
73	1	347	1	1	1	0.0594	0.0528	0	1	0.535	82	82	82
73	1	348	9	2	2	0.0594	0.0528	0	1	0.664	0	82	82
73	1	349	9	1	3	0.0594	0.0528	1	1	0.413	0	82	0
73	1	350	1	2	3	0.0594	0.0528	0	1	0.589	76	82	82
73	1	351	9	2	3	0.0594	0.0528	1	0	0.527	0	0	82
73	1	352	9	2	3	0.0594	0.0528	1	1	0.435	0	82	0
73	1	353	9	1	2	0.0594	0.0528	0	1	0.483	0	0	0
73	1	354	9	1	1	0.0594	0.0528	0	1	0.498	0	0	0
73	1	355	0	2	3	0.0594	0.0528	1	1	0.626	7	82	0
73	1	356	0	1	1	0.0594	0.0528	0	1	0.423	9	0	0
73	1	357	0	2	2	0.0594	0.0528	1	1	0.501	8	82	0
73	1	358	0	2	1	0.0594	0.0528	1	0	0.376	0	82	0
73	1	359	1	2	3	0.0594	0.0528	0	1	0.384	97	82	82
73	1	360	9	2	2	0.0594	0.0528	1	1	0.436	0	82	0
73	1	361	9	1	2	0.0594	0.0528	1	1	0.429	0	0	82
73	1	362	0	1	1	0.0594	0.0528	0	1	0.521	8	0	0
73	1	363	1	1	3	0.0594	0.0528	0	1	0.409	94	82	82
73	1	364	1	1	1	0.0594	0.0528	1	1	0.475	87	82	0
73	1	365	9	1	3	0.0594	0.0528	1	1	0.400	0	82	0
73	1	366	1	1	1	0.0594	0.0528	0	1	0.456	89	82	82
73	1	367	0	1	3	0.0594	0.0528	0	1	0.465	9	0	0
73	1	368	0	2	3	0.0594	0.0528	1	1	0.616	7	82	0
73	1	369	1	1	3	0.0594	0.0528	1	0	0.542	0	82	0
73	1	370	1	2	2	0.0594	0.0528	0	1	0.400	95	82	82
73	1	371	9	2	3	0.0594	0.0528	1	1	0.505	0	0	82
73	1	372	0	2	2	0.0594	0.0528	0	1	0.433	9	0	0
73	1	373	1	2	3	0.0594	0.0528	0	1	0.408	94	82	82
73	1	374	1	1	3	0.0594	0.0528	0	1	0.378	97	82	82
73	1	375	0	2	2	0.0594	0.0528	0	1	0.412	9	0	0
73	1	376	1	1	1	0.0594	0.0528	1	1	0.504	85	82	0
73	1	377	9	1	3	0.0594	0.0528	0	1	0.449	0	0	0
73	1	378	9	2	3	0.0594	0.0528	0	1	0.520	0	0	0
73	1	379	1	1	3	0.0594	0.0528	0	1	0.406	94	82	82
73	1	380	1	2	2	0.0594	0.0528	1	1	0.448	90	0	82
73	1	381	1	1	3	0.0594	0.0528	0	1	0.493	86	82	82
73	1	382	1	1	3	0.0594	0.0528	1	1	0.389	96	82	0
73	1	383	1	1	3	0.0594	0.0528	1	1	0.443	91	82	0
73	1	384	9	1	3	0.0594	0.0528	1	1	0.373	0	82	0
73	1	385	0	1	3	0.0594	0.0528	1	1	0.383	10	0	82
73	1	386	1	2	3	0.0594	0.0528	1	0	0.497	0	0	82
73	1	387	0	1	1	0.0594	0.0528	1	1	0.377	10	0	82
73	1	388	9	1	3	0.0594	0.0528	0	1	0.501	0	82	82
73	1	389	0	2	2	0.0594	0.0528	0	1	0.424	9	0	0
73	1	390	1	1	3	0.0594	0.0528	0	1	0.404	95	82	82
73	1	391	0	2	2	0.0594	0.0528	0	1	0.362	10	0	0
73	1	392	9	1	1	0.0594	0.0528	0	1	0.375	0	0	0
73	1	393	0	2	2	0.0594	0.0528	0	1	0.341	10	0	0
73	1	394	0	2	2	0.0594	0.0528	0	1	0.356	10	0	0
73	1	395	0	1	1	0.0594	0.0528	0	1	0.329	10	0	0
73	1	396	0	2	3	0.0594	0.0528	1	0	0.331	0	82	0
73	1	397	1	2	3	0.0594	0.0528	0	1	0.367	98	82	82
73	1	398	1	1	3	0.0594	0.0528	0	1	0.431	92	82	82
73	1	399	0	2	2	0.0594	0.0528	1	1	0.543	8	82	0
73	1	400	1	1	3	0.0594	0.0528	0	0	0.489	0	82	82
73	1	401	0	1	3	0.0594	0.0528	0	0	0.476	0	0	0
73	1	402	0	1	1	0.0594	0.0528	0	1	0.392	10	0	0
73	1	403	1	2	2	0.0594	0.0528	0	1	0.421	93	82	82
73	1	404	0	1	1	0.0594	0.0528	0	1	0.351	10	0	0
73	1	405	1	1	2	0.0594	0.0528	1	0	0.365	0	82	0
73	1	406	0	1	2	0.0594	0.0528	1	1	0.461	9	0	82
73	1	407	9	1	2	0.0594	0.0528	0	1	0.494	0	82	82
73	1	408	0	1	1	0.0594	0.0528	1	1	0.675	7	0	82
73	1	409	1	2	2	0.0594	0.0528	0	1	0.784	57	82	82
73	1	410	0	1	1	0.0594	0.0528	0	1	0.367	10	0	0
73	1	411	0	1	1	0.0594	0.0528	1	0	0.458	0	0	82
73	1	412	1	1	1	0.0594	0.0528	1	1	0.454	90	82	0
73	1	413	0	2	2	0.0594	0.0528	0	1	0.620	7	0	0
73	1	414	0	2	2	0.0594	0.0528	0	1	0.529	8	0	0
73	1	415	0	2	3	0.0594	0.0528	1	1	0.436	9	82	0
73	1	416	9	2	3	0.0594	0.0528	0	1	0.418	0	82	82
73	1	417	0	1	1	0.0594	0.0528	1	1	0.513	8	0	82
73	1	418	1	2	2	0.0594	0.0528	1	0	0.437	0	0	82
73	1	419	1	2	2	0.0594	0.0528	0	1	0.461	89	82	82
73	1	420	1	2	3	0.0594	0.0528	0	1	0.389	96	82	82
73	1	421	9	1	1	0.0594	0.0528	0	1	0.444	0	0	0
73	1	422	0	1	3	0.0594	0.0528	1	1	0.498	9	0	82
73	1	423	9	2	3	0.0594	0.0528	1	0	0.436	0	0	82
73	1	424	1	2	1	0.0594	0.0528	0	1	0.483	87	82	82
73	1	425	0	1	1	0.0594	0.0528	0	1	0.426	9	0	0
73	1	426	0	1	2	0.0594	0.0528	0	1	0.433	9	0	0
73	1	427	1	1	3	0.0594	0.0528	1	1	0.390	96	82	0
73	1	428	0	1	1	0.0594	0.0528	1	1	0.425	9	0	82
73	1	429	0	2	3	0.0594	0.0528	0	1	0.437	9	0	0
73	1	430	1	1	1	0.0594	0.0528	0	1	0.407	94	82	82
73	1	431	1	2	1	0.0594	0.0528	1	1	0.579	77	0	82
73	1	432	9	2	2	0.0594	0.0528	1	1	0.498	0	82	0
73	1	433	1	2	1	0.0594	0.0528	0	1	0.415	94	82	82
73	1	434	1	1	2	0.0594	0.0528	0	0	0.435	0	82	82
73	1	435	1	2	2	0.0594	0.0528	0	1	0.401	95	82	82
73	1	436	1	1	1	0.0594	0.0528	1	1	0.576	77	82	0
73	1	437	0	1	1	0.0594	0.0528	1	1	0.534	8	0	82
73	1	438	9	2	1	0.0594	0.0528	0	1	0.439	0	82	82
73	1	439	0	1	3	0.0594	0.0528	1	1	0.483	9	0	82
73	1	440	0	1	3	0.0594	0.0528	0	1	0.455	9	0	0
73	1	441	1	2	3	0.0594	0.0528	1	1	0.621	73	0	82
73	1	442	9	2	2	0.0594	0.0528	0	1	0.419	0	0	0
73	1	443	1	1	1	0.0594	0.0528	0	1	0.629	72	82	82
73	1	444	1	2	3	0.0594	0.0528	1	1	0.470	88	0	82
73	1	445	1	1	1	0.0594	0.0528	0	1	0.476	87	82	82
73	1	446	1	2	2	0.0594	0.0528	0	1	0.439	91	82	82
73	1	447	0	1	3	0.0594	0.0528	1	1	0.482	9	0	82
73	1	448	9	1	3	0.0594	0.0528	1	1	0.432	0	0	82
73	1	449	1	1	1	0.0594	0.0528	0	1	0.526	82	82	82
73	1	450	0	1	2	0.0594	0.0528	1	1	0.551	8	0	82
73	1	451	9	1	1	0.0594	0.0528	0	1	0.372	0	82	82
73	1	452	9	2	3	0.0594	0.0528	1	0	0.580	0	82	0
73	1	453	9	1	3	0.0594	0.0528	0	1	0.423	0	0	0
73	1	454	9	1	3	0.0594	0.0528	1	1	0.512	0	0	82
73	1	455	9	2	3	0.0594	0.0528	0	1	0.507	0	82	82
73	1	456	0	2	2	0.0594	0.0528	1	1	0.611	7	82	0
73	1	457	0	2	2	0.0594	0.0528	1	1	0.477	9	82	0
73	1	458	0	2	2	0.0594	0.0528	1	1	0.498	9	82	0
73	1	459	1	1	1	0.0594	0.0528	0	0	0.489	0	82	82
73	1	460	1	2	2	0.0594	0.0528	0	1	0.420	93	82	82
73	1	461	1	2	3	0.0594	0.0528	1	1	0.469	88	0	82
73	1	462	0	1	3	0.0594	0.0528	0	1	0.453	9	0	0
73	1	463	0	1	3	0.0594	0.0528	1	1	0.439	9	0	82
73	1	464	0	2	1	0.0594	0.0528	1	1	0.429	9	82	0
73	1	465	1	2	2	0.0594	0.0528	0	1	0.363	99	82	82
73	1	466	1	2	3	0.0594	0.0528	0	1	0.496	85	82	82
73	1	467	9	1	1	0.0594	0.0528	0	1	0.507	0	0	0
73	1	468	0	2	2	0.0594	0.0528	1	1	0.539	8	82	0
73	1	469	1	2	2	0.0594	0.0528	0	1	0.433	92	82	82
73	1	470	0	1	2	0.0594	0.0528	0	1	0.412	9	0	0
73	1	471	0	2	3	0.0594	0.0528	1	1	0.457	9	82	0
73	1	472	1	1	1	0.0594	0.0528	1	1	0.588	76	82	0
73	1	473	9	2	1	0.0594	0.0528	0	1	0.418	0	0	0
73	1	474	0	1	1	0.0594	0.0528	0	1	0.369	10	0	0
73	1	475	1	1	3	0.0594	0.0528	1	1	0.501	85	82	0
73	1	476	1	1	3	0.0594	0.0528	0	0	0.448	0	82	82
73	1	477	0	1	1	0.0594	0.0528	0	1	0.442	9	0	0
73	1	478	1	2	2	0.0594	0.0528	0	1	0.415	93	82	82
73	1	479	1	2	2	0.0594	0.0528	1	1	0.481	87	0	82
73	1	480	1	1	3	0.0594	0.0528	1	1	0.510	84	82	0
73	1	481	1	2	3	0.0594	0.0528	1	1	0.500	85	0	82
73	1	482	0	2	3	0.0594	0.0528	0	1	0.466	9	0	0
73	1	483	1	2	2	0.0594	0.0528	1	1	0.423	93	0	82
73	1	484	0	2	3	0.0594	0.0528	0	1	0.409	9	0	0
73	1	485	1	1	1	0.0594	0.0528	0	1	0.423	93	82	82
73	1	486	0	1	3	0.0594	0.0528	0	1	0.466	9	0	0
73	1	487	9	2	3	0.0594	0.0528	0	1	0.404	0	0	0
73	1	488	0	2	2	0.0594	0.0528	1	1	0.537	8	82	0
73	1	489	0	1	3	0.0594	0.0528	1	1	0.438	9	0	82
73	1	490	0	2	2	0.0594	0.0528	0	1	0.827	5	0	0
73	1	491	0	2	3	0.0594	0.0528	0	1	0.423	9	0	0
73	1	492	1	2	2	0.0594	0.0528	0	1	0.412	94	82	82
73	1	493	0	1	1	0.0594	0.0528	0	1	0.454	9	0	0
73	1	494	1	2	2	0.0594	0.0528	0	1	0.405	95	82	82
73	1	495	0	1	3	0.0594	0.0528	1	1	0.447	9	0	82
73	1	496	0	1	3	0.0594	0.0528	1	1	0.430	9	0	82
73	1	497	9	2	1	0.0594	0.0528	1	0	0.447	0	82	0
73	1	498	1	2	2	0.0594	0.0528	1	1	0.541	81	0	82
73	1	499	9	1	2	0.0594	0.0528	0	1	0.501	0	0	0
73	1	500	0	2	3	0.0594	0.0528	1	1	0.677	7	82	0
73	1	501	1	2	2	0.0594	0.0528	1	0	0.400	0	0	82
73	1	502	1	1	1	0.0594	0.0528	0	1	0.508	84	82	82
73	1	503	0	1	1	0.0594	0.0528	1	1	0.575	8	0	82
73	1	504	0	1	3	0.0594	0.0528	1	1	0.433	9	0	82
73	1	505	9	2	1	0.0594	0.0528	1	0	0.471	0	0	82
73	1	506	0	1	3	0.0594	0.0528	1	1	0.493	9	0	82
73	1	507	1	1	1	0.0594	0.0528	1	1	0.410	94	82	0
73	1	508	0	2	2	0.0594	0.0528	1	1	0.419	9	82	0
73	1	509	1	1	1	0.0594	0.0528	0	1	0.493	86	82	82
73	1	510	1	2	3	0.0594	0.0528	1	1	0.478	87	0	82
73	1	511	1	1	3	0.0594	0.0528	1	1	0.429	92	82	0
73	1	512	1	2	3	0.0594	0.0528	0	1	0.418	93	82	82
73	1	513	0	2	3	0.0594	0.0528	1	1	0.567	8	82	0
73	1	514	0	2	2	0.0594	0.0528	0	1	0.502	8	0	0
73	1	515	1	1	1	0.0594	0.0528	0	1	0.566	78	82	82
73	1	516	0	1	1	0.0594	0.0528	1	1	0.480	9	0	82
73	1	517	0	1	1	0.0594	0.0528	0	1	0.470	9	0	0
73	1	518	0	2	3	0.0594	0.0528	1	1	0.524	8	82	0
73	1	519	9	1	3	0.0594	0.0528	1	1	0.458	0	82	0
73	1	520	0	1	3	0.0594	0.0528	0	1	0.453	9	0	0
73	1	521	1	1	3	0.0594	0.0528	0	1	0.425	92	82	82
73	1	522	1	2	3	0.0594	0.0528	0	0	0.546	0	82	82
73	1	523	1	1	2	0.0594	0.0528	1	1	0.385	96	82	0
73	1	524	0	2	2	0.0594	0.0528	0	1	0.450	9	0	0
73	1	525	9	1	3	0.0594	0.0528	0	0	0.411	0	82	82
73	1	526	1	1	3	0.0594	0.0528	0	1	0.405	95	82	82
73	1	527	1	1	3	0.0594	0.0528	1	1	0.493	86	82	0
73	1	528	1	2	2	0.0594	0.0528	1	1	0.534	82	0	82
73	1	529	1	1	3	0.0594	0.0528	1	1	0.431	92	82	0
73	1	530	0	1	1	0.0594	0.0528	0	1	0.501	8	0	0
73	1	531	1	2	2	0.0594	0.0528	0	1	0.463	89	82	82
73	1	532	1	1	1	0.0594	0.0528	1	0	0.610	0	82	0
73	1	533	9	1	1	0.0594	0.0528	1	1	0.724	0	0	82
73	1	534	9	2	2	0.0594	0.0528	0	1	0.455	0	0	0
73	1	535	0	1	3	0.0594	0.0528	1	1	0.812	5	0	82
73	1	536	1	1	3	0.0594	0.0528	0	1	0.568	78	82	82
73	1	537	9	2	2	0.0594	0.0528	0	1	0.566	0	82	82
73	1	538	0	1	1	0.0594	0.0528	1	1	0.509	8	0	82
73	1	539	9	2	2	0.0594	0.0528	0	1	0.378	0	82	82
73	1	540	9	1	1	0.0594	0.0528	1	1	0.455	0	0	82
73	1	541	0	1	1	0.0594	0.0528	0	1	0.451	9	0	0
73	1	542	0	2	2	0.0594	0.0528	1	1	0.499	9	82	0
73	1	543	1	1	1	0.0594	0.0528	1	1	0.402	95	82	0
73	1	544	0	2	3	0.0594	0.0528	1	1	0.500	8	82	0
73	1	545	0	1	1	0.0594	0.0528	1	1	0.367	10	0	82
73	1	546	1	2	2	0.0594	0.0528	1	1	0.390	96	0	82
73	1	547	0	2	1	0.0594	0.0528	0	0	0.648	0	0	0
73	1	548	9	1	3	0.0594	0.0528	1	1	0.477	0	82	0
73	1	549	0	2	2	0.0594	0.0528	0	0	0.753	0	0	0
73	1	550	0	1	3	0.0594	0.0528	1	1	0.660	7	0	82
73	1	551	9	2	3	0.0594	0.0528	1	1	0.537	0	82	0
73	1	552	1	2	2	0.0594	0.0528	1	0	0.491	0	0	82
73	1	553	1	2	1	0.0594	0.0528	1	1	0.437	91	0	82
73	1	554	1	1	1	0.0594	0.0528	0	1	0.660	69	82	82
73	1	555	1	1	3	0.0594	0.0528	1	1	0.419	93	82	0
73	1	556	9	1	3	0.0594	0.0528	0	1	0.456	0	0	0
73	1	557	0	2	1	0.0594	0.0528	0	1	0.458	9	0	0
73	1	558	1	1	3	0.0594	0.0528	0	1	0.449	90	82	82
73	1	559	1	1	1	0.0594	0.0528	1	1	0.554	80	82	0
73	1	560	1	1	3	0.0594	0.0528	1	1	0.460	89	82	0
73	1	561	0	2	2	0.0594	0.0528	1	1	0.479	9	82	0
73	1	562	1	2	3	0.0594	0.0528	1	1	0.416	93	0	82
73	1	563	0	2	2	0.0594	0.0528	1	1	0.420	9	82	0
73	1	564	0	1	3	0.0594	0.0528	0	1	0.452	9	0	0
73	1	565	1	2	3	0.0594	0.0528	0	1	0.528	82	82	82
73	1	566	9	1	1	0.0594	0.0528	0	1	0.445	0	82	82
73	1	567	1	2	3	0.0594	0.0528	0	1	0.489	86	82	82
73	1	568	0	2	3	0.0594	0.0528	1	1	0.500	8	82	0
73	1	569	9	2	2	0.0594	0.0528	0	1	0.418	0	82	82
73	1	570	0	1	1	0.0594	0.0528	1	1	0.477	9	0	82
73	1	571	9	2	3	0.0594	0.0528	0	1	0.440	0	0	0
73	1	572	0	2	3	0.0594	0.0528	0	1	0.440	9	0	0
73	1	573	0	1	1	0.0594	0.0528	0	1	0.339	10	0	0
73	1	574	1	2	3	0.0594	0.0528	1	0	0.388	0	0	82
73	1	575	0	1	2	0.0594	0.0528	1	1	0.431	9	0	82
73	1	576	0	2	3	0.0594	0.0528	0	1	0.471	9	0	0
73	1	577	1	1	2	0.0594	0.0528	0	0	0.620	0	82	82
73	1	578	1	1	2	0.0594	0.0528	0	1	0.544	81	82	82
73	1	579	1	2	2	0.0594	0.0528	1	0	0.462	0	0	82
73	1	580	0	2	1	0.0594	0.0528	0	1	0.464	9	0	0
73	1	581	9	1	3	0.0594	0.0528	1	0	0.541	0	0	82
73	1	582	0	2	3	0.0594	0.0528	0	1	0.462	9	0	0
73	1	583	0	1	2	0.0594	0.0528	0	1	0.421	9	0	0
73	1	584	1	1	3	0.0594	0.0528	1	1	0.479	87	82	0
73	1	585	0	2	2	0.0594	0.0528	1	1	0.484	9	82	0
73	1	586	9	2	2	0.0594	0.0528	1	1	0.621	0	0	82
73	1	587	9	1	3	0.0594	0.0528	0	1	0.533	0	82	82
73	1	588	0	2	3	0.0594	0.0528	0	1	0.492	9	0	0
73	1	589	9	1	3	0.0594	0.0528	0	1	0.509	0	0	0
73	1	590	1	1	3	0.0594	0.0528	1	1	0.517	83	82	0
73	1	591	0	2	3	0.0594	0.0528	1	1	0.617	7	82	0
73	1	592	1	1	1	0.0594	0.0528	0	1	0.525	82	82	82
73	1	593	0	2	3	0.0594	0.0528	1	0	0.577	0	82	0
73	1	594	0	1	3	0.0594	0.0528	0	1	0.406	9	0	0
73	1	595	0	2	2	0.0594	0.0528	0	1	0.457	9	0	0
73	1	596	9	2	2	0.0594	0.0528	0	1	0.471	0	0	0
73	1	597	0	1	3	0.0594	0.0528	0	1	0.425	9	0	0
73	1	598	0	2	3	0.0594	0.0528	0	1	0.392	10	0	0
73	1	599	1	2	2	0.0594	0.0528	0	1	0.477	87	82	82
73	1	600	1	2	2	0.0594	0.0528	1	1	0.614	74	0	82
73	1	601	1	1	2	0.0594	0.0528	1	1	0.461	89	82	0
73	1	602	1	2	3	0.0594	0.0528	1	1	0.544	81	0	82
73	1	603	0	2	2	0.0594	0.0528	0	1	0.509	8	0	0
73	1	604	0	2	3	0.0594	0.0528	0	1	0.411	9	0	0
73	1	605	1	2	3	0.0594	0.0528	1	1	0.618	73	0	82
73	1	606	9	2	3	0.0594	0.0528	1	1	0.472	0	0	82
73	1	607	9	1	1	0.0594	0.0528	0	1	0.493	0	82	82
73	1	608	9	2	3	0.0594	0.0528	0	1	0.490	0	82	82
73	1	609	1	1	1	0.0594	0.0528	0	0	0.471	0	82	82
73	1	610	0	2	2	0.0594	0.0528	0	1	0.695	7	0	0
73	1	611	1	2	2	0.0594	0.0528	0	1	0.409	94	82	82
73	1	612	1	1	1	0.0594	0.0528	1	1	0.440	91	82	0
73	1	613	0	2	2	0.0594	0.0528	1	1	0.494	9	82	0
73	1	614	9	2	2	0.0594	0.0528	0	1	0.492	0	0	0
73	1	615	1	1	3	0.0594	0.0528	1	1	0.489	86	82	0
73	1	616	9	1	2	0.0594	0.0528	1	1	0.428	0	82	0
73	1	617	0	2	1	0.0594	0.0528	1	1	0.539	8	82	0
73	1	618	9	1	1	0.0594	0.0528	1	1	0.439	0	82	0
73	1	619	9	2	3	0.0594	0.0528	1	1	0.481	0	82	0
73	1	620	9	2	2	0.0594	0.0528	1	1	0.466	0	82	0
73	1	621	0	2	2	0.0594	0.0528	1	1	0.397	10	82	0
73	1	622	1	2	3	0.0594	0.0528	0	1	0.554	80	82	82
73	1	623	0	2	3	0.0594	0.0528	1	1	0.426	9	82	0
73	1	624	9	1	1	0.0594	0.0528	0	1	0.436	0	0	0
73	1	625	0	1	1	0.0594	0.0528	1	1	0.838	5	0	82
73	1	626	9	2	3	0.0594	0.0528	0	1	0.470	0	82	82
73	1	627	0	1	3	0.0594	0.0528	0	1	0.447	9	0	0
73	1	628	0	1	1	0.0594	0.0528	1	1	0.499	9	0	82
73	1	629	0	1	1	0.0594	0.0528	0	1	0.453	9	0	0
73	1	630	0	1	2	0.0594	0.0528	0	1	0.433	9	0	0
73	1	631	0	2	3	0.0594	0.0528	1	1	0.574	8	82	0
73	1	632	0	2	3	0.0594	0.0528	0	1	0.409	9	0	0
73	1	633	1	2	3	0.0594	0.0528	1	1	0.542	81	0	82
73	1	634	1	2	3	0.0594	0.0528	0	1	0.391	96	82	82
73	1	635	1	1	2	0.0594	0.0528	0	0	0.420	0	82	82
73	1	636	0	1	3	0.0594	0.0528	1	1	0.379	10	0	82
73	1	637	1	1	2	0.0594	0.0528	1	1	0.425	92	82	0
73	1	638	0	1	2	0.0594	0.0528	1	1	0.395	10	0	82
73	1	639	0	2	1	0.0594	0.0528	0	1	0.533	8	0	0
73	1	640	1	1	1	0.0594	0.0528	1	1	0.432	92	82	0
73	1	641	0	2	2	0.0594	0.0528	0	0	0.503	0	0	0
73	1	642	1	1	3	0.0594	0.0528	1	1	0.415	93	82	0
73	1	643	1	2	2	0.0594	0.0528	1	1	0.516	83	0	82
73	1	644	1	1	3	0.0594	0.0528	1	1	0.426	92	82	0
73	1	645	9	1	1	0.0594	0.0528	1	1	0.380	0	82	0
73	1	646	0	1	1	0.0594	0.0528	1	1	0.543	8	0	82
73	1	647	0	1	1	0.0594	0.0528	0	1	0.493	9	0	0
73	1	648	9	1	3	0.0594	0.0528	1	1	0.408	0	0	82
73	1	649	9	2	3	0.0594	0.0528	1	1	0.467	0	82	0
73	1	650	9	2	2	0.0594	0.0528	0	1	0.729	0	82	82
73	1	651	9	2	3	0.0594	0.0528	1	1	0.595	0	0	82
73	1	652	9	1	1	0.0594	0.0528	0	1	0.483	0	82	82
73	1	653	1	2	3	0.0594	0.0528	1	1	0.381	97	0	82
73	1	654	9	2	2	0.0594	0.0528	1	1	0.402	0	0	82
73	1	655	0	1	3	0.0594	0.0528	0	0	0.511	0	0	0
73	1	656	1	1	1	0.0594	0.0528	0	1	0.388	96	82	82
73	1	657	0	1	3	0.0594	0.0528	1	1	0.435	9	0	82
73	1	658	1	2	1	0.0594	0.0528	1	1	0.474	88	0	82
73	1	659	0	1	3	0.0594	0.0528	0	1	0.415	9	0	0
73	1	660	1	2	2	0.0594	0.0528	0	1	0.414	94	82	82
73	1	661	1	1	3	0.0594	0.0528	0	0	0.391	0	82	82
73	1	662	0	1	1	0.0594	0.0528	0	1	0.386	10	0	0
73	1	663	0	1	3	0.0594	0.0528	0	1	0.419	9	0	0
73	1	664	0	1	3	0.0594	0.0528	0	1	0.430	9	0	0
73	1	665	0	2	3	0.0594	0.0528	1	1	0.447	9	82	0
73	1	666	0	2	3	0.0594	0.0528	0	1	0.449	9	0	0
73	1	667	1	2	3	0.0594	0.0528	0	1	0.499	85	82	82
73	1	668	0	2	2	0.0594	0.0528	1	1	0.567	8	82	0
73	1	669	9	2	3	0.0594	0.0528	0	1	0.437	0	0	0
73	1	670	0	1	3	0.0594	0.0528	1	1	0.662	7	0	82
73	1	671	1	2	3	0.0594	0.0528	0	1	0.457	89	82	82
73	1	672	9	1	1	0.0594	0.0528	1	1	0.580	0	82	0
73	1	673	0	2	3	0.0594	0.0528	1	0	0.422	0	82	0
73	1	674	9	1	1	0.0594	0.0528	1	1	0.493	0	82	0
73	1	675	1	2	3	0.0594	0.0528	0	1	0.517	83	82	82
73	1	676	1	2	2	0.0594	0.0528	1	1	0.473	88	0	82
73	1	677	1	1	1	0.0594	0.0528	1	1	0.489	86	82	0
73	1	678	1	1	1	0.0594	0.0528	0	1	0.448	90	82	82
73	1	679	1	1	1	0.0594	0.0528	1	1	0.422	93	82	0
73	1	680	1	2	1	0.0594	0.0528	0	1	0.431	92	82	82
73	1	681	0	2	3	0.0594	0.0528	0	1	0.478	9	0	0
73	1	682	9	1	1	0.0594	0.0528	1	1	0.469	0	0	82
73	1	683	0	2	3	0.0594	0.0528	0	1	0.439	9	0	0
73	1	684	0	2	2	0.0594	0.0528	1	1	0.500	8	82	0
73	1	685	1	1	3	0.0594	0.0528	0	1	0.512	84	82	82
73	1	686	1	2	1	0.0594	0.0528	1	1	0.478	87	0	82
73	1	687	1	1	1	0.0594	0.0528	1	1	0.498	85	82	0
73	1	688	9	2	2	0.0594	0.0528	1	1	0.497	0	82	0
73	1	689	9	2	2	0.0594	0.0528	1	1	0.381	0	0	82
73	1	690	1	2	3	0.0594	0.0528	1	1	0.502	85	0	82
73	1	691	0	2	1	0.0594	0.0528	1	1	0.439	9	82	0
73	1	692	0	2	3	0.0594	0.0528	0	1	0.500	9	0	0
73	1	693	0	1	3	0.0594	0.0528	1	1	0.504	8	0	82
73	1	694	1	1	3	0.0594	0.0528	0	1	0.465	89	82	82
73	1	695	0	1	1	0.0594	0.0528	1	1	0.523	8	0	82
73	1	696	9	1	3	0.0594	0.0528	0	1	0.460	0	82	82
73	1	697	1	2	3	0.0594	0.0528	1	1	0.440	91	0	82
73	1	698	1	2	2	0.0594	0.0528	1	1	0.449	90	0	82
73	1	699	0	2	3	0.0594	0.0528	1	0	0.504	0	82	0
73	1	700	1	1	3	0.0594	0.0528	0	1	0.497	85	82	82
73	1	701	0	2	3	0.0594	0.0528	0	1	0.462	9	0	0
73	1	702	1	2	2	0.0594	0.0528	1	1	0.579	77	0	82
73	1	703	0	2	1	0.0594	0.0528	1	0	0.434	0	82	0
73	1	704	1	2	3	0.0594	0.0528	0	1	0.455	90	82	82
73	1	705	9	1	1	0.0594	0.0528	1	1	0.536	0	0	82
73	1	706	0	1	3	0.0594	0.0528	0	1	0.640	7	0	0
73	1	707	9	2	2	0.0594	0.0528	1	0	0.530	0	82	0
73	1	708	0	1	1	0.0594	0.0528	1	1	0.400	10	0	82
73	1	709	1	2	3	0.0594	0.0528	0	1	0.410	94	82	82
73	1	710	1	2	3	0.0594	0.0528	0	1	0.407	94	82	82
73	1	711	1	1	1	0.0594	0.0528	1	1	0.470	88	82	0
73	1	712	0	1	3	0.0594	0.0528	0	1	0.369	10	0	0
73	1	713	1	1	1	0.0594	0.0528	0	1	0.407	94	82	82
73	1	714	9	2	2	0.0594	0.0528	1	1	0.572	0	0	82
73	1	715	1	2	1	0.0594	0.0528	0	1	0.451	90	82	82
73	1	716	1	2	3	0.0594	0.0528	1	0	0.425	0	0	82
73	1	717	1	2	3	0.0594	0.0528	1	0	0.561	0	0	82
73	1	718	1	1	1	0.0594	0.0528	1	1	0.548	80	82	0
73	1	719	1	2	2	0.0594	0.0528	1	1	0.498	85	0	82
73	1	720	0	2	2	0.0594	0.0528	1	1	0.356	10	82	0
