sub	sess	t	rew	loc	cue	co1	co2	or	resp	rt	rew_tot	left_col	right_col
122	1	1	1	1	1	0.0804	0.0538	1	1	0.673	68	0	82
122	1	2	1	2	2	0.0804	0.0538	0	1	0.553	80	0	0
122	1	3	1	2	3	0.0804	0.0538	0	1	0.621	73	0	0
122	1	4	1	1	3	0.0804	0.0538	1	1	0.526	82	0	82
122	1	5	9	2	2	0.0804	0.0538	0	1	0.610	0	82	82
122	1	6	0	2	2	0.0804	0.0538	1	1	0.611	7	0	82
122	1	7	9	2	3	0.0804	0.0538	0	1	0.669	0	82	82
122	1	8	1	2	3	0.0804	0.0538	1	1	0.620	73	82	0
122	1	9	1	1	3	0.0804	0.0538	1	0	0.548	0	0	82
122	1	10	1	1	3	0.0804	0.0538	0	1	0.552	80	0	0
122	1	11	1	2	2	0.0804	0.0538	1	1	0.692	66	82	0
122	1	12	9	2	3	0.0804	0.0538	0	1	0.514	0	0	0
122	1	13	1	1	3	0.0804	0.0538	0	1	2.288	50	0	0
122	1	14	0	1	3	0.0804	0.0538	1	1	0.579	8	82	0
122	1	15	1	1	1	0.0804	0.0538	0	1	0.643	71	0	0
122	1	16	0	2	3	0.0804	0.0538	1	1	1.105	5	0	82
122	1	17	1	1	1	0.0804	0.0538	1	1	0.687	66	0	82
122	1	18	0	1	3	0.0804	0.0538	1	1	0.635	7	82	0
122	1	19	1	2	3	0.0804	0.0538	0	1	0.668	68	0	0
122	1	20	1	2	1	0.0804	0.0538	1	1	0.793	56	82	0
122	1	21	1	1	3	0.0804	0.0538	1	1	0.707	64	0	82
122	1	22	1	1	1	0.0804	0.0538	1	1	0.431	92	0	82
122	1	23	1	1	3	0.0804	0.0538	1	0	0.718	0	0	82
122	1	24	9	1	3	0.0804	0.0538	1	1	0.410	0	82	0
122	1	25	0	2	2	0.0804	0.0538	1	1	0.754	6	0	82
122	1	26	0	2	2	0.0804	0.0538	1	1	0.654	7	0	82
122	1	27	0	2	2	0.0804	0.0538	0	1	0.587	8	82	82
122	1	28	0	2	1	0.0804	0.0538	0	1	0.452	9	82	82
122	1	29	9	2	3	0.0804	0.0538	1	1	0.594	0	82	0
122	1	30	9	1	3	0.0804	0.0538	1	1	0.717	0	0	82
122	1	31	9	1	1	0.0804	0.0538	0	1	0.560	0	82	82
122	1	32	1	2	3	0.0804	0.0538	0	1	0.562	79	0	0
122	1	33	1	1	2	0.0804	0.0538	0	1	0.533	82	0	0
122	1	34	1	1	3	0.0804	0.0538	0	1	0.472	88	0	0
122	1	35	0	2	3	0.0804	0.0538	1	0	0.424	0	0	82
122	1	36	9	1	1	0.0804	0.0538	1	1	0.479	0	82	0
122	1	37	0	1	2	0.0804	0.0538	0	1	0.684	7	82	82
122	1	38	9	2	2	0.0804	0.0538	1	0	0.457	0	0	82
122	1	39	1	1	1	0.0804	0.0538	0	1	0.666	68	0	0
122	1	40	0	2	3	0.0804	0.0538	1	1	0.761	6	0	82
122	1	41	9	1	1	0.0804	0.0538	0	1	0.505	0	0	0
122	1	42	1	1	3	0.0804	0.0538	1	1	0.647	70	0	82
122	1	43	9	1	1	0.0804	0.0538	1	1	0.501	0	82	0
122	1	44	1	2	3	0.0804	0.0538	0	1	0.788	56	0	0
122	1	45	0	2	2	0.0804	0.0538	1	1	0.848	5	0	82
122	1	46	0	2	3	0.0804	0.0538	0	1	0.568	8	82	82
122	1	47	0	2	2	0.0804	0.0538	0	1	0.507	8	82	82
122	1	48	0	2	2	0.0804	0.0538	1	1	0.577	8	0	82
122	1	49	1	2	2	0.0804	0.0538	1	0	0.753	0	82	0
122	1	50	9	2	3	0.0804	0.0538	0	1	0.774	0	82	82
122	1	51	1	1	3	0.0804	0.0538	1	1	0.688	66	0	82
122	1	52	1	2	2	0.0804	0.0538	0	1	0.679	67	0	0
122	1	53	0	2	1	0.0804	0.0538	0	1	0.749	6	82	82
122	1	54	0	1	1	0.0804	0.0538	1	1	0.536	8	82	0
122	1	55	0	2	2	0.0804	0.0538	1	0	0.790	0	0	82
122	1	56	0	1	1	0.0804	0.0538	1	1	0.511	8	82	0
122	1	57	0	2	3	0.0804	0.0538	1	1	0.724	6	0	82
122	1	58	9	1	2	0.0804	0.0538	0	1	0.655	0	0	0
122	1	59	9	2	2	0.0804	0.0538	0	1	1.984	0	0	0
122	1	60	0	1	3	0.0804	0.0538	0	0	0.608	0	82	82
122	1	61	1	1	3	0.0804	0.0538	0	1	0.539	81	0	0
122	1	62	1	2	3	0.0804	0.0538	1	0	0.813	0	82	0
122	1	63	1	1	1	0.0804	0.0538	1	1	0.623	73	0	82
122	1	64	1	2	3	0.0804	0.0538	0	1	0.601	75	0	0
122	1	65	9	2	2	0.0804	0.0538	0	1	0.521	0	0	0
122	1	66	1	1	3	0.0804	0.0538	1	1	0.588	76	0	82
122	1	67	0	1	2	0.0804	0.0538	1	1	0.592	8	82	0
122	1	68	0	1	1	0.0804	0.0538	0	1	0.587	8	82	82
122	1	69	9	2	3	0.0804	0.0538	1	1	0.741	0	0	82
122	1	70	1	2	2	0.0804	0.0538	1	1	3.224	50	82	0
122	1	71	1	2	2	0.0804	0.0538	0	1	0.633	72	0	0
122	1	72	1	2	2	0.0804	0.0538	1	1	0.960	50	82	0
122	1	73	1	1	1	0.0804	0.0538	1	1	0.755	60	0	82
122	1	74	1	2	2	0.0804	0.0538	1	1	0.583	77	82	0
122	1	75	1	2	3	0.0804	0.0538	1	1	0.625	72	82	0
122	1	76	1	2	3	0.0804	0.0538	1	1	0.481	87	82	0
122	1	77	1	1	3	0.0804	0.0538	0	1	0.960	50	0	0
122	1	78	1	1	3	0.0804	0.0538	0	1	0.498	85	0	0
122	1	79	1	2	2	0.0804	0.0538	0	1	0.671	68	0	0
122	1	80	1	2	2	0.0804	0.0538	0	1	0.532	82	0	0
122	1	81	9	2	1	0.0804	0.0538	0	1	0.607	0	82	82
122	1	82	9	2	3	0.0804	0.0538	1	1	0.760	0	82	0
122	1	83	9	1	2	0.0804	0.0538	0	1	0.812	0	82	82
122	1	84	0	1	3	0.0804	0.0538	0	1	0.524	8	82	82
122	1	85	9	2	3	0.0804	0.0538	1	1	0.601	0	0	82
122	1	86	0	1	3	0.0804	0.0538	1	1	0.850	5	82	0
122	1	87	0	1	3	0.0804	0.0538	1	1	0.617	7	82	0
122	1	88	1	2	2	0.0804	0.0538	1	1	0.642	71	82	0
122	1	89	0	1	3	0.0804	0.0538	1	1	0.504	8	82	0
122	1	90	1	1	3	0.0804	0.0538	0	1	0.574	78	0	0
122	1	91	1	2	3	0.0804	0.0538	1	1	1.999	50	82	0
122	1	92	0	2	2	0.0804	0.0538	1	1	0.576	8	0	82
122	1	93	0	1	1	0.0804	0.0538	0	1	0.538	8	82	82
122	1	94	0	1	3	0.0804	0.0538	0	1	0.535	8	82	82
122	1	95	0	2	2	0.0804	0.0538	0	1	0.548	8	82	82
122	1	96	1	1	3	0.0804	0.0538	1	1	0.665	68	0	82
122	1	97	1	2	3	0.0804	0.0538	0	1	0.694	66	0	0
122	1	98	0	1	1	0.0804	0.0538	0	1	0.515	8	82	82
122	1	99	1	2	3	0.0804	0.0538	0	1	0.529	82	0	0
122	1	100	0	1	3	0.0804	0.0538	0	1	0.533	8	82	82
122	1	101	0	1	2	0.0804	0.0538	1	1	0.649	7	82	0
122	1	102	0	2	2	0.0804	0.0538	0	1	0.478	9	82	82
122	1	103	1	1	1	0.0804	0.0538	1	1	0.402	95	0	82
122	1	104	1	2	1	0.0804	0.0538	0	1	0.508	84	0	0
122	1	105	9	1	1	0.0804	0.0538	0	1	0.465	0	0	0
122	1	106	0	1	1	0.0804	0.0538	0	1	1.023	5	82	82
122	1	107	0	2	3	0.0804	0.0538	1	1	0.623	7	0	82
122	1	108	9	1	1	0.0804	0.0538	0	1	0.593	0	0	0
122	1	109	1	2	2	0.0804	0.0538	1	1	0.650	70	82	0
122	1	110	9	1	3	0.0804	0.0538	0	0	0.450	0	0	0
122	1	111	0	1	3	0.0804	0.0538	1	1	0.850	5	82	0
122	1	112	1	1	3	0.0804	0.0538	0	1	0.528	82	0	0
122	1	113	9	1	3	0.0804	0.0538	0	1	0.613	0	0	0
122	1	114	9	2	3	0.0804	0.0538	0	1	0.861	0	0	0
122	1	115	0	2	3	0.0804	0.0538	1	1	0.660	7	0	82
122	1	116	0	2	3	0.0804	0.0538	0	1	0.554	8	82	82
122	1	117	0	1	3	0.0804	0.0538	1	1	0.652	7	82	0
122	1	118	9	1	3	0.0804	0.0538	0	1	0.545	0	82	82
122	1	119	0	2	3	0.0804	0.0538	0	0	0.675	0	82	82
122	1	120	0	2	3	0.0804	0.0538	0	1	0.623	7	82	82
122	1	121	0	1	1	0.0804	0.0538	0	1	0.534	8	82	82
122	1	122	9	1	3	0.0804	0.0538	1	1	0.617	0	82	0
122	1	123	1	1	2	0.0804	0.0538	1	1	1.322	50	0	82
122	1	124	0	1	1	0.0804	0.0538	0	1	0.479	9	82	82
122	1	125	1	2	3	0.0804	0.0538	1	1	0.748	60	82	0
122	1	126	1	1	2	0.0804	0.0538	0	1	0.816	53	0	0
122	1	127	9	1	1	0.0804	0.0538	0	1	0.536	0	82	82
122	1	128	0	1	3	0.0804	0.0538	1	1	0.668	7	82	0
122	1	129	0	2	2	0.0804	0.0538	0	1	0.561	8	82	82
122	1	130	9	1	1	0.0804	0.0538	1	1	0.625	0	0	82
122	1	131	1	2	2	0.0804	0.0538	1	0	0.555	0	82	0
122	1	132	9	2	2	0.0804	0.0538	0	1	0.567	0	82	82
122	1	133	1	1	1	0.0804	0.0538	1	1	0.586	76	0	82
122	1	134	0	2	3	0.0804	0.0538	1	1	0.892	5	0	82
122	1	135	1	2	3	0.0804	0.0538	1	1	0.658	69	82	0
122	1	136	1	1	1	0.0804	0.0538	0	1	0.546	80	0	0
122	1	137	1	1	1	0.0804	0.0538	0	1	0.509	84	0	0
122	1	138	9	2	1	0.0804	0.0538	0	1	0.843	0	0	0
122	1	139	1	2	3	0.0804	0.0538	0	1	1.569	50	0	0
122	1	140	0	2	2	0.0804	0.0538	1	1	0.781	6	0	82
122	1	141	1	2	3	0.0804	0.0538	0	1	0.477	87	0	0
122	1	142	0	1	3	0.0804	0.0538	1	1	0.405	9	82	0
122	1	143	0	2	3	0.0804	0.0538	1	0	0.470	0	0	82
122	1	144	1	2	3	0.0804	0.0538	1	1	0.627	72	82	0
122	1	145	1	1	1	0.0804	0.0538	1	1	1.338	50	0	82
122	1	146	1	1	3	0.0804	0.0538	0	1	0.504	85	0	0
122	1	147	0	2	2	0.0804	0.0538	1	1	0.750	6	0	82
122	1	148	0	2	2	0.0804	0.0538	0	1	0.603	7	82	82
122	1	149	1	1	1	0.0804	0.0538	0	1	0.597	75	0	0
122	1	150	1	2	3	0.0804	0.0538	1	1	0.784	57	82	0
122	1	151	1	1	3	0.0804	0.0538	1	1	0.723	63	0	82
122	1	152	1	1	1	0.0804	0.0538	0	1	0.569	78	0	0
122	1	153	9	1	3	0.0804	0.0538	0	1	0.675	0	82	82
122	1	154	0	1	1	0.0804	0.0538	1	1	0.570	8	82	0
122	1	155	1	1	3	0.0804	0.0538	0	1	0.659	69	0	0
122	1	156	0	2	1	0.0804	0.0538	1	0	0.585	0	0	82
122	1	157	0	1	1	0.0804	0.0538	1	1	0.588	8	82	0
122	1	158	9	2	2	0.0804	0.0538	1	1	1.327	0	0	82
122	1	159	1	2	3	0.0804	0.0538	0	1	0.539	81	0	0
122	1	160	1	2	1	0.0804	0.0538	0	1	0.557	79	0	0
122	1	161	9	1	3	0.0804	0.0538	1	0	0.551	0	82	0
122	1	162	1	1	1	0.0804	0.0538	1	1	0.509	84	0	82
122	1	163	0	1	1	0.0804	0.0538	1	1	0.472	9	82	0
122	1	164	0	1	3	0.0804	0.0538	0	1	0.399	10	82	82
122	1	165	1	1	1	0.0804	0.0538	0	1	0.368	98	0	0
122	1	166	9	2	2	0.0804	0.0538	1	1	0.506	0	82	0
122	1	167	0	2	2	0.0804	0.0538	0	1	0.489	9	82	82
122	1	168	9	2	1	0.0804	0.0538	1	0	0.688	0	0	82
122	1	169	1	2	3	0.0804	0.0538	0	1	0.501	85	0	0
122	1	170	1	1	2	0.0804	0.0538	0	1	0.484	87	0	0
122	1	171	9	2	3	0.0804	0.0538	1	0	0.539	0	82	0
122	1	172	9	2	2	0.0804	0.0538	0	1	0.536	0	0	0
122	1	173	0	2	2	0.0804	0.0538	0	1	0.483	9	82	82
122	1	174	9	1	3	0.0804	0.0538	0	1	1.017	0	0	0
122	1	175	0	1	3	0.0804	0.0538	0	1	0.580	8	82	82
122	1	176	0	2	3	0.0804	0.0538	1	1	0.872	5	0	82
122	1	177	1	1	2	0.0804	0.0538	1	1	0.718	63	0	82
122	1	178	0	2	2	0.0804	0.0538	1	1	0.547	8	0	82
122	1	179	0	1	3	0.0804	0.0538	0	1	1.001	5	82	82
122	1	180	1	2	2	0.0804	0.0538	0	1	1.787	50	0	0
122	1	181	1	2	3	0.0804	0.0538	1	1	0.785	56	82	0
122	1	182	0	1	1	0.0804	0.0538	0	1	1.114	5	82	82
122	1	183	1	2	2	0.0804	0.0538	0	1	0.646	70	0	0
122	1	184	9	2	2	0.0804	0.0538	1	1	0.636	0	0	82
122	1	185	0	2	3	0.0804	0.0538	0	1	0.564	8	82	82
122	1	186	1	1	3	0.0804	0.0538	0	1	0.574	78	0	0
122	1	187	0	1	3	0.0804	0.0538	0	1	0.473	9	82	82
122	1	188	9	2	3	0.0804	0.0538	1	0	0.592	0	0	82
122	1	189	0	1	1	0.0804	0.0538	0	1	0.482	9	82	82
122	1	190	0	1	1	0.0804	0.0538	0	1	0.425	9	82	82
122	1	191	1	2	3	0.0804	0.0538	1	1	0.489	86	82	0
122	1	192	9	2	3	0.0804	0.0538	0	1	0.656	0	82	82
122	1	193	0	2	2	0.0804	0.0538	1	0	0.656	0	0	82
122	1	194	0	2	3	0.0804	0.0538	0	1	0.497	9	82	82
122	1	195	9	1	1	0.0804	0.0538	1	1	0.540	0	82	0
122	1	196	0	1	2	0.0804	0.0538	1	0	0.553	0	82	0
122	1	197	0	1	1	0.0804	0.0538	0	1	0.619	7	82	82
122	1	198	0	1	1	0.0804	0.0538	1	1	0.621	7	82	0
122	1	199	1	1	2	0.0804	0.0538	1	1	0.684	67	0	82
122	1	200	1	1	1	0.0804	0.0538	1	1	0.448	90	0	82
122	1	201	9	1	1	0.0804	0.0538	0	1	0.476	0	82	82
122	1	202	1	2	2	0.0804	0.0538	1	1	0.482	87	82	0
122	1	203	9	2	3	0.0804	0.0538	0	1	0.569	0	82	82
122	1	204	1	1	3	0.0804	0.0538	1	1	0.429	92	0	82
122	1	205	1	2	3	0.0804	0.0538	0	1	0.389	96	0	0
122	1	206	1	2	3	0.0804	0.0538	1	0	0.454	0	82	0
122	1	207	1	2	1	0.0804	0.0538	0	1	0.444	91	0	0
122	1	208	0	2	3	0.0804	0.0538	0	1	0.475	9	82	82
122	1	209	0	2	2	0.0804	0.0538	0	1	0.450	9	82	82
122	1	210	1	2	3	0.0804	0.0538	0	1	0.402	95	0	0
122	1	211	0	2	2	0.0804	0.0538	1	1	0.586	8	0	82
122	1	212	0	2	2	0.0804	0.0538	0	1	0.580	8	82	82
122	1	213	1	1	3	0.0804	0.0538	0	1	1.126	50	0	0
122	1	214	0	1	1	0.0804	0.0538	0	1	0.696	7	82	82
122	1	215	0	2	3	0.0804	0.0538	1	1	0.686	7	0	82
122	1	216	1	2	2	0.0804	0.0538	1	1	0.556	79	82	0
122	1	217	1	1	3	0.0804	0.0538	0	1	0.654	70	0	0
122	1	218	9	2	2	0.0804	0.0538	1	1	0.704	0	82	0
122	1	219	0	1	3	0.0804	0.0538	0	1	0.508	8	82	82
122	1	220	0	2	2	0.0804	0.0538	1	1	0.681	7	0	82
122	1	221	9	1	3	0.0804	0.0538	0	1	0.440	0	82	82
122	1	222	9	1	3	0.0804	0.0538	1	1	0.689	0	0	82
122	1	223	0	2	2	0.0804	0.0538	0	1	0.510	8	82	82
122	1	224	0	2	3	0.0804	0.0538	1	0	1.025	0	0	82
122	1	225	0	2	3	0.0804	0.0538	0	1	0.579	8	82	82
122	1	226	1	1	3	0.0804	0.0538	0	1	0.756	59	0	0
122	1	227	1	2	1	0.0804	0.0538	1	1	0.647	70	82	0
122	1	228	0	1	3	0.0804	0.0538	1	1	0.622	7	82	0
122	1	229	1	1	3	0.0804	0.0538	1	1	0.582	77	0	82
122	1	230	1	1	1	0.0804	0.0538	1	1	0.504	85	0	82
122	1	231	1	1	2	0.0804	0.0538	1	1	0.520	83	0	82
122	1	232	1	2	3	0.0804	0.0538	1	0	0.947	0	82	0
122	1	233	0	1	1	0.0804	0.0538	1	1	0.573	8	82	0
122	1	234	1	2	2	0.0804	0.0538	0	0	0.679	0	0	0
122	1	235	1	1	1	0.0804	0.0538	0	1	0.629	72	0	0
122	1	236	0	2	3	0.0804	0.0538	1	0	0.518	0	0	82
122	1	237	9	2	2	0.0804	0.0538	0	1	0.556	0	0	0
122	1	238	9	2	3	0.0804	0.0538	1	1	0.577	0	0	82
122	1	239	1	1	1	0.0804	0.0538	0	1	0.651	70	0	0
122	1	240	1	1	1	0.0804	0.0538	1	1	0.667	68	0	82
122	1	241	1	2	2	0.0804	0.0538	1	0	0.889	0	82	0
122	1	242	9	2	2	0.0804	0.0538	1	1	0.679	0	0	82
122	1	243	0	2	3	0.0804	0.0538	1	1	0.550	8	0	82
122	1	244	9	1	1	0.0804	0.0538	0	1	0.723	0	82	82
122	1	245	9	2	3	0.0804	0.0538	1	1	0.617	0	82	0
122	1	246	0	1	1	0.0804	0.0538	1	1	0.603	7	82	0
122	1	247	1	1	1	0.0804	0.0538	0	0	1.548	0	0	0
122	1	248	1	2	1	0.0804	0.0538	1	1	1.233	50	82	0
122	1	249	1	2	2	0.0804	0.0538	1	0	1.120	0	82	0
122	1	250	1	1	3	0.0804	0.0538	1	1	1.077	50	0	82
122	1	251	1	1	1	0.0804	0.0538	1	1	0.458	89	0	82
122	1	252	1	2	3	0.0804	0.0538	0	1	0.528	82	0	0
122	1	253	9	1	3	0.0804	0.0538	1	1	0.507	0	0	82
122	1	254	0	1	3	0.0804	0.0538	0	1	0.511	8	82	82
122	1	255	9	2	3	0.0804	0.0538	0	1	0.499	0	0	0
122	1	256	0	2	3	0.0804	0.0538	0	1	0.456	9	82	82
122	1	257	1	1	1	0.0804	0.0538	0	1	0.559	79	0	0
122	1	258	9	1	3	0.0804	0.0538	0	1	0.436	0	82	82
122	1	259	9	1	2	0.0804	0.0538	1	1	0.964	0	0	82
122	1	260	9	1	3	0.0804	0.0538	1	1	0.581	0	0	82
122	1	261	0	2	3	0.0804	0.0538	0	1	0.467	9	82	82
122	1	262	1	1	1	0.0804	0.0538	0	1	0.568	78	0	0
122	1	263	0	1	3	0.0804	0.0538	0	1	0.763	6	82	82
122	1	264	1	2	3	0.0804	0.0538	1	1	0.989	50	82	0
122	1	265	0	1	1	0.0804	0.0538	1	1	0.705	6	82	0
122	1	266	0	1	1	0.0804	0.0538	0	1	0.760	6	82	82
122	1	267	0	1	3	0.0804	0.0538	0	1	0.426	9	82	82
122	1	268	9	2	2	0.0804	0.0538	0	1	0.524	0	82	82
122	1	269	0	1	3	0.0804	0.0538	0	1	0.634	7	82	82
122	1	270	9	2	3	0.0804	0.0538	0	1	0.530	0	0	0
122	1	271	0	1	1	0.0804	0.0538	1	1	0.558	8	82	0
122	1	272	0	2	2	0.0804	0.0538	0	1	0.424	9	82	82
122	1	273	1	2	2	0.0804	0.0538	0	1	0.424	93	0	0
122	1	274	1	2	1	0.0804	0.0538	1	1	1.007	50	82	0
122	1	275	9	1	3	0.0804	0.0538	0	1	0.546	0	0	0
122	1	276	1	1	1	0.0804	0.0538	1	1	0.492	86	0	82
122	1	277	0	1	3	0.0804	0.0538	0	1	0.851	5	82	82
122	1	278	0	2	1	0.0804	0.0538	1	1	0.441	9	0	82
122	1	279	9	2	2	0.0804	0.0538	0	1	0.434	0	82	82
122	1	280	0	1	3	0.0804	0.0538	0	1	0.552	8	82	82
122	1	281	1	2	2	0.0804	0.0538	0	1	0.363	99	0	0
122	1	282	9	1	1	0.0804	0.0538	1	1	0.438	0	0	82
122	1	283	0	1	3	0.0804	0.0538	1	0	0.517	0	82	0
122	1	284	0	1	3	0.0804	0.0538	1	1	0.769	6	82	0
122	1	285	0	2	2	0.0804	0.0538	1	1	0.570	8	0	82
122	1	286	0	2	2	0.0804	0.0538	1	1	0.604	7	0	82
122	1	287	0	1	1	0.0804	0.0538	1	1	0.573	8	82	0
122	1	288	1	1	3	0.0804	0.0538	1	1	0.391	96	0	82
122	1	289	9	2	2	0.0804	0.0538	1	1	0.480	0	82	0
122	1	290	9	1	1	0.0804	0.0538	0	1	0.398	0	0	0
122	1	291	1	1	1	0.0804	0.0538	1	1	0.441	91	0	82
122	1	292	0	2	3	0.0804	0.0538	1	0	0.674	0	0	82
122	1	293	0	1	1	0.0804	0.0538	1	1	0.528	8	82	0
122	1	294	0	2	3	0.0804	0.0538	0	0	1.156	0	82	82
122	1	295	9	1	3	0.0804	0.0538	1	1	0.488	0	82	0
122	1	296	1	2	2	0.0804	0.0538	0	1	0.461	89	0	0
122	1	297	0	1	3	0.0804	0.0538	1	1	0.547	8	82	0
122	1	298	1	2	2	0.0804	0.0538	0	1	0.680	67	0	0
122	1	299	1	2	2	0.0804	0.0538	0	1	0.551	80	0	0
122	1	300	0	1	3	0.0804	0.0538	1	1	0.528	8	82	0
122	1	301	0	2	2	0.0804	0.0538	0	1	0.388	10	82	82
122	1	302	0	1	2	0.0804	0.0538	0	1	0.550	8	82	82
122	1	303	9	1	1	0.0804	0.0538	1	1	0.687	0	0	82
122	1	304	1	2	3	0.0804	0.0538	0	1	0.814	54	0	0
122	1	305	0	2	2	0.0804	0.0538	0	1	0.431	9	82	82
122	1	306	0	2	1	0.0804	0.0538	1	0	0.567	0	0	82
122	1	307	1	2	3	0.0804	0.0538	1	1	0.562	79	82	0
122	1	308	1	1	3	0.0804	0.0538	1	1	0.501	85	0	82
122	1	309	9	1	1	0.0804	0.0538	1	1	0.378	0	0	82
122	1	310	1	2	2	0.0804	0.0538	1	0	0.396	0	82	0
122	1	311	1	2	2	0.0804	0.0538	0	1	0.661	69	0	0
122	1	312	9	2	2	0.0804	0.0538	1	1	0.525	0	82	0
122	1	313	1	1	1	0.0804	0.0538	0	1	0.417	93	0	0
122	1	314	1	1	1	0.0804	0.0538	0	1	0.371	98	0	0
122	1	315	0	1	1	0.0804	0.0538	1	1	0.496	9	82	0
122	1	316	0	1	3	0.0804	0.0538	1	1	0.542	8	82	0
122	1	317	0	1	1	0.0804	0.0538	1	1	0.458	9	82	0
122	1	318	0	2	1	0.0804	0.0538	0	1	0.472	9	82	82
122	1	319	0	2	3	0.0804	0.0538	0	0	0.750	0	82	82
122	1	320	9	1	2	0.0804	0.0538	1	1	1.081	0	82	0
122	1	321	1	1	3	0.0804	0.0538	1	1	0.460	89	0	82
122	1	322	0	1	3	0.0804	0.0538	0	0	0.483	0	82	82
122	1	323	0	2	3	0.0804	0.0538	0	1	0.656	7	82	82
122	1	324	0	1	2	0.0804	0.0538	1	0	0.848	0	82	0
122	1	325	0	2	1	0.0804	0.0538	1	1	0.633	7	0	82
122	1	326	1	1	1	0.0804	0.0538	1	1	0.440	91	0	82
122	1	327	0	1	2	0.0804	0.0538	0	1	0.529	8	82	82
122	1	328	1	1	1	0.0804	0.0538	0	1	0.446	90	0	0
122	1	329	9	2	1	0.0804	0.0538	1	0	1.213	0	82	0
122	1	330	0	2	3	0.0804	0.0538	1	1	0.772	6	0	82
122	1	331	1	2	2	0.0804	0.0538	0	1	0.502	85	0	0
122	1	332	0	1	1	0.0804	0.0538	0	1	0.466	9	82	82
122	1	333	1	1	3	0.0804	0.0538	0	1	0.361	99	0	0
122	1	334	1	1	2	0.0804	0.0538	0	1	0.419	93	0	0
122	1	335	1	2	3	0.0804	0.0538	1	0	0.611	0	82	0
122	1	336	0	1	1	0.0804	0.0538	1	1	0.517	8	82	0
122	1	337	0	1	1	0.0804	0.0538	0	1	0.553	8	82	82
122	1	338	1	1	1	0.0804	0.0538	0	1	0.406	94	0	0
122	1	339	0	1	1	0.0804	0.0538	0	1	0.391	10	82	82
122	1	340	0	2	3	0.0804	0.0538	0	1	0.567	8	82	82
122	1	341	1	1	3	0.0804	0.0538	0	1	0.562	79	0	0
122	1	342	0	2	2	0.0804	0.0538	0	1	0.380	10	82	82
122	1	343	0	1	1	0.0804	0.0538	0	1	0.469	9	82	82
122	1	344	1	2	3	0.0804	0.0538	0	1	0.444	91	0	0
122	1	345	0	2	1	0.0804	0.0538	0	1	0.642	7	82	82
122	1	346	0	2	3	0.0804	0.0538	0	1	0.402	9	82	82
122	1	347	0	2	3	0.0804	0.0538	1	0	0.410	0	0	82
122	1	348	0	2	2	0.0804	0.0538	1	1	0.586	8	0	82
122	1	349	0	1	1	0.0804	0.0538	1	0	0.410	0	82	0
122	1	350	1	2	2	0.0804	0.0538	1	1	0.546	80	82	0
122	1	351	1	2	2	0.0804	0.0538	0	1	0.774	58	0	0
122	1	352	0	2	3	0.0804	0.0538	0	1	0.474	9	82	82
122	1	353	0	2	2	0.0804	0.0538	0	1	0.474	9	82	82
122	1	354	1	2	2	0.0804	0.0538	1	1	0.584	77	82	0
122	1	355	1	2	2	0.0804	0.0538	1	1	0.441	91	82	0
122	1	356	9	1	1	0.0804	0.0538	1	1	0.715	0	82	0
122	1	357	1	1	3	0.0804	0.0538	1	1	0.455	89	0	82
122	1	358	1	2	1	0.0804	0.0538	0	1	0.638	71	0	0
122	1	359	0	1	3	0.0804	0.0538	1	1	0.623	7	82	0
122	1	360	0	1	2	0.0804	0.0538	0	1	0.649	7	82	82
122	1	361	0	1	3	0.0804	0.0538	0	1	0.489	9	82	82
122	1	362	0	1	1	0.0804	0.0538	1	1	0.441	9	82	0
122	1	363	0	1	1	0.0804	0.0538	1	1	0.480	9	82	0
122	1	364	0	2	3	0.0804	0.0538	0	1	0.446	9	82	82
122	1	365	9	1	3	0.0804	0.0538	0	1	0.476	0	0	0
122	1	366	1	2	2	0.0804	0.0538	1	1	0.633	72	82	0
122	1	367	0	1	1	0.0804	0.0538	0	1	0.503	8	82	82
122	1	368	9	2	2	0.0804	0.0538	1	0	0.613	0	82	0
122	1	369	1	2	3	0.0804	0.0538	0	1	0.437	91	0	0
122	1	370	1	1	3	0.0804	0.0538	0	1	0.371	98	0	0
122	1	371	0	2	3	0.0804	0.0538	1	0	0.461	0	0	82
122	1	372	0	1	1	0.0804	0.0538	0	1	0.557	8	82	82
122	1	373	9	2	3	0.0804	0.0538	1	0	0.928	0	0	82
122	1	374	0	2	2	0.0804	0.0538	0	1	0.459	9	82	82
122	1	375	1	1	3	0.0804	0.0538	1	1	0.496	85	0	82
122	1	376	1	2	2	0.0804	0.0538	0	1	0.511	84	0	0
122	1	377	1	2	2	0.0804	0.0538	0	1	0.421	93	0	0
122	1	378	9	1	3	0.0804	0.0538	0	1	0.677	0	0	0
122	1	379	0	2	2	0.0804	0.0538	0	1	0.451	9	82	82
122	1	380	0	2	2	0.0804	0.0538	0	1	0.336	10	82	82
122	1	381	1	1	3	0.0804	0.0538	1	1	0.471	88	0	82
122	1	382	1	2	3	0.0804	0.0538	0	1	0.372	98	0	0
122	1	383	1	1	3	0.0804	0.0538	1	1	0.431	92	0	82
122	1	384	0	1	1	0.0804	0.0538	1	1	0.566	8	82	0
122	1	385	9	2	3	0.0804	0.0538	0	1	0.473	0	0	0
122	1	386	0	1	1	0.0804	0.0538	0	1	0.578	8	82	82
122	1	387	0	1	1	0.0804	0.0538	1	1	0.460	9	82	0
122	1	388	1	2	3	0.0804	0.0538	1	0	0.588	0	82	0
122	1	389	0	2	3	0.0804	0.0538	0	1	0.702	6	82	82
122	1	390	1	2	3	0.0804	0.0538	1	0	0.682	0	82	0
122	1	391	0	2	3	0.0804	0.0538	1	1	0.928	5	0	82
122	1	392	1	2	2	0.0804	0.0538	1	1	0.539	81	82	0
122	1	393	0	2	3	0.0804	0.0538	0	1	0.543	8	82	82
122	1	394	1	2	1	0.0804	0.0538	0	1	1.091	50	0	0
122	1	395	9	2	3	0.0804	0.0538	1	1	0.856	0	82	0
122	1	396	0	2	3	0.0804	0.0538	0	1	0.416	9	82	82
122	1	397	9	1	1	0.0804	0.0538	0	1	0.527	0	82	82
122	1	398	1	2	3	0.0804	0.0538	0	1	0.421	93	0	0
122	1	399	1	1	1	0.0804	0.0538	0	1	0.493	86	0	0
122	1	400	1	1	1	0.0804	0.0538	0	1	0.381	97	0	0
122	1	401	0	1	1	0.0804	0.0538	1	1	0.487	9	82	0
122	1	402	1	1	1	0.0804	0.0538	1	1	0.405	94	0	82
122	1	403	9	1	1	0.0804	0.0538	1	1	0.472	0	0	82
122	1	404	0	1	2	0.0804	0.0538	0	1	0.568	8	82	82
122	1	405	0	1	3	0.0804	0.0538	0	1	0.362	10	82	82
122	1	406	0	2	3	0.0804	0.0538	0	1	0.564	8	82	82
122	1	407	1	1	1	0.0804	0.0538	1	1	0.415	93	0	82
122	1	408	0	1	1	0.0804	0.0538	0	0	0.951	0	82	82
122	1	409	0	2	1	0.0804	0.0538	1	0	0.492	0	0	82
122	1	410	0	2	3	0.0804	0.0538	0	1	0.449	9	82	82
122	1	411	0	1	3	0.0804	0.0538	1	1	0.713	6	82	0
122	1	412	1	1	3	0.0804	0.0538	1	1	0.430	92	0	82
122	1	413	1	2	3	0.0804	0.0538	1	1	0.422	93	82	0
122	1	414	0	2	2	0.0804	0.0538	1	1	0.535	8	0	82
122	1	415	9	2	3	0.0804	0.0538	0	0	0.394	0	82	82
122	1	416	1	1	3	0.0804	0.0538	0	1	0.628	72	0	0
122	1	417	0	1	3	0.0804	0.0538	0	1	0.491	9	82	82
122	1	418	1	2	3	0.0804	0.0538	1	0	0.559	0	82	0
122	1	419	9	1	2	0.0804	0.0538	1	1	0.603	0	0	82
122	1	420	1	1	1	0.0804	0.0538	1	0	0.349	0	0	82
122	1	421	1	2	1	0.0804	0.0538	0	1	1.138	50	0	0
122	1	422	1	2	2	0.0804	0.0538	1	1	0.796	55	82	0
122	1	423	9	2	2	0.0804	0.0538	1	1	0.727	0	0	82
122	1	424	1	2	3	0.0804	0.0538	1	1	1.347	50	82	0
122	1	425	1	2	2	0.0804	0.0538	0	1	0.460	89	0	0
122	1	426	1	2	3	0.0804	0.0538	0	1	0.394	96	0	0
122	1	427	1	1	1	0.0804	0.0538	1	0	0.569	0	0	82
122	1	428	1	1	1	0.0804	0.0538	1	1	0.422	93	0	82
122	1	429	0	2	2	0.0804	0.0538	1	1	0.646	7	0	82
122	1	430	1	2	3	0.0804	0.0538	0	1	0.471	88	0	0
122	1	431	0	2	2	0.0804	0.0538	0	1	0.483	9	82	82
122	1	432	1	2	1	0.0804	0.0538	1	0	0.922	0	82	0
122	1	433	0	1	3	0.0804	0.0538	0	0	0.781	0	82	82
122	1	434	1	2	3	0.0804	0.0538	1	1	0.521	83	82	0
122	1	435	1	1	1	0.0804	0.0538	0	1	0.334	100	0	0
122	1	436	1	2	2	0.0804	0.0538	0	1	0.487	86	0	0
122	1	437	9	2	3	0.0804	0.0538	0	1	0.455	0	0	0
122	1	438	0	2	2	0.0804	0.0538	1	0	0.493	0	0	82
122	1	439	0	2	3	0.0804	0.0538	0	1	0.538	8	82	82
122	1	440	9	2	3	0.0804	0.0538	1	0	0.469	0	0	82
122	1	441	0	1	3	0.0804	0.0538	1	1	0.423	9	82	0
122	1	442	1	2	3	0.0804	0.0538	0	0	0.704	0	0	0
122	1	443	0	2	1	0.0804	0.0538	1	0	0.420	0	0	82
122	1	444	1	1	3	0.0804	0.0538	1	1	0.454	90	0	82
122	1	445	1	1	3	0.0804	0.0538	0	1	0.356	99	0	0
122	1	446	0	1	3	0.0804	0.0538	0	1	0.415	9	82	82
122	1	447	0	1	3	0.0804	0.0538	1	0	0.840	0	82	0
122	1	448	0	2	3	0.0804	0.0538	1	1	0.568	8	0	82
122	1	449	1	1	1	0.0804	0.0538	0	1	0.649	70	0	0
122	1	450	9	2	1	0.0804	0.0538	0	0	0.607	0	0	0
122	1	451	0	2	3	0.0804	0.0538	1	1	0.727	6	0	82
122	1	452	1	2	3	0.0804	0.0538	1	1	0.634	72	82	0
122	1	453	0	1	1	0.0804	0.0538	1	1	0.728	6	82	0
122	1	454	1	1	1	0.0804	0.0538	0	1	0.356	99	0	0
122	1	455	9	1	1	0.0804	0.0538	0	1	0.424	0	82	82
122	1	456	1	1	1	0.0804	0.0538	1	1	0.482	87	0	82
122	1	457	1	2	2	0.0804	0.0538	0	1	0.559	79	0	0
122	1	458	0	2	3	0.0804	0.0538	1	1	0.760	6	0	82
122	1	459	1	2	2	0.0804	0.0538	1	1	0.612	74	82	0
122	1	460	1	2	2	0.0804	0.0538	1	0	0.604	0	82	0
122	1	461	9	2	2	0.0804	0.0538	0	1	0.463	0	0	0
122	1	462	1	2	3	0.0804	0.0538	1	1	0.598	75	82	0
122	1	463	0	1	2	0.0804	0.0538	1	1	0.662	7	82	0
122	1	464	1	1	1	0.0804	0.0538	1	1	0.421	93	0	82
122	1	465	1	1	1	0.0804	0.0538	1	1	0.373	98	0	82
122	1	466	0	1	2	0.0804	0.0538	1	1	0.631	7	82	0
122	1	467	0	2	3	0.0804	0.0538	0	1	0.406	9	82	82
122	1	468	1	1	1	0.0804	0.0538	0	1	0.526	82	0	0
122	1	469	1	1	3	0.0804	0.0538	1	1	0.706	64	0	82
122	1	470	0	2	2	0.0804	0.0538	0	1	0.368	10	82	82
122	1	471	9	1	3	0.0804	0.0538	1	1	0.483	0	0	82
122	1	472	9	1	1	0.0804	0.0538	0	1	0.407	0	82	82
122	1	473	0	2	3	0.0804	0.0538	1	0	0.481	0	0	82
122	1	474	0	2	2	0.0804	0.0538	0	1	0.585	8	82	82
122	1	475	1	1	3	0.0804	0.0538	1	1	0.440	91	0	82
122	1	476	0	2	2	0.0804	0.0538	1	1	0.506	8	0	82
122	1	477	0	1	1	0.0804	0.0538	0	1	0.431	9	82	82
122	1	478	0	2	2	0.0804	0.0538	0	1	0.568	8	82	82
122	1	479	1	2	1	0.0804	0.0538	1	1	1.233	50	82	0
122	1	480	9	2	3	0.0804	0.0538	1	1	0.713	0	82	0
122	1	481	1	1	3	0.0804	0.0538	0	1	0.366	98	0	0
122	1	482	9	1	3	0.0804	0.0538	0	1	0.511	0	82	82
122	1	483	0	1	1	0.0804	0.0538	0	1	0.486	9	82	82
122	1	484	9	1	1	0.0804	0.0538	1	1	0.516	0	82	0
122	1	485	1	2	2	0.0804	0.0538	1	0	0.617	0	82	0
122	1	486	1	1	1	0.0804	0.0538	1	1	0.451	90	0	82
122	1	487	1	1	1	0.0804	0.0538	1	1	0.380	97	0	82
122	1	488	9	2	2	0.0804	0.0538	1	1	0.558	0	82	0
122	1	489	1	1	3	0.0804	0.0538	0	1	0.512	84	0	0
122	1	490	1	2	2	0.0804	0.0538	1	1	0.543	81	82	0
122	1	491	0	2	3	0.0804	0.0538	1	0	0.435	0	0	82
122	1	492	1	1	1	0.0804	0.0538	1	1	0.420	93	0	82
122	1	493	9	1	3	0.0804	0.0538	0	1	0.555	0	0	0
122	1	494	9	1	1	0.0804	0.0538	0	1	0.432	0	0	0
122	1	495	9	1	2	0.0804	0.0538	0	1	0.616	0	0	0
122	1	496	1	2	2	0.0804	0.0538	1	1	0.595	76	82	0
122	1	497	9	2	3	0.0804	0.0538	0	1	0.484	0	82	82
122	1	498	9	2	2	0.0804	0.0538	1	1	0.498	0	0	82
122	1	499	9	2	3	0.0804	0.0538	1	0	0.823	0	0	82
122	1	500	1	2	2	0.0804	0.0538	0	1	0.503	85	0	0
122	1	501	9	1	3	0.0804	0.0538	1	1	0.491	0	0	82
122	1	502	1	2	1	0.0804	0.0538	1	1	0.648	70	82	0
122	1	503	9	1	1	0.0804	0.0538	1	1	0.417	0	0	82
122	1	504	1	2	3	0.0804	0.0538	1	0	0.602	0	82	0
122	1	505	0	1	1	0.0804	0.0538	0	1	0.531	8	82	82
122	1	506	1	1	2	0.0804	0.0538	1	1	0.694	66	0	82
122	1	507	1	1	3	0.0804	0.0538	1	1	0.403	95	0	82
122	1	508	1	2	2	0.0804	0.0538	1	0	0.564	0	82	0
122	1	509	0	1	1	0.0804	0.0538	0	1	0.535	8	82	82
122	1	510	1	2	2	0.0804	0.0538	0	1	0.556	79	0	0
122	1	511	0	1	3	0.0804	0.0538	1	1	0.504	8	82	0
122	1	512	0	2	2	0.0804	0.0538	1	1	0.540	8	0	82
122	1	513	1	2	2	0.0804	0.0538	1	0	0.487	0	82	0
122	1	514	0	2	2	0.0804	0.0538	1	1	0.740	6	0	82
122	1	515	9	1	3	0.0804	0.0538	1	1	0.465	0	0	82
122	1	516	1	1	3	0.0804	0.0538	1	1	0.478	87	0	82
122	1	517	1	1	3	0.0804	0.0538	0	1	0.717	63	0	0
122	1	518	1	2	1	0.0804	0.0538	1	1	0.810	54	82	0
122	1	519	0	1	3	0.0804	0.0538	0	1	0.596	8	82	82
122	1	520	0	1	1	0.0804	0.0538	1	1	0.423	9	82	0
122	1	521	0	2	3	0.0804	0.0538	0	1	0.414	9	82	82
122	1	522	0	2	2	0.0804	0.0538	0	1	0.431	9	82	82
122	1	523	0	2	2	0.0804	0.0538	0	1	0.382	10	82	82
122	1	524	1	2	2	0.0804	0.0538	1	1	0.648	70	82	0
122	1	525	0	1	3	0.0804	0.0538	1	1	0.608	7	82	0
122	1	526	0	2	3	0.0804	0.0538	1	1	0.451	9	0	82
122	1	527	9	1	1	0.0804	0.0538	1	1	0.328	0	82	0
122	1	528	1	1	1	0.0804	0.0538	0	0	0.549	0	0	0
122	1	529	1	1	1	0.0804	0.0538	0	1	0.449	90	0	0
122	1	530	0	1	3	0.0804	0.0538	1	1	0.655	7	82	0
122	1	531	0	1	2	0.0804	0.0538	1	1	0.470	9	82	0
122	1	532	1	2	3	0.0804	0.0538	0	1	0.804	55	0	0
122	1	533	1	2	2	0.0804	0.0538	0	1	0.436	91	0	0
122	1	534	1	2	3	0.0804	0.0538	0	1	0.467	88	0	0
122	1	535	1	1	1	0.0804	0.0538	0	1	0.498	85	0	0
122	1	536	9	1	3	0.0804	0.0538	1	1	0.544	0	0	82
122	1	537	1	2	3	0.0804	0.0538	0	1	0.370	98	0	0
122	1	538	9	2	3	0.0804	0.0538	1	0	0.427	0	82	0
122	1	539	9	1	3	0.0804	0.0538	0	1	0.522	0	82	82
122	1	540	9	2	2	0.0804	0.0538	1	1	0.566	0	0	82
122	1	541	9	2	3	0.0804	0.0538	1	0	0.472	0	82	0
122	1	542	0	2	2	0.0804	0.0538	1	1	0.615	7	0	82
122	1	543	9	1	1	0.0804	0.0538	1	1	0.399	0	82	0
122	1	544	0	1	3	0.0804	0.0538	1	1	0.634	7	82	0
122	1	545	0	2	3	0.0804	0.0538	0	1	0.497	9	82	82
122	1	546	1	1	1	0.0804	0.0538	0	1	0.470	88	0	0
122	1	547	0	2	2	0.0804	0.0538	1	1	0.548	8	0	82
122	1	548	1	1	2	0.0804	0.0538	0	1	1.018	50	0	0
122	1	549	1	1	3	0.0804	0.0538	0	1	0.435	92	0	0
122	1	550	1	1	1	0.0804	0.0538	1	1	0.459	89	0	82
122	1	551	0	2	2	0.0804	0.0538	1	0	0.483	0	0	82
122	1	552	0	2	2	0.0804	0.0538	0	1	0.488	9	82	82
122	1	553	0	1	3	0.0804	0.0538	0	1	0.462	9	82	82
122	1	554	0	1	3	0.0804	0.0538	1	1	0.572	8	82	0
122	1	555	0	1	1	0.0804	0.0538	0	1	0.447	9	82	82
122	1	556	9	1	2	0.0804	0.0538	1	1	0.391	0	82	0
122	1	557	0	2	3	0.0804	0.0538	1	1	0.759	6	0	82
122	1	558	1	2	3	0.0804	0.0538	1	0	0.508	0	82	0
122	1	559	0	2	3	0.0804	0.0538	0	1	0.619	7	82	82
122	1	560	9	1	1	0.0804	0.0538	1	1	0.707	0	0	82
122	1	561	0	2	3	0.0804	0.0538	0	1	0.428	9	82	82
122	1	562	0	2	3	0.0804	0.0538	0	1	0.421	9	82	82
122	1	563	0	1	3	0.0804	0.0538	1	1	0.708	6	82	0
122	1	564	0	2	2	0.0804	0.0538	1	0	0.553	0	0	82
122	1	565	9	2	2	0.0804	0.0538	0	1	0.602	0	82	82
122	1	566	0	1	1	0.0804	0.0538	0	1	0.555	8	82	82
122	1	567	1	1	3	0.0804	0.0538	0	1	0.381	97	0	0
122	1	568	0	2	2	0.0804	0.0538	0	1	0.456	9	82	82
122	1	569	9	2	3	0.0804	0.0538	1	1	0.641	0	0	82
122	1	570	1	1	1	0.0804	0.0538	1	1	0.464	89	0	82
122	1	571	0	2	2	0.0804	0.0538	1	1	0.415	9	0	82
122	1	572	0	1	3	0.0804	0.0538	0	1	0.678	7	82	82
122	1	573	1	2	3	0.0804	0.0538	0	1	0.643	71	0	0
122	1	574	0	1	3	0.0804	0.0538	0	1	0.444	9	82	82
122	1	575	1	1	1	0.0804	0.0538	1	1	0.445	90	0	82
122	1	576	9	1	1	0.0804	0.0538	0	1	0.366	0	0	0
122	1	577	9	1	1	0.0804	0.0538	1	1	0.352	0	82	0
122	1	578	9	2	2	0.0804	0.0538	1	1	0.812	0	82	0
122	1	579	1	1	1	0.0804	0.0538	0	1	0.491	86	0	0
122	1	580	1	1	3	0.0804	0.0538	1	1	0.609	74	0	82
122	1	581	1	1	3	0.0804	0.0538	0	1	0.378	97	0	0
122	1	582	1	2	2	0.0804	0.0538	0	1	0.421	93	0	0
122	1	583	0	2	2	0.0804	0.0538	0	1	0.415	9	82	82
122	1	584	9	1	1	0.0804	0.0538	0	1	0.400	0	0	0
122	1	585	1	1	3	0.0804	0.0538	0	1	0.298	100	0	0
122	1	586	9	1	3	0.0804	0.0538	0	1	0.344	0	0	0
122	1	587	9	1	1	0.0804	0.0538	0	1	0.371	0	0	0
122	1	588	0	1	1	0.0804	0.0538	0	1	0.333	10	82	82
122	1	589	0	1	3	0.0804	0.0538	0	1	0.559	8	82	82
122	1	590	9	1	3	0.0804	0.0538	1	0	0.485	0	82	0
122	1	591	9	2	3	0.0804	0.0538	0	1	0.778	0	0	0
122	1	592	1	2	2	0.0804	0.0538	0	1	0.501	85	0	0
122	1	593	1	2	3	0.0804	0.0538	1	0	0.434	0	82	0
122	1	594	0	1	2	0.0804	0.0538	0	1	0.553	8	82	82
122	1	595	0	1	1	0.0804	0.0538	1	1	0.562	8	82	0
122	1	596	0	2	3	0.0804	0.0538	0	1	0.477	9	82	82
122	1	597	0	2	1	0.0804	0.0538	0	1	0.413	9	82	82
122	1	598	0	2	2	0.0804	0.0538	1	1	0.951	5	0	82
122	1	599	0	2	3	0.0804	0.0538	1	0	0.826	0	0	82
122	1	600	1	1	3	0.0804	0.0538	1	1	0.403	95	0	82
122	1	601	9	1	3	0.0804	0.0538	0	1	0.449	0	82	82
122	1	602	0	1	3	0.0804	0.0538	1	1	0.521	8	82	0
122	1	603	0	1	3	0.0804	0.0538	1	1	0.655	7	82	0
122	1	604	1	1	1	0.0804	0.0538	0	1	0.496	85	0	0
122	1	605	0	1	1	0.0804	0.0538	1	1	0.496	9	82	0
122	1	606	1	2	3	0.0804	0.0538	0	1	0.476	87	0	0
122	1	607	1	1	1	0.0804	0.0538	0	1	0.408	94	0	0
122	1	608	0	2	3	0.0804	0.0538	1	0	0.754	0	0	82
122	1	609	0	2	2	0.0804	0.0538	0	1	0.494	9	82	82
122	1	610	0	1	2	0.0804	0.0538	0	1	0.437	9	82	82
122	1	611	9	2	2	0.0804	0.0538	1	1	0.885	0	0	82
122	1	612	1	2	1	0.0804	0.0538	0	1	0.978	50	0	0
122	1	613	0	1	1	0.0804	0.0538	1	1	0.515	8	82	0
122	1	614	1	1	3	0.0804	0.0538	1	1	0.959	50	0	82
122	1	615	1	2	3	0.0804	0.0538	0	1	0.611	74	0	0
122	1	616	0	1	3	0.0804	0.0538	0	1	0.428	9	82	82
122	1	617	0	1	1	0.0804	0.0538	1	1	0.475	9	82	0
122	1	618	9	1	3	0.0804	0.0538	1	1	0.440	0	82	0
122	1	619	1	2	3	0.0804	0.0538	0	1	0.462	89	0	0
122	1	620	0	1	3	0.0804	0.0538	1	1	0.486	9	82	0
122	1	621	9	1	2	0.0804	0.0538	0	1	0.458	0	82	82
122	1	622	9	1	3	0.0804	0.0538	0	1	0.457	0	82	82
122	1	623	0	2	1	0.0804	0.0538	0	1	0.394	10	82	82
122	1	624	0	1	1	0.0804	0.0538	1	0	0.411	0	82	0
122	1	625	1	1	2	0.0804	0.0538	0	0	0.556	0	0	0
122	1	626	0	1	1	0.0804	0.0538	0	1	0.352	10	82	82
122	1	627	0	1	3	0.0804	0.0538	1	1	0.450	9	82	0
122	1	628	0	2	2	0.0804	0.0538	1	1	0.544	8	0	82
122	1	629	9	2	3	0.0804	0.0538	0	1	0.443	0	82	82
122	1	630	0	2	3	0.0804	0.0538	0	1	0.436	9	82	82
122	1	631	0	1	1	0.0804	0.0538	1	1	0.460	9	82	0
122	1	632	1	2	3	0.0804	0.0538	1	1	1.042	50	82	0
122	1	633	9	2	2	0.0804	0.0538	0	1	0.489	0	82	82
122	1	634	1	2	3	0.0804	0.0538	1	1	0.433	92	82	0
122	1	635	1	2	3	0.0804	0.0538	1	1	0.409	94	82	0
122	1	636	0	1	2	0.0804	0.0538	0	1	0.482	9	82	82
122	1	637	0	1	3	0.0804	0.0538	0	1	0.401	9	82	82
122	1	638	0	2	3	0.0804	0.0538	0	1	0.730	6	82	82
122	1	639	1	1	2	0.0804	0.0538	0	1	0.453	90	0	0
122	1	640	0	2	2	0.0804	0.0538	1	0	0.452	0	0	82
122	1	641	9	2	3	0.0804	0.0538	0	1	0.517	0	82	82
122	1	642	9	2	1	0.0804	0.0538	1	1	0.425	0	82	0
122	1	643	0	1	1	0.0804	0.0538	1	1	0.471	9	82	0
122	1	644	1	1	3	0.0804	0.0538	1	1	0.437	91	0	82
122	1	645	0	1	2	0.0804	0.0538	1	1	0.540	8	82	0
122	1	646	0	1	3	0.0804	0.0538	0	0	0.464	0	82	82
122	1	647	9	2	3	0.0804	0.0538	0	1	0.608	0	0	0
122	1	648	0	2	3	0.0804	0.0538	1	0	0.665	0	0	82
122	1	649	9	2	1	0.0804	0.0538	0	1	0.599	0	82	82
122	1	650	1	2	2	0.0804	0.0538	0	1	0.465	88	0	0
122	1	651	1	1	3	0.0804	0.0538	1	1	0.446	90	0	82
122	1	652	1	2	3	0.0804	0.0538	0	1	0.470	88	0	0
122	1	653	0	1	3	0.0804	0.0538	1	1	1.278	5	82	0
122	1	654	0	2	1	0.0804	0.0538	1	1	0.932	5	0	82
122	1	655	0	2	2	0.0804	0.0538	0	1	0.418	9	82	82
122	1	656	0	2	3	0.0804	0.0538	1	1	0.633	7	0	82
122	1	657	1	2	2	0.0804	0.0538	0	1	0.570	78	0	0
122	1	658	0	1	3	0.0804	0.0538	0	1	0.388	10	82	82
122	1	659	1	1	3	0.0804	0.0538	0	0	0.940	0	0	0
122	1	660	9	2	2	0.0804	0.0538	0	1	0.448	0	0	0
122	1	661	1	1	1	0.0804	0.0538	1	1	0.446	90	0	82
122	1	662	1	1	3	0.0804	0.0538	0	1	0.398	95	0	0
122	1	663	1	2	2	0.0804	0.0538	0	1	0.464	89	0	0
122	1	664	1	1	2	0.0804	0.0538	1	1	0.382	97	0	82
122	1	665	1	2	2	0.0804	0.0538	0	1	0.417	93	0	0
122	1	666	1	2	2	0.0804	0.0538	1	0	0.484	0	82	0
122	1	667	0	2	3	0.0804	0.0538	1	0	0.402	0	0	82
122	1	668	1	1	3	0.0804	0.0538	1	1	0.442	91	0	82
122	1	669	9	1	3	0.0804	0.0538	1	0	0.882	0	82	0
122	1	670	0	2	2	0.0804	0.0538	1	1	0.513	8	0	82
122	1	671	0	1	1	0.0804	0.0538	0	1	0.581	8	82	82
122	1	672	1	2	2	0.0804	0.0538	1	1	0.367	98	82	0
122	1	673	1	1	3	0.0804	0.0538	0	1	0.384	97	0	0
122	1	674	1	2	2	0.0804	0.0538	0	1	0.676	67	0	0
122	1	675	0	1	3	0.0804	0.0538	1	1	0.512	8	82	0
122	1	676	1	2	3	0.0804	0.0538	0	1	0.332	100	0	0
122	1	677	1	1	2	0.0804	0.0538	0	1	0.592	76	0	0
122	1	678	1	1	3	0.0804	0.0538	0	1	0.346	100	0	0
122	1	679	0	2	3	0.0804	0.0538	1	0	0.533	0	0	82
122	1	680	0	1	3	0.0804	0.0538	1	1	0.577	8	82	0
122	1	681	9	1	1	0.0804	0.0538	0	1	0.348	0	82	82
122	1	682	1	2	3	0.0804	0.0538	1	1	0.526	82	82	0
122	1	683	0	1	3	0.0804	0.0538	0	0	0.500	0	82	82
122	1	684	1	2	2	0.0804	0.0538	1	0	0.777	0	82	0
122	1	685	1	2	2	0.0804	0.0538	1	1	0.354	100	82	0
122	1	686	9	2	1	0.0804	0.0538	1	0	0.534	0	0	82
122	1	687	9	1	1	0.0804	0.0538	1	1	0.435	0	0	82
122	1	688	1	1	2	0.0804	0.0538	1	1	0.813	54	0	82
122	1	689	0	2	1	0.0804	0.0538	0	1	0.612	7	82	82
122	1	690	1	2	3	0.0804	0.0538	0	1	0.639	71	0	0
122	1	691	9	2	2	0.0804	0.0538	0	1	0.648	0	0	0
122	1	692	0	2	2	0.0804	0.0538	0	1	0.423	9	82	82
122	1	693	1	1	1	0.0804	0.0538	1	1	0.305	100	0	82
122	1	694	0	1	1	0.0804	0.0538	0	1	0.391	10	82	82
122	1	695	1	1	1	0.0804	0.0538	0	1	0.377	97	0	0
122	1	696	0	1	1	0.0804	0.0538	0	1	0.290	10	82	82
122	1	697	0	1	1	0.0804	0.0538	0	1	0.352	10	82	82
122	1	698	0	2	1	0.0804	0.0538	0	1	0.348	10	82	82
122	1	699	0	2	2	0.0804	0.0538	1	0	0.335	0	0	82
122	1	700	1	2	2	0.0804	0.0538	0	1	0.458	89	0	0
122	1	701	0	2	3	0.0804	0.0538	1	0	0.398	0	0	82
122	1	702	1	2	2	0.0804	0.0538	1	0	0.440	0	82	0
122	1	703	1	1	3	0.0804	0.0538	0	1	0.830	52	0	0
122	1	704	9	2	2	0.0804	0.0538	0	1	0.464	0	0	0
122	1	705	9	2	2	0.0804	0.0538	0	1	0.408	0	82	82
122	1	706	1	1	2	0.0804	0.0538	1	1	0.617	73	0	82
122	1	707	1	2	1	0.0804	0.0538	0	1	0.443	91	0	0
122	1	708	1	1	3	0.0804	0.0538	0	1	0.451	90	0	0
122	1	709	1	1	3	0.0804	0.0538	1	1	0.449	90	0	82
122	1	710	1	1	1	0.0804	0.0538	0	1	0.395	96	0	0
122	1	711	0	1	1	0.0804	0.0538	1	1	0.523	8	82	0
122	1	712	9	2	2	0.0804	0.0538	0	1	0.350	0	82	82
122	1	713	9	1	3	0.0804	0.0538	1	0	0.531	0	82	0
122	1	714	9	2	2	0.0804	0.0538	1	0	0.455	0	82	0
122	1	715	1	1	1	0.0804	0.0538	0	1	0.527	82	0	0
122	1	716	0	1	3	0.0804	0.0538	0	1	0.461	9	82	82
122	1	717	0	2	1	0.0804	0.0538	1	0	0.395	0	0	82
122	1	718	0	1	1	0.0804	0.0538	1	1	0.429	9	82	0
122	1	719	0	2	2	0.0804	0.0538	0	1	0.380	10	82	82
122	1	720	1	2	3	0.0804	0.0538	1	1	0.415	94	82	0
