sub	sess	t	rew	loc	cue	co1	co2	or	resp	rt	rew_tot	left_col	right_col
123	1	1	9	1	3	0.1005	0.3541	1	0	1.551	0	0	82
123	1	2	1	1	3	0.1005	0.3541	0	1	1.025	50	82	82
123	1	3	0	2	2	0.1005	0.3541	0	1	0.601	7	0	0
123	1	4	1	1	1	0.1005	0.3541	1	1	0.890	50	82	0
123	1	5	0	1	1	0.1005	0.3541	1	0	0.761	0	0	82
123	1	6	9	2	3	0.1005	0.3541	0	1	0.915	0	0	0
123	1	7	0	2	2	0.1005	0.3541	0	1	0.592	8	0	0
123	1	8	0	1	1	0.1005	0.3541	0	0	1.011	0	0	0
123	1	9	0	2	2	0.1005	0.3541	1	1	0.580	8	82	0
123	1	10	1	1	1	0.1005	0.3541	1	0	0.958	0	82	0
123	1	11	1	2	1	0.1005	0.3541	1	1	0.744	61	0	82
123	1	12	0	2	2	0.1005	0.3541	1	1	0.653	7	82	0
123	1	13	0	1	3	0.1005	0.3541	1	0	1.259	0	0	82
123	1	14	0	1	1	0.1005	0.3541	0	1	0.763	6	0	0
123	1	15	9	1	3	0.1005	0.3541	0	1	0.710	0	0	0
123	1	16	0	2	1	0.1005	0.3541	1	1	1.008	5	82	0
123	1	17	0	2	3	0.1005	0.3541	1	1	0.728	6	82	0
123	1	18	0	1	1	0.1005	0.3541	1	0	0.692	0	0	82
123	1	19	9	2	3	0.1005	0.3541	0	1	0.866	0	82	82
123	1	20	0	2	3	0.1005	0.3541	0	1	0.624	7	0	0
123	1	21	0	2	3	0.1005	0.3541	1	1	1.005	5	82	0
123	1	22	0	2	2	0.1005	0.3541	1	1	0.782	6	82	0
123	1	23	1	1	2	0.1005	0.3541	1	1	1.015	50	82	0
123	1	24	1	2	2	0.1005	0.3541	1	1	0.726	62	0	82
123	1	25	0	1	3	0.1005	0.3541	1	0	0.747	0	0	82
123	1	26	9	2	3	0.1005	0.3541	1	1	0.589	0	0	82
123	1	27	0	2	3	0.1005	0.3541	0	1	0.535	8	0	0
123	1	28	9	2	3	0.1005	0.3541	1	0	0.914	0	0	82
123	1	29	1	1	3	0.1005	0.3541	0	1	0.725	62	82	82
123	1	30	1	1	1	0.1005	0.3541	0	1	0.649	70	82	82
123	1	31	0	1	3	0.1005	0.3541	0	1	0.638	7	0	0
123	1	32	0	2	2	0.1005	0.3541	1	1	0.654	7	82	0
123	1	33	9	2	3	0.1005	0.3541	1	1	0.815	0	0	82
123	1	34	0	1	1	0.1005	0.3541	0	1	0.656	7	0	0
123	1	35	0	2	2	0.1005	0.3541	1	1	0.863	5	82	0
123	1	36	0	1	3	0.1005	0.3541	0	1	0.717	6	0	0
123	1	37	0	2	2	0.1005	0.3541	0	1	1.020	5	0	0
123	1	38	0	2	3	0.1005	0.3541	0	1	0.548	8	0	0
123	1	39	1	2	3	0.1005	0.3541	1	1	0.726	62	0	82
123	1	40	1	2	2	0.1005	0.3541	0	1	0.515	84	82	82
123	1	41	1	2	3	0.1005	0.3541	0	1	0.792	56	82	82
123	1	42	0	1	1	0.1005	0.3541	0	1	0.754	6	0	0
123	1	43	9	2	3	0.1005	0.3541	1	1	1.429	0	82	0
123	1	44	1	2	1	0.1005	0.3541	0	1	1.269	50	82	82
123	1	45	1	2	1	0.1005	0.3541	0	1	0.445	91	82	82
123	1	46	1	2	3	0.1005	0.3541	0	1	0.526	82	82	82
123	1	47	1	1	1	0.1005	0.3541	1	1	0.690	66	82	0
123	1	48	9	1	3	0.1005	0.3541	0	1	0.480	0	0	0
123	1	49	1	1	3	0.1005	0.3541	1	1	0.613	74	82	0
123	1	50	0	1	3	0.1005	0.3541	1	1	0.571	8	0	82
123	1	51	1	1	3	0.1005	0.3541	1	1	0.496	85	82	0
123	1	52	0	1	3	0.1005	0.3541	1	1	0.757	6	0	82
123	1	53	0	2	3	0.1005	0.3541	1	1	1.056	5	82	0
123	1	54	9	2	3	0.1005	0.3541	0	1	0.542	0	0	0
123	1	55	1	2	2	0.1005	0.3541	1	1	0.561	79	0	82
123	1	56	0	1	1	0.1005	0.3541	0	1	3.019	5	0	0
123	1	57	0	1	3	0.1005	0.3541	1	0	1.309	0	0	82
123	1	58	1	1	1	0.1005	0.3541	0	1	0.852	50	82	82
123	1	59	1	1	3	0.1005	0.3541	1	0	0.930	0	82	0
123	1	60	1	2	2	0.1005	0.3541	0	1	0.630	72	82	82
123	1	61	0	1	3	0.1005	0.3541	0	1	0.540	8	0	0
123	1	62	0	1	1	0.1005	0.3541	0	1	0.626	7	0	0
123	1	63	0	1	3	0.1005	0.3541	1	0	0.673	0	0	82
123	1	64	9	2	1	0.1005	0.3541	0	1	0.543	0	0	0
123	1	65	0	1	1	0.1005	0.3541	1	1	0.754	6	0	82
123	1	66	1	1	1	0.1005	0.3541	0	1	0.597	75	82	82
123	1	67	1	2	3	0.1005	0.3541	0	1	0.917	50	82	82
123	1	68	0	1	3	0.1005	0.3541	1	1	0.513	8	0	82
123	1	69	1	2	2	0.1005	0.3541	0	1	0.828	52	82	82
123	1	70	1	2	3	0.1005	0.3541	0	1	0.532	82	82	82
123	1	71	0	1	1	0.1005	0.3541	1	1	0.682	7	0	82
123	1	72	0	1	1	0.1005	0.3541	1	0	0.862	0	0	82
123	1	73	1	2	3	0.1005	0.3541	1	1	0.580	77	0	82
123	1	74	1	1	3	0.1005	0.3541	0	1	1.086	50	82	82
123	1	75	0	1	3	0.1005	0.3541	0	1	0.803	5	0	0
123	1	76	0	1	1	0.1005	0.3541	0	1	0.596	8	0	0
123	1	77	9	2	3	0.1005	0.3541	0	1	0.588	0	0	0
123	1	78	0	1	2	0.1005	0.3541	0	1	0.648	7	0	0
123	1	79	1	2	3	0.1005	0.3541	1	0	1.198	0	0	82
123	1	80	0	2	3	0.1005	0.3541	1	1	0.637	7	82	0
123	1	81	1	2	2	0.1005	0.3541	0	1	0.549	80	82	82
123	1	82	0	2	3	0.1005	0.3541	0	1	0.544	8	0	0
123	1	83	1	2	2	0.1005	0.3541	0	1	0.467	88	82	82
123	1	84	9	2	2	0.1005	0.3541	1	1	0.825	0	82	0
123	1	85	1	2	2	0.1005	0.3541	0	1	0.522	83	82	82
123	1	86	0	2	2	0.1005	0.3541	1	1	6.928	5	82	0
123	1	87	9	2	2	0.1005	0.3541	0	1	1.197	0	82	82
123	1	88	1	2	2	0.1005	0.3541	1	1	1.128	50	0	82
123	1	89	9	2	2	0.1005	0.3541	0	1	0.466	0	0	0
123	1	90	0	2	3	0.1005	0.3541	0	1	0.624	7	0	0
123	1	91	1	2	3	0.1005	0.3541	0	1	0.498	85	82	82
123	1	92	0	1	3	0.1005	0.3541	0	1	0.782	6	0	0
123	1	93	0	2	1	0.1005	0.3541	0	1	0.417	9	0	0
123	1	94	0	2	3	0.1005	0.3541	0	1	0.355	10	0	0
123	1	95	9	2	2	0.1005	0.3541	0	1	0.368	0	82	82
123	1	96	1	1	1	0.1005	0.3541	1	1	0.722	63	82	0
123	1	97	0	2	3	0.1005	0.3541	0	1	0.444	9	0	0
123	1	98	0	2	1	0.1005	0.3541	1	1	1.060	5	82	0
123	1	99	9	1	3	0.1005	0.3541	1	1	1.228	0	82	0
123	1	100	1	2	3	0.1005	0.3541	0	1	0.773	58	82	82
123	1	101	9	2	3	0.1005	0.3541	0	1	0.772	0	82	82
123	1	102	1	2	3	0.1005	0.3541	0	1	0.609	74	82	82
123	1	103	1	1	1	0.1005	0.3541	1	1	0.769	58	82	0
123	1	104	1	1	1	0.1005	0.3541	0	1	1.020	50	82	82
123	1	105	1	2	2	0.1005	0.3541	1	1	1.079	50	0	82
123	1	106	1	1	2	0.1005	0.3541	0	1	0.803	55	82	82
123	1	107	9	1	1	0.1005	0.3541	0	1	1.084	0	82	82
123	1	108	0	1	2	0.1005	0.3541	0	1	1.066	5	0	0
123	1	109	0	2	1	0.1005	0.3541	1	1	0.758	6	82	0
123	1	110	1	1	1	0.1005	0.3541	1	0	5.249	0	82	0
123	1	111	0	1	3	0.1005	0.3541	0	1	0.825	5	0	0
123	1	112	1	2	3	0.1005	0.3541	0	1	2.315	50	82	82
123	1	113	0	1	1	0.1005	0.3541	0	1	36.079	5	0	0
123	1	114	0	1	3	0.1005	0.3541	1	0	0.917	0	0	82
123	1	115	1	2	2	0.1005	0.3541	0	1	0.874	50	82	82
123	1	116	1	1	3	0.1005	0.3541	1	1	0.963	50	82	0
123	1	117	0	1	3	0.1005	0.3541	1	1	1.439	5	0	82
123	1	118	0	2	2	0.1005	0.3541	1	1	2.030	5	82	0
123	1	119	0	2	2	0.1005	0.3541	0	1	1.302	5	0	0
123	1	120	0	2	1	0.1005	0.3541	1	0	16.355	0	82	0
123	1	121	0	2	3	0.1005	0.3541	0	1	0.767	6	0	0
123	1	122	1	2	3	0.1005	0.3541	0	1	0.531	82	82	82
123	1	123	0	2	2	0.1005	0.3541	0	1	0.497	9	0	0
123	1	124	0	2	3	0.1005	0.3541	0	1	0.357	10	0	0
123	1	125	1	2	3	0.1005	0.3541	1	1	0.879	50	0	82
123	1	126	1	2	3	0.1005	0.3541	1	1	1.181	50	0	82
123	1	127	9	1	3	0.1005	0.3541	0	1	1.174	0	82	82
123	1	128	0	1	3	0.1005	0.3541	1	1	0.767	6	0	82
123	1	129	1	2	3	0.1005	0.3541	0	1	0.922	50	82	82
123	1	130	1	2	2	0.1005	0.3541	0	1	0.798	55	82	82
123	1	131	0	2	2	0.1005	0.3541	1	1	1.054	5	82	0
123	1	132	1	2	3	0.1005	0.3541	0	1	1.023	50	82	82
123	1	133	9	2	2	0.1005	0.3541	0	1	0.809	0	0	0
123	1	134	1	2	2	0.1005	0.3541	0	1	0.697	65	82	82
123	1	135	1	1	3	0.1005	0.3541	1	0	1.390	0	82	0
123	1	136	0	2	2	0.1005	0.3541	1	1	0.792	6	82	0
123	1	137	9	2	1	0.1005	0.3541	1	1	0.887	0	0	82
123	1	138	9	2	3	0.1005	0.3541	1	1	1.053	0	82	0
123	1	139	1	2	3	0.1005	0.3541	1	0	22.691	0	0	82
123	1	140	0	2	2	0.1005	0.3541	1	1	0.769	6	82	0
123	1	141	0	2	3	0.1005	0.3541	0	1	0.859	5	0	0
123	1	142	1	2	2	0.1005	0.3541	1	1	0.739	61	0	82
123	1	143	1	2	2	0.1005	0.3541	0	1	0.455	90	82	82
123	1	144	0	2	3	0.1005	0.3541	1	1	0.542	8	82	0
123	1	145	1	2	3	0.1005	0.3541	0	1	0.440	91	82	82
123	1	146	1	1	2	0.1005	0.3541	0	1	0.752	60	82	82
123	1	147	9	2	2	0.1005	0.3541	1	1	0.844	0	0	82
123	1	148	9	1	1	0.1005	0.3541	0	1	0.997	0	0	0
123	1	149	9	2	3	0.1005	0.3541	1	1	1.029	0	82	0
123	1	150	9	1	3	0.1005	0.3541	1	1	1.422	0	0	82
123	1	151	9	2	2	0.1005	0.3541	0	1	0.958	0	82	82
123	1	152	0	1	3	0.1005	0.3541	0	1	2.282	5	0	0
123	1	153	1	2	2	0.1005	0.3541	1	1	1.545	50	0	82
123	1	154	0	1	3	0.1005	0.3541	0	1	0.972	5	0	0
123	1	155	0	1	3	0.1005	0.3541	1	1	1.501	5	0	82
123	1	156	1	2	2	0.1005	0.3541	0	1	1.204	50	82	82
123	1	157	0	2	3	0.1005	0.3541	0	1	113.087	5	0	0
123	1	158	0	1	1	0.1005	0.3541	0	0	1.306	0	0	0
123	1	159	0	1	3	0.1005	0.3541	1	0	0.804	0	0	82
123	1	160	9	1	1	0.1005	0.3541	1	1	0.902	0	82	0
123	1	161	1	1	3	0.1005	0.3541	1	1	1.174	50	82	0
123	1	162	0	1	1	0.1005	0.3541	1	1	0.791	6	0	82
123	1	163	0	1	2	0.1005	0.3541	1	0	0.632	0	0	82
123	1	164	9	1	1	0.1005	0.3541	1	1	0.470	0	82	0
123	1	165	0	2	1	0.1005	0.3541	0	1	0.398	10	0	0
123	1	166	0	2	1	0.1005	0.3541	0	1	0.326	10	0	0
123	1	167	0	2	3	0.1005	0.3541	1	1	0.618	7	82	0
123	1	168	0	2	2	0.1005	0.3541	0	1	0.369	10	0	0
123	1	169	1	2	2	0.1005	0.3541	1	0	0.301	0	0	82
123	1	170	0	2	2	0.1005	0.3541	0	1	0.628	7	0	0
123	1	171	9	1	2	0.1005	0.3541	0	1	1.180	0	82	82
123	1	172	0	2	3	0.1005	0.3541	1	1	0.807	5	82	0
123	1	173	9	1	1	0.1005	0.3541	0	1	0.520	0	0	0
123	1	174	0	1	1	0.1005	0.3541	1	1	0.814	5	0	82
123	1	175	1	2	1	0.1005	0.3541	0	1	0.512	84	82	82
123	1	176	0	1	1	0.1005	0.3541	0	0	0.660	0	0	0
123	1	177	1	1	1	0.1005	0.3541	0	1	0.572	78	82	82
123	1	178	1	1	1	0.1005	0.3541	1	1	1.015	50	82	0
123	1	179	0	1	1	0.1005	0.3541	1	1	0.648	7	0	82
123	1	180	1	2	3	0.1005	0.3541	1	1	0.872	50	0	82
123	1	181	1	1	3	0.1005	0.3541	0	1	0.857	50	82	82
123	1	182	1	2	3	0.1005	0.3541	1	1	0.823	53	0	82
123	1	183	1	2	1	0.1005	0.3541	1	1	0.769	58	0	82
123	1	184	0	1	2	0.1005	0.3541	1	1	1.003	5	0	82
123	1	185	0	2	3	0.1005	0.3541	1	0	0.563	0	82	0
123	1	186	1	1	2	0.1005	0.3541	0	1	1.020	50	82	82
123	1	187	0	1	1	0.1005	0.3541	0	1	0.733	6	0	0
123	1	188	9	1	2	0.1005	0.3541	1	1	0.610	0	0	82
123	1	189	0	1	1	0.1005	0.3541	1	1	0.729	6	0	82
123	1	190	1	1	1	0.1005	0.3541	1	1	0.557	79	82	0
123	1	191	0	2	2	0.1005	0.3541	0	1	0.675	7	0	0
123	1	192	0	1	1	0.1005	0.3541	1	1	0.512	8	0	82
123	1	193	1	1	3	0.1005	0.3541	1	1	22.367	50	82	0
123	1	194	1	2	2	0.1005	0.3541	0	1	0.849	50	82	82
123	1	195	9	1	3	0.1005	0.3541	1	1	0.688	0	82	0
123	1	196	0	2	2	0.1005	0.3541	1	1	1.352	5	82	0
123	1	197	1	2	1	0.1005	0.3541	0	1	0.541	81	82	82
123	1	198	0	1	3	0.1005	0.3541	0	1	0.601	7	0	0
123	1	199	1	1	3	0.1005	0.3541	1	1	1.267	50	82	0
123	1	200	1	2	2	0.1005	0.3541	0	1	0.515	83	82	82
123	1	201	1	2	3	0.1005	0.3541	0	1	0.964	50	82	82
123	1	202	0	1	1	0.1005	0.3541	1	1	0.576	8	0	82
123	1	203	0	1	1	0.1005	0.3541	1	1	1.386	5	0	82
123	1	204	9	1	2	0.1005	0.3541	1	1	0.750	0	82	0
123	1	205	0	1	1	0.1005	0.3541	1	1	0.521	8	0	82
123	1	206	1	2	2	0.1005	0.3541	1	1	0.935	50	0	82
123	1	207	1	1	2	0.1005	0.3541	1	0	0.797	0	82	0
123	1	208	1	1	3	0.1005	0.3541	0	0	0.567	0	82	82
123	1	209	1	1	3	0.1005	0.3541	0	1	0.690	66	82	82
123	1	210	0	2	2	0.1005	0.3541	0	1	0.793	6	0	0
123	1	211	0	2	3	0.1005	0.3541	1	1	0.642	7	82	0
123	1	212	9	1	3	0.1005	0.3541	0	1	0.619	0	0	0
123	1	213	1	1	1	0.1005	0.3541	0	0	0.581	0	82	82
123	1	214	9	1	3	0.1005	0.3541	0	1	0.425	0	0	0
123	1	215	1	2	3	0.1005	0.3541	1	0	0.401	0	0	82
123	1	216	1	1	1	0.1005	0.3541	1	1	0.524	83	82	0
123	1	217	9	1	3	0.1005	0.3541	1	1	0.592	0	0	82
123	1	218	1	1	1	0.1005	0.3541	1	1	0.514	84	82	0
123	1	219	9	1	3	0.1005	0.3541	1	1	0.584	0	82	0
123	1	220	1	2	3	0.1005	0.3541	1	1	1.019	50	0	82
123	1	221	0	1	1	0.1005	0.3541	0	1	0.937	5	0	0
123	1	222	1	1	3	0.1005	0.3541	0	1	0.677	67	82	82
123	1	223	1	2	2	0.1005	0.3541	0	1	0.675	68	82	82
123	1	224	0	1	2	0.1005	0.3541	0	1	1.194	5	0	0
123	1	225	0	1	3	0.1005	0.3541	0	1	0.522	8	0	0
123	1	226	1	1	3	0.1005	0.3541	0	1	0.472	88	82	82
123	1	227	1	1	3	0.1005	0.3541	1	1	1.112	50	82	0
123	1	228	9	2	3	0.1005	0.3541	1	0	2.037	0	82	0
123	1	229	9	2	2	0.1005	0.3541	1	1	0.652	0	82	0
123	1	230	1	1	1	0.1005	0.3541	1	1	0.931	50	82	0
123	1	231	9	2	2	0.1005	0.3541	1	1	0.791	0	0	82
123	1	232	1	1	3	0.1005	0.3541	0	0	1.289	0	82	82
123	1	233	1	1	2	0.1005	0.3541	1	1	0.728	62	82	0
123	1	234	1	1	2	0.1005	0.3541	1	1	0.660	69	82	0
123	1	235	0	2	3	0.1005	0.3541	1	1	0.867	5	82	0
123	1	236	1	1	3	0.1005	0.3541	0	1	1.033	50	82	82
123	1	237	1	1	1	0.1005	0.3541	0	1	0.939	50	82	82
123	1	238	1	2	2	0.1005	0.3541	1	1	0.814	54	0	82
123	1	239	9	1	3	0.1005	0.3541	0	1	1.261	0	82	82
123	1	240	0	2	3	0.1005	0.3541	0	1	0.539	8	0	0
123	1	241	1	1	3	0.1005	0.3541	0	1	0.683	67	82	82
123	1	242	9	2	2	0.1005	0.3541	1	1	0.714	0	0	82
123	1	243	0	2	2	0.1005	0.3541	1	1	0.767	6	82	0
123	1	244	9	1	1	0.1005	0.3541	1	0	0.879	0	82	0
123	1	245	0	1	2	0.1005	0.3541	1	1	4.126	5	0	82
123	1	246	0	2	3	0.1005	0.3541	0	1	0.626	7	0	0
123	1	247	9	2	3	0.1005	0.3541	1	1	0.604	0	0	82
123	1	248	1	1	1	0.1005	0.3541	0	1	0.795	55	82	82
123	1	249	9	2	1	0.1005	0.3541	0	1	0.589	0	82	82
123	1	250	0	2	3	0.1005	0.3541	1	1	0.741	6	82	0
123	1	251	1	2	1	0.1005	0.3541	1	1	0.537	81	0	82
123	1	252	0	2	2	0.1005	0.3541	1	1	0.540	8	82	0
123	1	253	1	2	3	0.1005	0.3541	1	1	0.609	74	0	82
123	1	254	1	2	2	0.1005	0.3541	1	1	0.535	81	0	82
123	1	255	1	1	1	0.1005	0.3541	0	0	2.194	0	82	82
123	1	256	9	2	2	0.1005	0.3541	0	1	0.540	0	0	0
123	1	257	9	2	3	0.1005	0.3541	0	1	0.649	0	82	82
123	1	258	1	2	3	0.1005	0.3541	0	1	0.473	88	82	82
123	1	259	9	1	1	0.1005	0.3541	0	1	1.345	0	82	82
123	1	260	0	1	2	0.1005	0.3541	1	1	0.997	5	0	82
123	1	261	9	1	1	0.1005	0.3541	1	0	1.407	0	82	0
123	1	262	1	2	3	0.1005	0.3541	1	1	0.817	53	0	82
123	1	263	0	1	3	0.1005	0.3541	0	1	0.882	5	0	0
123	1	264	0	1	1	0.1005	0.3541	0	1	2.166	5	0	0
123	1	265	0	2	3	0.1005	0.3541	1	1	0.538	8	82	0
123	1	266	1	1	1	0.1005	0.3541	1	0	0.798	0	82	0
123	1	267	9	1	1	0.1005	0.3541	0	1	0.638	0	0	0
123	1	268	1	1	3	0.1005	0.3541	1	0	0.839	0	82	0
123	1	269	1	1	3	0.1005	0.3541	0	1	2.206	50	82	82
123	1	270	0	2	1	0.1005	0.3541	0	1	0.529	8	0	0
123	1	271	1	1	3	0.1005	0.3541	1	0	0.661	0	82	0
123	1	272	0	2	3	0.1005	0.3541	0	0	0.475	0	0	0
123	1	273	0	2	3	0.1005	0.3541	1	0	0.746	0	82	0
123	1	274	1	2	2	0.1005	0.3541	0	1	0.615	73	82	82
123	1	275	0	2	2	0.1005	0.3541	0	1	0.536	8	0	0
123	1	276	0	1	3	0.1005	0.3541	0	0	1.029	0	0	0
123	1	277	0	2	2	0.1005	0.3541	1	0	5.127	0	82	0
123	1	278	1	1	3	0.1005	0.3541	1	1	1.201	50	82	0
123	1	279	9	1	1	0.1005	0.3541	1	1	1.553	0	0	82
123	1	280	0	2	3	0.1005	0.3541	1	1	1.070	5	82	0
123	1	281	1	2	2	0.1005	0.3541	1	1	0.958	50	0	82
123	1	282	9	1	1	0.1005	0.3541	1	1	0.970	0	0	82
123	1	283	1	1	3	0.1005	0.3541	1	1	0.835	51	82	0
123	1	284	0	2	2	0.1005	0.3541	1	1	0.804	5	82	0
123	1	285	9	2	2	0.1005	0.3541	1	1	0.663	0	0	82
123	1	286	1	1	3	0.1005	0.3541	0	1	1.933	50	82	82
123	1	287	9	1	1	0.1005	0.3541	0	0	0.929	0	82	82
123	1	288	0	1	1	0.1005	0.3541	0	0	1.127	0	0	0
123	1	289	1	1	3	0.1005	0.3541	1	0	0.795	0	82	0
123	1	290	0	2	3	0.1005	0.3541	1	1	0.531	8	82	0
123	1	291	0	1	3	0.1005	0.3541	0	1	1.021	5	0	0
123	1	292	0	2	2	0.1005	0.3541	1	1	0.613	7	82	0
123	1	293	1	1	1	0.1005	0.3541	1	1	0.836	51	82	0
123	1	294	1	1	3	0.1005	0.3541	1	1	0.811	54	82	0
123	1	295	0	2	2	0.1005	0.3541	0	1	0.998	5	0	0
123	1	296	0	2	3	0.1005	0.3541	0	1	0.718	6	0	0
123	1	297	0	1	3	0.1005	0.3541	1	0	1.699	0	0	82
123	1	298	9	1	3	0.1005	0.3541	1	1	1.032	0	82	0
123	1	299	9	2	2	0.1005	0.3541	1	0	0.984	0	82	0
123	1	300	1	1	1	0.1005	0.3541	0	1	1.353	50	82	82
123	1	301	1	2	3	0.1005	0.3541	0	1	0.756	59	82	82
123	1	302	0	1	3	0.1005	0.3541	0	1	0.913	5	0	0
123	1	303	9	1	1	0.1005	0.3541	1	1	0.791	0	0	82
123	1	304	0	2	2	0.1005	0.3541	0	1	0.570	8	0	0
123	1	305	1	2	2	0.1005	0.3541	1	1	0.788	56	0	82
123	1	306	0	1	3	0.1005	0.3541	1	1	0.983	5	0	82
123	1	307	1	1	1	0.1005	0.3541	0	1	1.217	50	82	82
123	1	308	0	2	2	0.1005	0.3541	0	1	0.712	6	0	0
123	1	309	1	1	2	0.1005	0.3541	0	0	1.364	0	82	82
123	1	310	0	1	1	0.1005	0.3541	0	1	0.744	6	0	0
123	1	311	0	2	3	0.1005	0.3541	0	1	0.707	6	0	0
123	1	312	9	2	1	0.1005	0.3541	1	1	0.647	0	82	0
123	1	313	0	1	1	0.1005	0.3541	1	1	1.239	5	0	82
123	1	314	1	1	1	0.1005	0.3541	0	1	0.904	50	82	82
123	1	315	1	2	2	0.1005	0.3541	1	1	0.821	53	0	82
123	1	316	9	1	1	0.1005	0.3541	1	1	0.996	0	0	82
123	1	317	9	1	1	0.1005	0.3541	0	1	1.108	0	0	0
123	1	318	1	2	3	0.1005	0.3541	1	1	1.170	50	0	82
123	1	319	9	2	3	0.1005	0.3541	0	1	0.813	0	82	82
123	1	320	0	2	2	0.1005	0.3541	0	1	0.517	8	0	0
123	1	321	1	1	1	0.1005	0.3541	1	0	2.810	0	82	0
123	1	322	1	2	3	0.1005	0.3541	1	1	0.724	63	0	82
123	1	323	1	1	1	0.1005	0.3541	1	1	1.282	50	82	0
123	1	324	1	1	1	0.1005	0.3541	1	0	1.087	0	82	0
123	1	325	1	2	2	0.1005	0.3541	1	1	0.750	60	0	82
123	1	326	1	2	3	0.1005	0.3541	1	0	0.579	0	0	82
123	1	327	1	1	3	0.1005	0.3541	0	1	1.012	50	82	82
123	1	328	9	1	1	0.1005	0.3541	0	1	0.830	0	82	82
123	1	329	1	2	3	0.1005	0.3541	0	1	0.656	69	82	82
123	1	330	0	2	2	0.1005	0.3541	0	1	0.567	8	0	0
123	1	331	0	2	3	0.1005	0.3541	1	0	1.779	0	82	0
123	1	332	1	1	1	0.1005	0.3541	0	1	1.022	50	82	82
123	1	333	1	1	1	0.1005	0.3541	0	1	0.879	50	82	82
123	1	334	0	1	3	0.1005	0.3541	1	0	4.159	0	0	82
123	1	335	0	1	3	0.1005	0.3541	1	1	1.059	5	0	82
123	1	336	1	1	1	0.1005	0.3541	0	1	0.932	50	82	82
123	1	337	0	1	1	0.1005	0.3541	1	0	1.790	0	0	82
123	1	338	1	2	2	0.1005	0.3541	1	1	0.775	58	0	82
123	1	339	9	1	3	0.1005	0.3541	0	1	1.008	0	82	82
123	1	340	9	2	2	0.1005	0.3541	0	1	1.199	0	0	0
123	1	341	9	2	2	0.1005	0.3541	0	1	0.697	0	82	82
123	1	342	0	1	1	0.1005	0.3541	0	1	0.936	5	0	0
123	1	343	0	1	3	0.1005	0.3541	0	1	0.626	7	0	0
123	1	344	0	1	3	0.1005	0.3541	0	1	0.466	9	0	0
123	1	345	0	2	2	0.1005	0.3541	0	1	0.427	9	0	0
123	1	346	0	1	1	0.1005	0.3541	1	1	0.723	6	0	82
123	1	347	1	1	3	0.1005	0.3541	0	1	0.719	63	82	82
123	1	348	9	2	3	0.1005	0.3541	0	1	0.716	0	0	0
123	1	349	1	2	3	0.1005	0.3541	1	0	0.944	0	0	82
123	1	350	1	1	3	0.1005	0.3541	0	1	0.611	74	82	82
123	1	351	1	1	1	0.1005	0.3541	0	1	0.953	50	82	82
123	1	352	0	1	2	0.1005	0.3541	0	1	0.573	8	0	0
123	1	353	9	1	3	0.1005	0.3541	1	1	0.919	0	0	82
123	1	354	9	1	3	0.1005	0.3541	0	1	0.685	0	82	82
123	1	355	9	2	2	0.1005	0.3541	1	1	1.386	0	82	0
123	1	356	1	1	3	0.1005	0.3541	1	1	0.981	50	82	0
123	1	357	9	1	2	0.1005	0.3541	0	1	0.855	0	0	0
123	1	358	1	2	1	0.1005	0.3541	1	1	1.028	50	0	82
123	1	359	1	2	2	0.1005	0.3541	0	1	0.579	77	82	82
123	1	360	1	2	2	0.1005	0.3541	1	1	0.773	58	0	82
123	1	361	1	1	3	0.1005	0.3541	1	0	0.593	0	82	0
123	1	362	0	2	2	0.1005	0.3541	0	1	0.546	8	0	0
123	1	363	1	1	1	0.1005	0.3541	1	1	0.719	63	82	0
123	1	364	0	1	3	0.1005	0.3541	0	1	0.662	7	0	0
123	1	365	1	1	1	0.1005	0.3541	1	1	0.598	75	82	0
123	1	366	1	2	3	0.1005	0.3541	1	0	0.537	0	0	82
123	1	367	1	2	3	0.1005	0.3541	0	1	0.459	89	82	82
123	1	368	9	1	1	0.1005	0.3541	0	0	1.153	0	0	0
123	1	369	0	1	1	0.1005	0.3541	1	1	0.899	5	0	82
123	1	370	1	2	2	0.1005	0.3541	1	1	0.689	66	0	82
123	1	371	0	1	1	0.1005	0.3541	0	1	0.832	5	0	0
123	1	372	1	1	3	0.1005	0.3541	0	1	0.711	64	82	82
123	1	373	1	1	3	0.1005	0.3541	1	1	0.620	73	82	0
123	1	374	1	2	3	0.1005	0.3541	0	1	0.787	56	82	82
123	1	375	1	2	2	0.1005	0.3541	0	1	0.580	77	82	82
123	1	376	1	2	3	0.1005	0.3541	1	1	0.869	50	0	82
123	1	377	1	1	3	0.1005	0.3541	0	1	1.149	50	82	82
123	1	378	1	2	3	0.1005	0.3541	0	1	0.650	70	82	82
123	1	379	1	1	3	0.1005	0.3541	1	1	0.920	50	82	0
123	1	380	0	1	1	0.1005	0.3541	1	1	0.750	6	0	82
123	1	381	9	2	3	0.1005	0.3541	1	1	0.971	0	0	82
123	1	382	1	1	3	0.1005	0.3541	0	1	0.804	55	82	82
123	1	383	0	2	3	0.1005	0.3541	0	1	0.823	5	0	0
123	1	384	1	1	2	0.1005	0.3541	0	1	1.008	50	82	82
123	1	385	1	2	1	0.1005	0.3541	0	1	0.722	63	82	82
123	1	386	0	1	1	0.1005	0.3541	1	1	0.942	5	0	82
123	1	387	1	1	1	0.1005	0.3541	0	1	0.770	58	82	82
123	1	388	0	2	2	0.1005	0.3541	0	1	0.831	5	0	0
123	1	389	1	1	1	0.1005	0.3541	1	1	0.798	55	82	0
123	1	390	1	1	1	0.1005	0.3541	1	1	0.856	50	82	0
123	1	391	1	1	3	0.1005	0.3541	1	1	0.736	61	82	0
123	1	392	1	1	1	0.1005	0.3541	0	1	0.557	79	82	82
123	1	393	9	1	3	0.1005	0.3541	0	1	0.968	0	0	0
123	1	394	9	2	2	0.1005	0.3541	0	1	0.714	0	82	82
123	1	395	1	1	2	0.1005	0.3541	0	0	1.400	0	82	82
123	1	396	9	1	2	0.1005	0.3541	1	0	0.896	0	0	82
123	1	397	0	1	1	0.1005	0.3541	1	1	0.932	5	0	82
123	1	398	9	2	3	0.1005	0.3541	0	1	0.833	0	82	82
123	1	399	0	1	3	0.1005	0.3541	0	1	0.978	5	0	0
123	1	400	0	2	1	0.1005	0.3541	1	1	1.210	5	82	0
123	1	401	9	1	1	0.1005	0.3541	0	1	1.260	0	82	82
123	1	402	0	2	2	0.1005	0.3541	1	1	0.618	7	82	0
123	1	403	1	2	3	0.1005	0.3541	0	1	0.795	55	82	82
123	1	404	0	1	3	0.1005	0.3541	0	1	1.141	5	0	0
123	1	405	1	1	1	0.1005	0.3541	0	1	0.887	50	82	82
123	1	406	1	1	1	0.1005	0.3541	1	1	1.166	50	82	0
123	1	407	9	1	2	0.1005	0.3541	1	1	0.640	0	82	0
123	1	408	0	1	3	0.1005	0.3541	0	1	0.720	6	0	0
123	1	409	9	2	2	0.1005	0.3541	1	1	0.790	0	82	0
123	1	410	1	2	2	0.1005	0.3541	0	1	0.600	75	82	82
123	1	411	9	2	3	0.1005	0.3541	1	1	0.737	0	0	82
123	1	412	0	1	1	0.1005	0.3541	1	1	1.332	5	0	82
123	1	413	9	1	3	0.1005	0.3541	1	1	1.055	0	0	82
123	1	414	0	1	1	0.1005	0.3541	0	0	0.696	0	0	0
123	1	415	0	1	3	0.1005	0.3541	0	1	1.051	5	0	0
123	1	416	1	1	3	0.1005	0.3541	1	1	1.051	50	82	0
123	1	417	0	1	3	0.1005	0.3541	0	1	0.697	7	0	0
123	1	418	0	2	3	0.1005	0.3541	1	0	2.503	0	82	0
123	1	419	1	1	1	0.1005	0.3541	0	1	0.853	50	82	82
123	1	420	1	2	3	0.1005	0.3541	1	0	0.602	0	0	82
123	1	421	1	1	2	0.1005	0.3541	0	1	1.032	50	82	82
123	1	422	1	1	3	0.1005	0.3541	0	1	0.632	72	82	82
123	1	423	0	1	3	0.1005	0.3541	1	1	0.959	5	0	82
123	1	424	9	2	3	0.1005	0.3541	1	0	0.635	0	0	82
123	1	425	0	2	2	0.1005	0.3541	0	1	0.683	7	0	0
123	1	426	0	2	3	0.1005	0.3541	1	1	0.728	6	82	0
123	1	427	1	2	3	0.1005	0.3541	0	1	0.635	71	82	82
123	1	428	0	1	3	0.1005	0.3541	0	1	0.970	5	0	0
123	1	429	9	1	1	0.1005	0.3541	1	1	0.735	0	82	0
123	1	430	1	2	1	0.1005	0.3541	0	1	0.652	70	82	82
123	1	431	9	2	3	0.1005	0.3541	0	1	0.627	0	0	0
123	1	432	9	1	3	0.1005	0.3541	0	1	1.083	0	0	0
123	1	433	1	2	2	0.1005	0.3541	0	1	1.057	50	82	82
123	1	434	0	2	2	0.1005	0.3541	1	1	4.353	5	82	0
123	1	435	9	1	1	0.1005	0.3541	0	1	0.820	0	0	0
123	1	436	9	2	2	0.1005	0.3541	1	1	0.652	0	0	82
123	1	437	0	2	1	0.1005	0.3541	1	0	4.500	0	82	0
123	1	438	1	1	2	0.1005	0.3541	1	1	0.986	50	82	0
123	1	439	0	2	1	0.1005	0.3541	1	1	0.901	5	82	0
123	1	440	9	2	2	0.1005	0.3541	0	0	0.986	0	82	82
123	1	441	0	2	3	0.1005	0.3541	0	1	3.668	5	0	0
123	1	442	1	1	3	0.1005	0.3541	0	1	0.387	96	82	82
123	1	443	1	1	3	0.1005	0.3541	1	0	3.973	0	82	0
123	1	444	0	2	2	0.1005	0.3541	0	1	1.023	5	0	0
123	1	445	1	2	2	0.1005	0.3541	1	1	0.801	55	0	82
123	1	446	0	1	3	0.1005	0.3541	1	0	0.612	0	0	82
123	1	447	0	2	2	0.1005	0.3541	0	0	0.076	0	0	0
123	1	448	9	1	1	0.1005	0.3541	0	1	3.972	0	0	0
123	1	449	9	2	2	0.1005	0.3541	0	1	0.935	0	0	0
123	1	450	0	1	3	0.1005	0.3541	0	1	6.427	5	0	0
123	1	451	9	2	3	0.1005	0.3541	1	0	0.825	0	82	0
123	1	452	1	1	3	0.1005	0.3541	1	0	0.889	0	82	0
123	1	453	1	1	3	0.1005	0.3541	1	0	0.745	0	82	0
123	1	454	0	1	3	0.1005	0.3541	1	1	0.741	6	0	82
123	1	455	1	1	2	0.1005	0.3541	1	0	0.641	0	82	0
123	1	456	9	2	3	0.1005	0.3541	0	1	0.857	0	0	0
123	1	457	0	1	2	0.1005	0.3541	1	1	0.962	5	0	82
123	1	458	9	1	3	0.1005	0.3541	1	0	1.013	0	0	82
123	1	459	0	1	3	0.1005	0.3541	0	1	0.606	7	0	0
123	1	460	0	2	2	0.1005	0.3541	1	1	1.056	5	82	0
123	1	461	9	2	2	0.1005	0.3541	0	1	5.039	0	0	0
123	1	462	1	2	2	0.1005	0.3541	0	1	0.525	82	82	82
123	1	463	1	2	3	0.1005	0.3541	0	1	0.986	50	82	82
123	1	464	0	1	1	0.1005	0.3541	0	1	0.470	9	0	0
123	1	465	9	2	3	0.1005	0.3541	1	1	0.938	0	0	82
123	1	466	0	2	3	0.1005	0.3541	1	1	0.974	5	82	0
123	1	467	0	2	2	0.1005	0.3541	1	1	0.768	6	82	0
123	1	468	1	1	1	0.1005	0.3541	1	1	1.917	50	82	0
123	1	469	0	2	1	0.1005	0.3541	1	1	0.640	7	82	0
123	1	470	0	2	3	0.1005	0.3541	1	1	0.695	7	82	0
123	1	471	1	1	3	0.1005	0.3541	1	1	1.934	50	82	0
123	1	472	1	1	3	0.1005	0.3541	0	1	1.248	50	82	82
123	1	473	9	2	2	0.1005	0.3541	1	1	0.728	0	82	0
123	1	474	1	2	2	0.1005	0.3541	0	1	0.729	62	82	82
123	1	475	1	2	2	0.1005	0.3541	1	1	0.798	55	0	82
123	1	476	9	1	2	0.1005	0.3541	0	1	0.953	0	0	0
123	1	477	9	1	3	0.1005	0.3541	0	1	0.987	0	82	82
123	1	478	1	1	3	0.1005	0.3541	1	1	0.692	66	82	0
123	1	479	1	1	3	0.1005	0.3541	1	0	0.818	0	82	0
123	1	480	9	2	2	0.1005	0.3541	1	1	0.812	0	0	82
123	1	481	1	1	1	0.1005	0.3541	0	1	3.275	50	82	82
123	1	482	0	2	2	0.1005	0.3541	1	1	0.795	6	82	0
123	1	483	1	1	1	0.1005	0.3541	0	1	0.859	50	82	82
123	1	484	9	1	1	0.1005	0.3541	1	1	1.520	0	0	82
123	1	485	0	2	2	0.1005	0.3541	0	1	0.582	8	0	0
123	1	486	1	1	1	0.1005	0.3541	0	0	1.160	0	82	82
123	1	487	0	2	1	0.1005	0.3541	0	1	0.604	7	0	0
123	1	488	0	1	3	0.1005	0.3541	0	1	1.621	5	0	0
123	1	489	1	2	2	0.1005	0.3541	1	1	0.870	50	0	82
123	1	490	0	1	1	0.1005	0.3541	0	1	1.036	5	0	0
123	1	491	0	1	3	0.1005	0.3541	1	1	0.762	6	0	82
123	1	492	0	2	2	0.1005	0.3541	1	0	0.716	0	82	0
123	1	493	9	1	3	0.1005	0.3541	1	1	1.958	0	82	0
123	1	494	1	1	1	0.1005	0.3541	1	1	0.831	52	82	0
123	1	495	9	1	3	0.1005	0.3541	0	1	1.433	0	82	82
123	1	496	0	1	1	0.1005	0.3541	1	1	0.890	5	0	82
123	1	497	9	2	3	0.1005	0.3541	0	1	1.312	0	82	82
123	1	498	1	1	3	0.1005	0.3541	0	1	0.898	50	82	82
123	1	499	9	2	3	0.1005	0.3541	1	1	0.640	0	82	0
123	1	500	1	2	3	0.1005	0.3541	1	1	0.559	79	0	82
123	1	501	0	1	1	0.1005	0.3541	1	0	2.606	0	0	82
123	1	502	1	2	1	0.1005	0.3541	0	1	0.623	73	82	82
123	1	503	0	1	1	0.1005	0.3541	1	1	0.711	6	0	82
123	1	504	1	2	3	0.1005	0.3541	0	1	0.618	73	82	82
123	1	505	9	2	3	0.1005	0.3541	1	1	0.657	0	82	0
123	1	506	1	1	1	0.1005	0.3541	1	1	1.313	50	82	0
123	1	507	0	2	3	0.1005	0.3541	0	1	0.567	8	0	0
123	1	508	1	1	3	0.1005	0.3541	0	1	1.017	50	82	82
123	1	509	1	2	2	0.1005	0.3541	1	1	0.634	72	0	82
123	1	510	0	2	2	0.1005	0.3541	0	1	0.731	6	0	0
123	1	511	0	2	2	0.1005	0.3541	0	1	0.758	6	0	0
123	1	512	9	1	1	0.1005	0.3541	1	1	0.969	0	0	82
123	1	513	1	1	3	0.1005	0.3541	0	0	1.005	0	82	82
123	1	514	0	1	3	0.1005	0.3541	1	1	1.062	5	0	82
123	1	515	1	2	3	0.1005	0.3541	1	1	0.925	50	0	82
123	1	516	0	1	1	0.1005	0.3541	1	1	0.753	6	0	82
123	1	517	0	2	3	0.1005	0.3541	0	1	0.814	5	0	0
123	1	518	0	1	3	0.1005	0.3541	1	1	1.224	5	0	82
123	1	519	1	2	1	0.1005	0.3541	0	1	0.424	93	82	82
123	1	520	9	2	1	0.1005	0.3541	1	1	0.713	0	0	82
123	1	521	1	1	3	0.1005	0.3541	0	1	1.600	50	82	82
123	1	522	1	2	2	0.1005	0.3541	0	1	0.479	87	82	82
123	1	523	0	1	3	0.1005	0.3541	1	1	0.646	7	0	82
123	1	524	0	2	3	0.1005	0.3541	1	1	0.660	7	82	0
123	1	525	1	1	3	0.1005	0.3541	0	1	0.986	50	82	82
123	1	526	1	1	1	0.1005	0.3541	0	1	0.740	61	82	82
123	1	527	1	2	2	0.1005	0.3541	1	1	0.448	90	0	82
123	1	528	1	2	2	0.1005	0.3541	0	1	0.545	81	82	82
123	1	529	0	2	3	0.1005	0.3541	1	1	0.637	7	82	0
123	1	530	9	1	3	0.1005	0.3541	0	1	0.951	0	0	0
123	1	531	1	2	2	0.1005	0.3541	1	1	0.681	67	0	82
123	1	532	1	2	2	0.1005	0.3541	0	1	0.992	50	82	82
123	1	533	1	1	2	0.1005	0.3541	0	1	1.050	50	82	82
123	1	534	0	2	2	0.1005	0.3541	1	0	0.872	0	82	0
123	1	535	0	2	3	0.1005	0.3541	0	1	0.561	8	0	0
123	1	536	9	1	3	0.1005	0.3541	1	1	1.125	0	0	82
123	1	537	0	1	3	0.1005	0.3541	0	1	0.824	5	0	0
123	1	538	9	2	2	0.1005	0.3541	0	1	0.392	0	0	0
123	1	539	0	2	2	0.1005	0.3541	1	1	2.032	5	82	0
123	1	540	1	2	3	0.1005	0.3541	1	1	1.361	50	0	82
123	1	541	0	1	1	0.1005	0.3541	1	0	1.085	0	0	82
123	1	542	1	2	3	0.1005	0.3541	1	0	2.226	0	0	82
123	1	543	9	2	3	0.1005	0.3541	1	0	0.465	0	82	0
123	1	544	1	2	2	0.1005	0.3541	1	1	0.650	70	0	82
123	1	545	0	1	1	0.1005	0.3541	0	1	0.720	6	0	0
123	1	546	0	1	3	0.1005	0.3541	1	1	0.526	8	0	82
123	1	547	0	1	3	0.1005	0.3541	0	1	0.729	6	0	0
123	1	548	9	1	1	0.1005	0.3541	0	1	0.951	0	0	0
123	1	549	1	2	3	0.1005	0.3541	0	1	0.649	70	82	82
123	1	550	0	2	3	0.1005	0.3541	0	1	0.592	8	0	0
123	1	551	0	2	3	0.1005	0.3541	0	1	0.552	8	0	0
123	1	552	1	2	2	0.1005	0.3541	1	1	0.900	50	0	82
123	1	553	0	2	2	0.1005	0.3541	1	1	0.737	6	82	0
123	1	554	0	1	2	0.1005	0.3541	0	1	0.950	5	0	0
123	1	555	0	2	1	0.1005	0.3541	0	1	1.873	5	0	0
123	1	556	9	1	3	0.1005	0.3541	1	1	1.129	0	82	0
123	1	557	0	2	2	0.1005	0.3541	1	1	0.847	5	82	0
123	1	558	0	2	1	0.1005	0.3541	0	1	0.943	5	0	0
123	1	559	0	1	1	0.1005	0.3541	0	0	1.218	0	0	0
123	1	560	1	2	3	0.1005	0.3541	0	1	0.498	85	82	82
123	1	561	0	1	1	0.1005	0.3541	1	1	1.537	5	0	82
123	1	562	1	1	1	0.1005	0.3541	1	1	0.877	50	82	0
123	1	563	9	2	3	0.1005	0.3541	0	1	0.642	0	82	82
123	1	564	0	2	3	0.1005	0.3541	1	1	0.721	6	82	0
123	1	565	0	2	3	0.1005	0.3541	0	1	0.918	5	0	0
123	1	566	9	2	3	0.1005	0.3541	0	1	0.746	0	0	0
123	1	567	1	2	2	0.1005	0.3541	0	1	0.782	57	82	82
123	1	568	0	2	3	0.1005	0.3541	1	1	0.672	7	82	0
123	1	569	1	2	2	0.1005	0.3541	0	1	0.733	62	82	82
123	1	570	0	2	3	0.1005	0.3541	0	1	0.601	7	0	0
123	1	571	1	1	1	0.1005	0.3541	1	0	1.098	0	82	0
123	1	572	0	1	1	0.1005	0.3541	0	0	0.953	0	0	0
123	1	573	0	1	1	0.1005	0.3541	0	1	0.820	5	0	0
123	1	574	0	1	3	0.1005	0.3541	0	1	0.613	7	0	0
123	1	575	1	1	1	0.1005	0.3541	0	0	1.174	0	82	82
123	1	576	1	2	2	0.1005	0.3541	0	1	0.776	57	82	82
123	1	577	0	2	2	0.1005	0.3541	0	1	0.548	8	0	0
123	1	578	0	1	1	0.1005	0.3541	0	1	0.767	6	0	0
123	1	579	9	2	3	0.1005	0.3541	0	1	0.625	0	82	82
123	1	580	0	2	2	0.1005	0.3541	0	1	0.577	8	0	0
123	1	581	0	1	3	0.1005	0.3541	1	0	0.862	0	0	82
123	1	582	1	2	3	0.1005	0.3541	0	1	0.612	74	82	82
123	1	583	1	2	3	0.1005	0.3541	1	1	0.803	55	0	82
123	1	584	9	2	3	0.1005	0.3541	0	1	0.605	0	0	0
123	1	585	0	1	2	0.1005	0.3541	0	1	0.951	5	0	0
123	1	586	9	2	2	0.1005	0.3541	0	1	1.089	0	0	0
123	1	587	1	2	3	0.1005	0.3541	0	1	0.577	77	82	82
123	1	588	0	1	1	0.1005	0.3541	1	1	1.010	5	0	82
123	1	589	1	2	3	0.1005	0.3541	1	1	0.676	67	0	82
123	1	590	1	1	2	0.1005	0.3541	1	1	1.170	50	82	0
123	1	591	9	1	1	0.1005	0.3541	1	1	1.012	0	0	82
123	1	592	1	1	1	0.1005	0.3541	0	0	0.806	0	82	82
123	1	593	0	1	1	0.1005	0.3541	0	1	0.352	10	0	0
123	1	594	0	2	3	0.1005	0.3541	1	1	0.795	6	82	0
123	1	595	0	1	2	0.1005	0.3541	1	1	1.134	5	0	82
123	1	596	1	2	3	0.1005	0.3541	0	1	0.562	79	82	82
123	1	597	1	2	2	0.1005	0.3541	1	1	0.533	82	0	82
123	1	598	0	1	1	0.1005	0.3541	0	0	1.002	0	0	0
123	1	599	1	2	2	0.1005	0.3541	1	1	0.587	76	0	82
123	1	600	9	1	3	0.1005	0.3541	1	0	0.869	0	82	0
123	1	601	1	2	2	0.1005	0.3541	0	1	0.755	60	82	82
123	1	602	0	2	3	0.1005	0.3541	1	1	0.560	8	82	0
123	1	603	0	2	3	0.1005	0.3541	0	1	0.508	8	0	0
123	1	604	1	2	2	0.1005	0.3541	1	1	0.728	62	0	82
123	1	605	1	2	3	0.1005	0.3541	1	1	0.620	73	0	82
123	1	606	1	2	2	0.1005	0.3541	0	1	0.395	96	82	82
123	1	607	9	1	1	0.1005	0.3541	1	1	0.995	0	82	0
123	1	608	1	1	3	0.1005	0.3541	1	0	1.861	0	82	0
123	1	609	1	2	1	0.1005	0.3541	1	1	0.836	51	0	82
123	1	610	1	1	1	0.1005	0.3541	0	0	0.836	0	82	82
123	1	611	9	1	3	0.1005	0.3541	1	0	1.292	0	82	0
123	1	612	1	1	1	0.1005	0.3541	1	1	0.811	54	82	0
123	1	613	1	1	3	0.1005	0.3541	0	1	0.909	50	82	82
123	1	614	1	2	1	0.1005	0.3541	1	1	0.762	59	0	82
123	1	615	0	2	3	0.1005	0.3541	0	1	0.611	7	0	0
123	1	616	0	1	2	0.1005	0.3541	0	1	1.132	5	0	0
123	1	617	1	2	3	0.1005	0.3541	1	1	0.687	66	0	82
123	1	618	1	2	3	0.1005	0.3541	0	1	0.540	81	82	82
123	1	619	1	1	3	0.1005	0.3541	1	0	0.986	0	82	0
123	1	620	0	1	1	0.1005	0.3541	1	0	0.971	0	0	82
123	1	621	1	1	3	0.1005	0.3541	1	1	1.374	50	82	0
123	1	622	0	2	3	0.1005	0.3541	0	1	0.719	6	0	0
123	1	623	0	2	2	0.1005	0.3541	0	1	0.518	8	0	0
123	1	624	0	2	3	0.1005	0.3541	1	1	0.644	7	82	0
123	1	625	0	1	3	0.1005	0.3541	1	1	0.916	5	0	82
123	1	626	9	1	1	0.1005	0.3541	1	0	0.928	0	82	0
123	1	627	0	1	1	0.1005	0.3541	1	1	1.284	5	0	82
123	1	628	0	2	2	0.1005	0.3541	0	1	0.476	9	0	0
123	1	629	0	1	3	0.1005	0.3541	0	1	0.700	6	0	0
123	1	630	0	1	3	0.1005	0.3541	0	1	1.031	5	0	0
123	1	631	9	2	2	0.1005	0.3541	1	1	0.760	0	82	0
123	1	632	0	2	3	0.1005	0.3541	0	1	1.116	5	0	0
123	1	633	1	2	3	0.1005	0.3541	1	0	0.999	0	0	82
123	1	634	9	1	1	0.1005	0.3541	1	0	2.880	0	82	0
123	1	635	1	1	1	0.1005	0.3541	0	1	0.779	57	82	82
123	1	636	0	1	1	0.1005	0.3541	1	1	1.423	5	0	82
123	1	637	1	2	2	0.1005	0.3541	1	1	0.744	61	0	82
123	1	638	1	2	2	0.1005	0.3541	0	1	2.893	50	82	82
123	1	639	1	1	1	0.1005	0.3541	1	1	3.273	50	82	0
123	1	640	0	1	1	0.1005	0.3541	0	1	5.801	5	0	0
123	1	641	1	2	1	0.1005	0.3541	1	1	1.243	50	0	82
123	1	642	0	2	3	0.1005	0.3541	0	1	0.593	8	0	0
123	1	643	0	2	2	0.1005	0.3541	1	1	1.243	5	82	0
123	1	644	0	2	2	0.1005	0.3541	1	1	0.914	5	82	0
123	1	645	0	2	3	0.1005	0.3541	1	1	0.615	7	82	0
123	1	646	1	1	2	0.1005	0.3541	1	1	1.032	50	82	0
123	1	647	9	2	2	0.1005	0.3541	0	1	0.543	0	82	82
123	1	648	0	1	3	0.1005	0.3541	1	1	1.124	5	0	82
123	1	649	9	2	2	0.1005	0.3541	1	0	0.882	0	0	82
123	1	650	0	2	3	0.1005	0.3541	1	1	0.778	6	82	0
123	1	651	0	2	2	0.1005	0.3541	1	1	0.778	6	82	0
123	1	652	1	2	3	0.1005	0.3541	0	1	0.490	86	82	82
123	1	653	9	1	3	0.1005	0.3541	1	1	0.969	0	0	82
123	1	654	1	2	2	0.1005	0.3541	1	1	1.161	50	0	82
123	1	655	0	2	2	0.1005	0.3541	0	1	1.189	5	0	0
123	1	656	1	1	3	0.1005	0.3541	0	0	3.158	0	82	82
123	1	657	1	2	2	0.1005	0.3541	1	0	1.009	0	0	82
123	1	658	1	2	3	0.1005	0.3541	1	1	0.890	50	0	82
123	1	659	9	1	1	0.1005	0.3541	0	1	1.249	0	82	82
123	1	660	9	1	1	0.1005	0.3541	0	0	1.480	0	82	82
123	1	661	0	1	3	0.1005	0.3541	1	0	0.674	0	0	82
123	1	662	0	2	3	0.1005	0.3541	0	1	0.585	8	0	0
123	1	663	0	1	1	0.1005	0.3541	0	1	0.738	6	0	0
123	1	664	1	2	3	0.1005	0.3541	1	1	1.110	50	0	82
123	1	665	1	1	1	0.1005	0.3541	0	1	3.549	50	82	82
123	1	666	1	1	3	0.1005	0.3541	0	1	0.735	61	82	82
123	1	667	1	2	2	0.1005	0.3541	0	1	0.603	75	82	82
123	1	668	0	1	3	0.1005	0.3541	0	0	0.699	0	0	0
123	1	669	1	2	3	0.1005	0.3541	0	1	0.624	73	82	82
123	1	670	0	2	2	0.1005	0.3541	1	1	1.210	5	82	0
123	1	671	9	2	1	0.1005	0.3541	1	1	0.868	0	82	0
123	1	672	9	1	3	0.1005	0.3541	0	1	0.980	0	82	82
123	1	673	1	1	3	0.1005	0.3541	1	0	1.574	0	82	0
123	1	674	9	2	2	0.1005	0.3541	1	0	-0.007	0	0	82
123	1	675	9	2	2	0.1005	0.3541	0	1	1.381	0	82	82
123	1	676	0	1	1	0.1005	0.3541	1	0	8.920	0	0	82
123	1	677	1	2	2	0.1005	0.3541	1	1	0.698	65	0	82
123	1	678	0	1	2	0.1005	0.3541	0	1	0.994	5	0	0
123	1	679	0	1	2	0.1005	0.3541	1	0	1.297	0	0	82
123	1	680	0	1	1	0.1005	0.3541	0	1	0.902	5	0	0
123	1	681	0	2	3	0.1005	0.3541	1	0	0.940	0	82	0
123	1	682	1	2	1	0.1005	0.3541	1	1	0.896	50	0	82
123	1	683	9	2	1	0.1005	0.3541	0	1	0.599	0	82	82
123	1	684	1	2	3	0.1005	0.3541	1	1	0.750	60	0	82
123	1	685	9	1	1	0.1005	0.3541	1	1	0.786	0	0	82
123	1	686	1	1	1	0.1005	0.3541	1	1	1.205	50	82	0
123	1	687	0	2	2	0.1005	0.3541	0	1	0.518	8	0	0
123	1	688	0	1	2	0.1005	0.3541	1	0	0.884	0	0	82
123	1	689	0	2	2	0.1005	0.3541	0	1	0.595	8	0	0
123	1	690	1	2	2	0.1005	0.3541	0	1	0.566	78	82	82
123	1	691	9	2	1	0.1005	0.3541	0	1	7.824	0	0	0
123	1	692	1	1	3	0.1005	0.3541	0	1	0.752	60	82	82
123	1	693	1	1	1	0.1005	0.3541	1	1	1.243	50	82	0
123	1	694	0	1	3	0.1005	0.3541	1	0	1.858	0	0	82
123	1	695	1	1	3	0.1005	0.3541	1	1	1.536	50	82	0
123	1	696	0	1	3	0.1005	0.3541	1	0	1.861	0	0	82
123	1	697	0	2	2	0.1005	0.3541	0	1	2.340	5	0	0
123	1	698	1	2	3	0.1005	0.3541	1	1	1.639	50	0	82
123	1	699	0	1	3	0.1005	0.3541	1	1	1.261	5	0	82
123	1	700	9	1	3	0.1005	0.3541	0	1	0.914	0	82	82
123	1	701	9	1	3	0.1005	0.3541	0	1	1.426	0	0	0
123	1	702	0	1	3	0.1005	0.3541	1	1	0.899	5	0	82
123	1	703	1	1	3	0.1005	0.3541	0	1	0.727	62	82	82
123	1	704	0	2	3	0.1005	0.3541	1	1	0.884	5	82	0
123	1	705	1	1	1	0.1005	0.3541	0	1	0.923	50	82	82
123	1	706	1	1	1	0.1005	0.3541	1	0	1.264	0	82	0
123	1	707	0	1	1	0.1005	0.3541	0	1	0.861	5	0	0
123	1	708	1	1	1	0.1005	0.3541	0	1	0.878	50	82	82
123	1	709	9	2	2	0.1005	0.3541	1	1	1.413	0	82	0
123	1	710	0	2	3	0.1005	0.3541	1	1	2.143	5	82	0
123	1	711	1	1	1	0.1005	0.3541	0	1	0.909	50	82	82
123	1	712	9	1	1	0.1005	0.3541	0	1	0.672	0	82	82
123	1	713	0	2	2	0.1005	0.3541	1	1	0.822	5	82	0
123	1	714	0	2	2	0.1005	0.3541	1	1	0.654	7	82	0
123	1	715	9	1	2	0.1005	0.3541	0	1	0.757	0	82	82
123	1	716	0	2	3	0.1005	0.3541	0	1	0.609	7	0	0
123	1	717	0	2	1	0.1005	0.3541	0	1	0.840	5	0	0
123	1	718	1	2	3	0.1005	0.3541	0	1	0.807	54	82	82
123	1	719	1	1	1	0.1005	0.3541	1	0	0.480	0	82	0
123	1	720	0	1	1	0.1005	0.3541	0	0	0.831	0	0	0
