sub	sess	t	loc	cue	co1	co2	or	resp	rt
65	1	1	1	1	0.2732	0.0500	0	1	2.596
65	1	2	2	2	0.2732	0.0500	0	1	0.832
65	1	3	1	1	0.2732	0.0500	0	1	0.721
65	1	4	1	3	0.2732	0.0500	0	1	1.216
65	1	5	2	2	0.2732	0.0500	1	1	0.665
65	1	6	1	2	0.2732	0.0500	0	1	0.757
65	1	7	1	1	0.2732	0.0500	1	1	1.110
65	1	8	2	1	0.2732	0.0500	1	1	0.907
65	1	9	2	3	0.2732	0.0500	0	1	0.642
65	1	10	2	2	0.2732	0.0500	1	1	0.584
65	1	11	1	1	0.2732	0.0500	0	1	0.652
65	1	12	1	3	0.2732	0.0500	1	1	1.558
65	1	13	1	3	0.2732	0.0500	0	1	0.966
65	1	14	2	2	0.2732	0.0500	0	1	0.650
65	1	15	1	1	0.2732	0.0500	1	1	0.637
65	1	16	1	2	0.2732	0.0500	1	1	0.664
65	1	17	1	1	0.2732	0.0500	0	1	0.881
65	1	18	1	2	0.2732	0.0500	0	1	0.856
65	1	19	2	1	0.2732	0.0500	0	1	0.647
65	1	20	1	1	0.2732	0.0500	1	1	0.779
65	1	21	2	2	0.2732	0.0500	0	1	0.512
65	1	22	1	1	0.2732	0.0500	0	1	0.829
65	1	23	2	3	0.2732	0.0500	0	1	0.710
65	1	24	1	1	0.2732	0.0500	1	0	0.581
65	1	25	2	2	0.2732	0.0500	1	1	0.622
65	1	26	2	3	0.2732	0.0500	1	1	0.574
65	1	27	1	1	0.2732	0.0500	1	1	0.721
65	1	28	1	3	0.2732	0.0500	1	1	0.576
65	1	29	2	3	0.2732	0.0500	1	1	0.653
65	1	30	1	1	0.2732	0.0500	0	1	0.699
65	1	31	2	2	0.2732	0.0500	0	1	0.674
65	1	32	1	3	0.2732	0.0500	1	1	0.877
65	1	33	2	3	0.2732	0.0500	1	1	0.706
65	1	34	1	1	0.2732	0.0500	1	1	0.619
65	1	35	1	1	0.2732	0.0500	0	0	0.920
65	1	36	2	2	0.2732	0.0500	1	1	0.588
65	1	37	2	2	0.2732	0.0500	0	1	0.564
65	1	38	2	2	0.2732	0.0500	0	1	0.675
65	1	39	1	3	0.2732	0.0500	1	1	0.693
65	1	40	2	2	0.2732	0.0500	0	1	0.477
65	1	41	2	1	0.2732	0.0500	0	1	0.558
65	1	42	2	2	0.2732	0.0500	0	0	0.615
65	1	43	2	2	0.2732	0.0500	1	1	0.566
65	1	44	1	3	0.2732	0.0500	0	1	0.720
65	1	45	1	1	0.2732	0.0500	1	1	0.924
65	1	46	2	2	0.2732	0.0500	1	1	0.564
65	1	47	2	1	0.2732	0.0500	1	1	0.509
65	1	48	1	2	0.2732	0.0500	1	1	0.656
65	1	49	2	3	0.2732	0.0500	0	0	0.688
65	1	50	2	2	0.2732	0.0500	1	1	0.548
65	1	51	2	3	0.2732	0.0500	1	1	0.515
65	1	52	1	1	0.2732	0.0500	0	1	0.775
65	1	53	2	2	0.2732	0.0500	1	1	0.809
65	1	54	2	3	0.2732	0.0500	0	0	0.684
65	1	55	1	3	0.2732	0.0500	0	0	1.005
65	1	56	1	1	0.2732	0.0500	1	1	0.601
65	1	57	1	3	0.2732	0.0500	1	1	0.586
65	1	58	2	2	0.2732	0.0500	0	1	0.533
65	1	59	2	3	0.2732	0.0500	0	1	0.672
65	1	60	2	2	0.2732	0.0500	0	1	0.520
65	1	61	2	2	0.2732	0.0500	1	1	0.617
65	1	62	2	3	0.2732	0.0500	1	1	0.827
65	1	63	1	1	0.2732	0.0500	1	1	0.595
65	1	64	1	3	0.2732	0.0500	1	1	0.600
65	1	65	1	1	0.2732	0.0500	0	1	0.829
65	1	66	2	2	0.2732	0.0500	1	1	0.584
65	1	67	1	1	0.2732	0.0500	0	1	0.653
65	1	68	2	1	0.2732	0.0500	1	1	0.628
65	1	69	1	1	0.2732	0.0500	1	1	0.912
65	1	70	1	1	0.2732	0.0500	0	1	0.635
65	1	71	2	3	0.2732	0.0500	0	0	0.630
65	1	72	2	3	0.2732	0.0500	0	1	0.495
65	1	73	1	2	0.2732	0.0500	0	1	1.050
65	1	74	1	2	0.2732	0.0500	1	1	0.971
65	1	75	2	2	0.2732	0.0500	1	1	1.100
65	1	76	2	3	0.2732	0.0500	1	1	0.610
65	1	77	1	1	0.2732	0.0500	1	0	0.735
65	1	78	1	1	0.2732	0.0500	1	1	0.700
65	1	79	2	1	0.2732	0.0500	1	1	0.725
65	1	80	2	3	0.2732	0.0500	1	1	0.528
65	1	81	1	1	0.2732	0.0500	0	1	0.915
65	1	82	1	2	0.2732	0.0500	0	1	0.627
65	1	83	2	2	0.2732	0.0500	1	1	0.844
65	1	84	2	1	0.2732	0.0500	0	1	0.786
65	1	85	1	3	0.2732	0.0500	1	1	0.709
65	1	86	1	1	0.2732	0.0500	0	1	0.804
65	1	87	1	1	0.2732	0.0500	0	1	0.625
65	1	88	2	1	0.2732	0.0500	0	1	0.578
65	1	89	1	3	0.2732	0.0500	1	1	0.997
65	1	90	2	2	0.2732	0.0500	1	0	0.580
65	1	91	1	3	0.2732	0.0500	0	1	0.797
65	1	92	1	1	0.2732	0.0500	0	1	0.534
65	1	93	2	2	0.2732	0.0500	0	1	0.496
65	1	94	1	3	0.2732	0.0500	0	1	0.634
65	1	95	2	2	0.2732	0.0500	1	0	0.703
65	1	96	2	3	0.2732	0.0500	1	1	1.886
65	1	97	1	1	0.2732	0.0500	1	1	1.256
65	1	98	2	2	0.2732	0.0500	1	1	0.654
65	1	99	1	3	0.2732	0.0500	0	1	0.666
65	1	100	1	1	0.2732	0.0500	1	1	0.720
65	1	101	2	2	0.2732	0.0500	0	1	0.601
65	1	102	1	3	0.2732	0.0500	0	1	0.719
65	1	103	2	2	0.2732	0.0500	0	1	1.549
65	1	104	2	2	0.2732	0.0500	0	1	0.442
65	1	105	1	1	0.2732	0.0500	1	1	0.981
65	1	106	2	2	0.2732	0.0500	1	1	0.655
65	1	107	1	1	0.2732	0.0500	1	1	0.738
65	1	108	1	1	0.2732	0.0500	0	1	0.611
65	1	109	2	3	0.2732	0.0500	0	1	0.783
65	1	110	1	2	0.2732	0.0500	1	1	0.553
65	1	111	2	2	0.2732	0.0500	0	0	1.070
65	1	112	2	2	0.2732	0.0500	0	1	0.782
