sub	sess	t	rew	loc	cue	co1	co2	or	resp	rt	rew_tot	left_col	right_col
65	1	1	0	1	3	0.2732	0.0500	1	1	0.980	5	0	82
65	1	2	0	2	3	0.2732	0.0500	1	1	0.682	7	82	0
65	1	3	0	2	3	0.2732	0.0500	1	1	0.900	5	82	0
65	1	4	0	1	3	0.2732	0.0500	0	1	0.684	7	0	0
65	1	5	9	1	3	0.2732	0.0500	1	1	0.967	0	82	0
65	1	6	0	1	3	0.2732	0.0500	0	1	0.834	5	0	0
65	1	7	1	2	3	0.2732	0.0500	1	1	0.833	52	0	82
65	1	8	9	2	2	0.2732	0.0500	1	1	0.662	0	82	0
65	1	9	9	1	1	0.2732	0.0500	1	1	0.739	0	0	82
65	1	10	0	1	3	0.2732	0.0500	0	1	0.602	7	0	0
65	1	11	0	1	1	0.2732	0.0500	1	1	0.626	7	0	82
65	1	12	0	1	2	0.2732	0.0500	1	1	0.580	8	0	82
65	1	13	1	2	2	0.2732	0.0500	1	1	0.615	74	0	82
65	1	14	1	2	3	0.2732	0.0500	0	1	0.691	66	82	82
65	1	15	1	2	3	0.2732	0.0500	1	1	0.702	65	0	82
65	1	16	9	1	1	0.2732	0.0500	1	0	0.705	0	82	0
65	1	17	1	2	2	0.2732	0.0500	0	1	0.750	60	82	82
65	1	18	0	1	1	0.2732	0.0500	0	1	0.731	6	0	0
65	1	19	9	2	2	0.2732	0.0500	0	1	0.601	0	0	0
65	1	20	0	1	2	0.2732	0.0500	0	1	0.739	6	0	0
65	1	21	1	1	1	0.2732	0.0500	0	1	0.637	71	82	82
65	1	22	1	1	3	0.2732	0.0500	0	1	0.508	84	82	82
65	1	23	0	1	3	0.2732	0.0500	0	1	0.529	8	0	0
65	1	24	0	1	3	0.2732	0.0500	0	1	0.474	9	0	0
65	1	25	0	1	3	0.2732	0.0500	1	0	0.663	0	0	82
65	1	26	9	1	1	0.2732	0.0500	1	1	0.677	0	82	0
65	1	27	9	1	1	0.2732	0.0500	0	1	0.546	0	0	0
65	1	28	9	2	1	0.2732	0.0500	1	0	1.695	0	82	0
65	1	29	9	1	3	0.2732	0.0500	0	1	0.708	0	82	82
65	1	30	1	1	1	0.2732	0.0500	1	1	0.522	83	82	0
65	1	31	9	1	1	0.2732	0.0500	1	1	0.600	0	0	82
65	1	32	0	1	1	0.2732	0.0500	1	1	0.661	7	0	82
65	1	33	1	2	3	0.2732	0.0500	1	1	0.839	51	0	82
65	1	34	1	2	3	0.2732	0.0500	0	1	0.861	50	82	82
65	1	35	1	2	3	0.2732	0.0500	0	1	0.691	66	82	82
65	1	36	1	2	3	0.2732	0.0500	1	1	0.845	50	0	82
65	1	37	0	2	1	0.2732	0.0500	1	1	0.649	7	82	0
65	1	38	9	2	3	0.2732	0.0500	1	1	0.667	0	82	0
65	1	39	0	1	3	0.2732	0.0500	0	1	0.648	7	0	0
65	1	40	1	1	1	0.2732	0.0500	0	1	0.557	79	82	82
65	1	41	9	2	3	0.2732	0.0500	0	1	0.538	0	0	0
65	1	42	1	1	2	0.2732	0.0500	0	1	0.643	71	82	82
65	1	43	1	1	1	0.2732	0.0500	1	1	0.675	68	82	0
65	1	44	1	1	1	0.2732	0.0500	0	1	0.525	83	82	82
65	1	45	1	2	1	0.2732	0.0500	0	1	0.931	50	82	82
65	1	46	9	1	3	0.2732	0.0500	1	1	0.521	0	0	82
65	1	47	0	1	1	0.2732	0.0500	0	1	0.583	8	0	0
65	1	48	9	1	3	0.2732	0.0500	0	1	0.458	0	82	82
65	1	49	0	2	3	0.2732	0.0500	0	1	0.577	8	0	0
65	1	50	9	2	3	0.2732	0.0500	0	1	0.525	0	82	82
65	1	51	0	1	1	0.2732	0.0500	1	1	0.557	8	0	82
65	1	52	1	1	1	0.2732	0.0500	0	1	0.488	86	82	82
65	1	53	0	2	1	0.2732	0.0500	0	1	0.486	9	0	0
65	1	54	1	2	2	0.2732	0.0500	0	1	0.673	68	82	82
65	1	55	1	1	1	0.2732	0.0500	1	1	0.614	74	82	0
65	1	56	0	2	1	0.2732	0.0500	0	1	0.503	8	0	0
65	1	57	1	1	2	0.2732	0.0500	0	0	0.563	0	82	82
65	1	58	0	1	2	0.2732	0.0500	1	1	0.659	7	0	82
65	1	59	0	2	1	0.2732	0.0500	0	1	0.544	8	0	0
65	1	60	9	2	3	0.2732	0.0500	0	1	0.640	0	0	0
65	1	61	0	1	3	0.2732	0.0500	1	1	0.600	8	0	82
65	1	62	1	1	3	0.2732	0.0500	0	1	0.647	70	82	82
65	1	63	1	2	1	0.2732	0.0500	0	1	0.510	84	82	82
65	1	64	1	1	1	0.2732	0.0500	0	1	0.779	57	82	82
65	1	65	1	2	3	0.2732	0.0500	1	1	0.971	50	0	82
65	1	66	0	2	3	0.2732	0.0500	1	1	0.735	6	82	0
65	1	67	1	2	3	0.2732	0.0500	0	1	0.626	72	82	82
65	1	68	0	2	2	0.2732	0.0500	1	1	0.650	7	82	0
65	1	69	1	2	1	0.2732	0.0500	1	1	0.544	81	0	82
65	1	70	1	2	1	0.2732	0.0500	1	1	0.613	74	0	82
65	1	71	1	2	2	0.2732	0.0500	0	1	0.446	90	82	82
65	1	72	1	2	2	0.2732	0.0500	0	1	0.608	74	82	82
65	1	73	9	2	2	0.2732	0.0500	1	1	0.660	0	0	82
65	1	74	0	2	3	0.2732	0.0500	0	1	0.481	9	0	0
65	1	75	1	1	1	0.2732	0.0500	1	1	0.833	52	82	0
65	1	76	0	2	3	0.2732	0.0500	1	1	0.712	6	82	0
65	1	77	1	1	3	0.2732	0.0500	1	0	0.937	0	82	0
65	1	78	9	2	3	0.2732	0.0500	0	1	0.645	0	82	82
65	1	79	0	2	2	0.2732	0.0500	1	1	0.533	8	82	0
65	1	80	0	2	3	0.2732	0.0500	0	1	0.783	6	0	0
65	1	81	1	2	2	0.2732	0.0500	0	0	0.590	0	82	82
65	1	82	1	1	3	0.2732	0.0500	1	1	0.638	71	82	0
65	1	83	0	1	3	0.2732	0.0500	0	1	0.812	5	0	0
65	1	84	1	1	1	0.2732	0.0500	1	1	0.575	77	82	0
65	1	85	1	2	3	0.2732	0.0500	1	0	1.045	0	0	82
65	1	86	1	1	2	0.2732	0.0500	1	1	1.104	50	82	0
65	1	87	1	2	3	0.2732	0.0500	0	0	1.930	0	82	82
65	1	88	1	1	3	0.2732	0.0500	0	1	0.794	56	82	82
65	1	89	0	2	3	0.2732	0.0500	0	1	0.757	6	0	0
65	1	90	9	2	3	0.2732	0.0500	1	1	0.624	0	82	0
65	1	91	0	1	1	0.2732	0.0500	0	1	0.636	7	0	0
65	1	92	1	1	2	0.2732	0.0500	1	1	0.652	70	82	0
65	1	93	0	2	3	0.2732	0.0500	1	1	0.841	5	82	0
65	1	94	0	2	3	0.2732	0.0500	0	0	0.811	0	0	0
65	1	95	1	2	3	0.2732	0.0500	1	1	0.576	77	0	82
65	1	96	9	1	1	0.2732	0.0500	1	1	0.659	0	82	0
65	1	97	1	2	3	0.2732	0.0500	1	1	0.589	76	0	82
65	1	98	0	1	3	0.2732	0.0500	0	1	0.777	6	0	0
65	1	99	9	1	3	0.2732	0.0500	0	1	0.566	0	0	0
65	1	100	0	2	2	0.2732	0.0500	1	1	0.581	8	82	0
65	1	101	0	1	1	0.2732	0.0500	0	1	0.559	8	0	0
65	1	102	1	1	3	0.2732	0.0500	1	1	1.161	50	82	0
65	1	103	0	1	3	0.2732	0.0500	1	1	0.549	8	0	82
65	1	104	1	2	3	0.2732	0.0500	0	1	0.588	76	82	82
65	1	105	1	2	3	0.2732	0.0500	0	1	0.696	65	82	82
65	1	106	1	1	3	0.2732	0.0500	1	1	0.584	77	82	0
65	1	107	9	2	2	0.2732	0.0500	1	1	0.496	0	0	82
65	1	108	9	1	3	0.2732	0.0500	0	1	0.629	0	82	82
65	1	109	1	2	2	0.2732	0.0500	0	1	0.922	50	82	82
65	1	110	0	1	3	0.2732	0.0500	1	1	1.218	5	0	82
65	1	111	9	2	3	0.2732	0.0500	1	1	0.581	0	0	82
65	1	112	0	1	3	0.2732	0.0500	0	1	1.122	5	0	0
65	1	113	1	1	3	0.2732	0.0500	1	1	0.621	73	82	0
65	1	114	0	1	1	0.2732	0.0500	1	1	0.589	8	0	82
65	1	115	1	1	3	0.2732	0.0500	0	1	0.573	78	82	82
65	1	116	0	1	3	0.2732	0.0500	1	1	0.579	8	0	82
65	1	117	1	2	2	0.2732	0.0500	1	1	0.557	79	0	82
65	1	118	9	2	3	0.2732	0.0500	0	1	0.507	0	0	0
65	1	119	1	2	3	0.2732	0.0500	0	1	0.503	85	82	82
65	1	120	1	2	2	0.2732	0.0500	0	1	0.506	84	82	82
65	1	121	9	2	1	0.2732	0.0500	0	1	0.547	0	82	82
65	1	122	1	1	1	0.2732	0.0500	1	1	0.665	69	82	0
65	1	123	9	1	1	0.2732	0.0500	1	1	0.483	0	0	82
65	1	124	1	2	2	0.2732	0.0500	1	0	0.840	0	0	82
65	1	125	0	1	2	0.2732	0.0500	0	1	0.622	7	0	0
65	1	126	1	2	2	0.2732	0.0500	0	1	1.017	50	82	82
65	1	127	9	1	1	0.2732	0.0500	0	1	0.541	0	82	82
65	1	128	1	1	3	0.2732	0.0500	0	1	0.580	77	82	82
65	1	129	9	2	2	0.2732	0.0500	0	1	0.671	0	82	82
65	1	130	1	2	3	0.2732	0.0500	0	1	0.715	64	82	82
65	1	131	0	2	2	0.2732	0.0500	0	1	0.520	8	0	0
65	1	132	0	1	1	0.2732	0.0500	0	1	0.659	7	0	0
65	1	133	0	2	3	0.2732	0.0500	1	0	1.129	0	82	0
65	1	134	0	1	1	0.2732	0.0500	1	1	0.710	6	0	82
65	1	135	0	1	1	0.2732	0.0500	1	1	0.806	5	0	82
65	1	136	9	2	3	0.2732	0.0500	1	1	0.860	0	0	82
65	1	137	0	2	2	0.2732	0.0500	0	1	0.652	7	0	0
65	1	138	1	2	1	0.2732	0.0500	1	1	1.078	50	0	82
65	1	139	0	1	1	0.2732	0.0500	1	1	0.940	5	0	82
65	1	140	9	2	2	0.2732	0.0500	1	1	0.760	0	0	82
65	1	141	1	1	1	0.2732	0.0500	1	1	0.652	70	82	0
65	1	142	1	1	1	0.2732	0.0500	1	1	0.490	86	82	0
65	1	143	0	2	3	0.2732	0.0500	1	1	0.710	6	82	0
65	1	144	0	2	2	0.2732	0.0500	1	1	0.598	8	82	0
65	1	145	1	2	3	0.2732	0.0500	1	1	0.820	53	0	82
65	1	146	1	1	3	0.2732	0.0500	0	1	0.769	58	82	82
65	1	147	0	2	3	0.2732	0.0500	0	1	0.899	5	0	0
65	1	148	0	1	1	0.2732	0.0500	0	1	0.807	5	0	0
65	1	149	0	2	2	0.2732	0.0500	1	1	0.681	7	82	0
65	1	150	1	2	3	0.2732	0.0500	1	1	0.501	85	0	82
65	1	151	0	1	3	0.2732	0.0500	0	0	0.669	0	0	0
65	1	152	9	2	3	0.2732	0.0500	1	1	0.541	0	0	82
65	1	153	0	2	3	0.2732	0.0500	1	1	0.577	8	82	0
65	1	154	0	1	1	0.2732	0.0500	0	1	0.594	8	0	0
65	1	155	0	2	3	0.2732	0.0500	1	1	0.504	8	82	0
65	1	156	0	1	3	0.2732	0.0500	1	1	0.933	5	0	82
65	1	157	9	1	3	0.2732	0.0500	1	1	0.623	0	82	0
65	1	158	0	2	1	0.2732	0.0500	1	1	0.780	6	82	0
65	1	159	1	2	3	0.2732	0.0500	0	1	1.807	50	82	82
65	1	160	9	2	2	0.2732	0.0500	0	1	0.616	0	0	0
65	1	161	0	2	3	0.2732	0.0500	1	1	0.695	7	82	0
65	1	162	0	1	3	0.2732	0.0500	0	1	0.809	5	0	0
65	1	163	1	2	1	0.2732	0.0500	0	1	0.832	52	82	82
65	1	164	1	1	3	0.2732	0.0500	0	0	0.875	0	82	82
65	1	165	0	1	1	0.2732	0.0500	0	1	0.599	8	0	0
65	1	166	1	1	1	0.2732	0.0500	1	0	1.429	0	82	0
65	1	167	0	2	3	0.2732	0.0500	0	1	0.545	8	0	0
65	1	168	1	1	1	0.2732	0.0500	0	1	0.978	50	82	82
65	1	169	1	1	1	0.2732	0.0500	0	1	0.690	66	82	82
65	1	170	0	2	2	0.2732	0.0500	0	1	0.572	8	0	0
65	1	171	1	1	3	0.2732	0.0500	1	1	0.807	54	82	0
65	1	172	1	1	3	0.2732	0.0500	1	0	0.773	0	82	0
65	1	173	1	2	3	0.2732	0.0500	0	1	0.624	73	82	82
65	1	174	1	1	3	0.2732	0.0500	1	1	0.759	59	82	0
65	1	175	9	1	3	0.2732	0.0500	0	1	0.759	0	0	0
65	1	176	1	1	3	0.2732	0.0500	0	1	0.627	72	82	82
65	1	177	1	2	2	0.2732	0.0500	0	1	0.807	54	82	82
65	1	178	0	1	2	0.2732	0.0500	1	1	0.557	8	0	82
65	1	179	1	1	1	0.2732	0.0500	0	1	0.846	50	82	82
65	1	180	1	1	1	0.2732	0.0500	1	1	0.590	76	82	0
65	1	181	1	2	3	0.2732	0.0500	1	1	0.643	71	0	82
65	1	182	1	1	1	0.2732	0.0500	1	1	0.640	71	82	0
65	1	183	9	1	1	0.2732	0.0500	0	1	0.771	0	0	0
65	1	184	1	2	2	0.2732	0.0500	1	1	0.674	68	0	82
65	1	185	1	2	2	0.2732	0.0500	1	1	0.551	80	0	82
65	1	186	9	2	1	0.2732	0.0500	0	0	0.844	0	0	0
65	1	187	1	2	1	0.2732	0.0500	1	1	0.593	76	0	82
65	1	188	9	2	3	0.2732	0.0500	0	0	1.828	0	82	82
65	1	189	1	1	1	0.2732	0.0500	1	1	0.629	72	82	0
65	1	190	1	2	3	0.2732	0.0500	1	1	0.623	73	0	82
65	1	191	1	1	3	0.2732	0.0500	1	1	0.669	68	82	0
65	1	192	1	1	2	0.2732	0.0500	0	0	0.911	0	82	82
65	1	193	1	1	3	0.2732	0.0500	1	1	0.596	75	82	0
65	1	194	0	2	2	0.2732	0.0500	1	1	0.542	8	82	0
65	1	195	1	1	1	0.2732	0.0500	0	1	0.914	50	82	82
65	1	196	9	1	2	0.2732	0.0500	0	1	0.940	0	0	0
65	1	197	9	1	3	0.2732	0.0500	0	1	0.843	0	0	0
65	1	198	1	1	1	0.2732	0.0500	0	1	0.586	76	82	82
65	1	199	1	1	1	0.2732	0.0500	0	1	0.559	79	82	82
65	1	200	0	1	1	0.2732	0.0500	1	1	0.605	7	0	82
65	1	201	0	2	2	0.2732	0.0500	1	1	0.591	8	82	0
65	1	202	9	2	3	0.2732	0.0500	1	1	0.603	0	0	82
65	1	203	1	2	2	0.2732	0.0500	1	1	0.655	69	0	82
65	1	204	1	1	3	0.2732	0.0500	0	1	0.635	72	82	82
65	1	205	9	1	3	0.2732	0.0500	1	1	0.595	0	0	82
65	1	206	1	2	2	0.2732	0.0500	1	0	1.707	0	0	82
65	1	207	0	1	3	0.2732	0.0500	0	1	0.641	7	0	0
65	1	208	0	1	1	0.2732	0.0500	0	1	0.498	9	0	0
65	1	209	9	1	3	0.2732	0.0500	1	1	0.783	0	0	82
65	1	210	0	2	3	0.2732	0.0500	1	1	1.325	5	82	0
65	1	211	1	1	1	0.2732	0.0500	1	1	0.760	59	82	0
65	1	212	1	2	3	0.2732	0.0500	1	1	0.660	69	0	82
65	1	213	0	2	2	0.2732	0.0500	0	1	0.644	7	0	0
65	1	214	0	2	1	0.2732	0.0500	0	1	0.544	8	0	0
65	1	215	0	2	2	0.2732	0.0500	1	1	0.677	7	82	0
65	1	216	1	2	3	0.2732	0.0500	0	1	0.631	72	82	82
65	1	217	1	2	2	0.2732	0.0500	0	1	0.505	84	82	82
65	1	218	9	1	1	0.2732	0.0500	1	1	0.538	0	0	82
65	1	219	9	2	3	0.2732	0.0500	1	1	0.489	0	82	0
65	1	220	0	1	3	0.2732	0.0500	1	1	0.662	7	0	82
65	1	221	1	1	2	0.2732	0.0500	1	1	0.695	66	82	0
65	1	222	0	1	1	0.2732	0.0500	0	0	0.722	0	0	0
65	1	223	9	2	2	0.2732	0.0500	0	1	0.573	0	82	82
65	1	224	1	1	3	0.2732	0.0500	1	1	0.878	50	82	0
65	1	225	9	1	1	0.2732	0.0500	0	1	0.581	0	0	0
65	1	226	9	1	1	0.2732	0.0500	0	1	0.524	0	82	82
65	1	227	1	1	1	0.2732	0.0500	0	1	0.461	89	82	82
65	1	228	1	2	2	0.2732	0.0500	1	1	0.578	77	0	82
65	1	229	0	1	1	0.2732	0.0500	0	1	0.631	7	0	0
65	1	230	1	2	2	0.2732	0.0500	0	1	0.442	91	82	82
65	1	231	1	1	2	0.2732	0.0500	0	1	0.550	80	82	82
65	1	232	1	2	3	0.2732	0.0500	1	1	0.566	78	0	82
65	1	233	1	2	2	0.2732	0.0500	1	1	0.525	82	0	82
65	1	234	9	2	2	0.2732	0.0500	0	1	0.519	0	0	0
65	1	235	0	2	2	0.2732	0.0500	1	1	0.746	6	82	0
65	1	236	1	2	2	0.2732	0.0500	0	1	0.478	87	82	82
65	1	237	1	1	3	0.2732	0.0500	1	1	0.822	53	82	0
65	1	238	1	1	1	0.2732	0.0500	1	1	0.594	76	82	0
65	1	239	9	2	3	0.2732	0.0500	1	1	0.579	0	82	0
65	1	240	0	2	2	0.2732	0.0500	0	1	0.499	9	0	0
65	1	241	1	2	2	0.2732	0.0500	1	0	1.017	0	0	82
65	1	242	0	2	2	0.2732	0.0500	1	1	0.662	7	82	0
65	1	243	0	2	3	0.2732	0.0500	1	1	0.673	7	82	0
65	1	244	0	1	2	0.2732	0.0500	1	1	0.882	5	0	82
65	1	245	9	2	2	0.2732	0.0500	0	1	0.515	0	0	0
65	1	246	1	1	1	0.2732	0.0500	0	1	0.763	59	82	82
65	1	247	1	2	3	0.2732	0.0500	0	1	0.814	54	82	82
65	1	248	0	2	3	0.2732	0.0500	1	0	0.654	0	82	0
65	1	249	1	1	3	0.2732	0.0500	0	1	0.718	63	82	82
65	1	250	0	1	1	0.2732	0.0500	1	1	0.813	5	0	82
65	1	251	0	2	2	0.2732	0.0500	0	1	0.583	8	0	0
65	1	252	0	2	2	0.2732	0.0500	0	1	0.509	8	0	0
65	1	253	9	1	2	0.2732	0.0500	1	1	0.687	0	82	0
65	1	254	0	1	3	0.2732	0.0500	1	1	0.594	8	0	82
65	1	255	0	2	3	0.2732	0.0500	0	1	0.653	7	0	0
65	1	256	0	1	3	0.2732	0.0500	1	1	0.543	8	0	82
65	1	257	0	1	1	0.2732	0.0500	0	1	0.631	7	0	0
65	1	258	9	1	2	0.2732	0.0500	1	1	0.569	0	0	82
65	1	259	1	2	2	0.2732	0.0500	1	1	1.194	50	0	82
65	1	260	1	1	3	0.2732	0.0500	0	1	0.592	76	82	82
65	1	261	9	2	1	0.2732	0.0500	1	1	0.772	0	0	82
65	1	262	1	1	3	0.2732	0.0500	0	1	0.765	59	82	82
65	1	263	0	2	2	0.2732	0.0500	1	1	0.587	8	82	0
65	1	264	0	2	3	0.2732	0.0500	0	1	0.498	9	0	0
65	1	265	0	1	2	0.2732	0.0500	0	1	0.562	8	0	0
65	1	266	0	2	3	0.2732	0.0500	0	1	0.446	9	0	0
65	1	267	1	1	1	0.2732	0.0500	0	1	0.610	74	82	82
65	1	268	0	2	2	0.2732	0.0500	0	1	0.519	8	0	0
65	1	269	1	2	2	0.2732	0.0500	1	1	1.379	50	0	82
65	1	270	1	2	2	0.2732	0.0500	0	1	0.451	90	82	82
65	1	271	0	1	2	0.2732	0.0500	0	1	0.742	6	0	0
65	1	272	0	2	2	0.2732	0.0500	1	1	0.687	7	82	0
65	1	273	0	1	3	0.2732	0.0500	0	1	0.646	7	0	0
65	1	274	0	2	1	0.2732	0.0500	1	1	0.548	8	82	0
65	1	275	0	1	1	0.2732	0.0500	0	1	0.561	8	0	0
65	1	276	1	2	2	0.2732	0.0500	1	1	0.515	84	0	82
65	1	277	1	1	1	0.2732	0.0500	0	1	0.644	71	82	82
65	1	278	9	1	1	0.2732	0.0500	0	1	0.530	0	82	82
65	1	279	0	1	3	0.2732	0.0500	1	1	0.615	7	0	82
65	1	280	1	1	3	0.2732	0.0500	0	1	0.596	75	82	82
65	1	281	9	2	3	0.2732	0.0500	0	1	0.484	0	0	0
65	1	282	0	1	3	0.2732	0.0500	1	1	0.764	6	0	82
65	1	283	0	1	1	0.2732	0.0500	1	1	0.606	7	0	82
65	1	284	1	2	2	0.2732	0.0500	1	1	0.537	81	0	82
65	1	285	0	1	1	0.2732	0.0500	1	1	0.866	5	0	82
65	1	286	0	2	3	0.2732	0.0500	0	1	0.690	7	0	0
65	1	287	1	1	3	0.2732	0.0500	0	1	0.821	53	82	82
65	1	288	9	2	2	0.2732	0.0500	0	1	0.623	0	82	82
65	1	289	0	2	2	0.2732	0.0500	0	1	0.533	8	0	0
65	1	290	1	1	3	0.2732	0.0500	1	1	0.553	80	82	0
65	1	291	0	2	2	0.2732	0.0500	0	1	0.479	9	0	0
65	1	292	0	2	3	0.2732	0.0500	1	1	0.601	7	82	0
65	1	293	9	2	2	0.2732	0.0500	1	1	0.564	0	82	0
65	1	294	0	2	2	0.2732	0.0500	1	1	0.507	8	82	0
65	1	295	0	1	1	0.2732	0.0500	1	1	0.506	8	0	82
65	1	296	1	1	1	0.2732	0.0500	1	1	0.481	87	82	0
65	1	297	1	1	2	0.2732	0.0500	1	1	0.596	75	82	0
65	1	298	0	2	2	0.2732	0.0500	0	1	0.500	8	0	0
65	1	299	9	1	1	0.2732	0.0500	0	1	0.881	0	0	0
65	1	300	0	1	1	0.2732	0.0500	1	1	0.575	8	0	82
65	1	301	0	2	1	0.2732	0.0500	1	1	0.590	8	82	0
65	1	302	0	1	1	0.2732	0.0500	1	1	0.921	5	0	82
65	1	303	0	1	1	0.2732	0.0500	1	1	0.548	8	0	82
65	1	304	0	1	1	0.2732	0.0500	0	1	0.640	7	0	0
65	1	305	0	1	1	0.2732	0.0500	0	1	0.654	7	0	0
65	1	306	0	2	2	0.2732	0.0500	0	1	0.572	8	0	0
65	1	307	9	1	3	0.2732	0.0500	0	1	0.626	0	0	0
65	1	308	1	2	2	0.2732	0.0500	0	1	0.815	53	82	82
65	1	309	0	1	3	0.2732	0.0500	1	1	0.616	7	0	82
65	1	310	1	2	2	0.2732	0.0500	1	1	0.600	75	0	82
65	1	311	9	2	2	0.2732	0.0500	0	1	0.610	0	82	82
65	1	312	0	1	3	0.2732	0.0500	0	1	0.666	7	0	0
65	1	313	0	2	2	0.2732	0.0500	0	1	0.625	7	0	0
65	1	314	0	2	2	0.2732	0.0500	0	1	0.424	9	0	0
65	1	315	9	1	3	0.2732	0.0500	1	1	0.894	0	82	0
65	1	316	0	2	2	0.2732	0.0500	1	1	0.561	8	82	0
65	1	317	1	1	3	0.2732	0.0500	1	1	0.703	65	82	0
65	1	318	9	2	2	0.2732	0.0500	1	1	0.547	0	82	0
65	1	319	0	1	3	0.2732	0.0500	0	1	0.740	6	0	0
65	1	320	0	1	3	0.2732	0.0500	0	1	0.486	9	0	0
65	1	321	1	2	2	0.2732	0.0500	0	1	0.428	92	82	82
65	1	322	1	2	2	0.2732	0.0500	1	0	0.605	0	0	82
65	1	323	1	1	1	0.2732	0.0500	0	1	0.574	78	82	82
65	1	324	0	2	2	0.2732	0.0500	0	1	0.556	8	0	0
65	1	325	0	2	2	0.2732	0.0500	1	0	0.625	0	82	0
65	1	326	1	2	3	0.2732	0.0500	0	1	0.701	65	82	82
65	1	327	0	2	2	0.2732	0.0500	1	1	0.710	6	82	0
65	1	328	9	2	2	0.2732	0.0500	1	1	1.585	0	0	82
65	1	329	1	1	3	0.2732	0.0500	1	1	0.723	63	82	0
65	1	330	0	1	1	0.2732	0.0500	0	1	0.800	6	0	0
65	1	331	0	2	3	0.2732	0.0500	1	1	0.656	7	82	0
65	1	332	0	2	3	0.2732	0.0500	0	1	0.552	8	0	0
65	1	333	0	2	3	0.2732	0.0500	0	1	0.536	8	0	0
65	1	334	1	2	3	0.2732	0.0500	0	1	0.388	96	82	82
65	1	335	9	1	2	0.2732	0.0500	0	1	0.736	0	82	82
65	1	336	1	2	1	0.2732	0.0500	0	1	0.451	90	82	82
65	1	337	0	1	1	0.2732	0.0500	1	1	0.585	8	0	82
65	1	338	1	2	3	0.2732	0.0500	1	0	0.557	0	0	82
65	1	339	9	2	3	0.2732	0.0500	0	1	0.580	0	82	82
65	1	340	9	1	3	0.2732	0.0500	0	1	0.634	0	82	82
65	1	341	0	1	3	0.2732	0.0500	1	1	0.607	7	0	82
65	1	342	9	1	3	0.2732	0.0500	1	1	0.492	0	82	0
65	1	343	0	2	3	0.2732	0.0500	0	1	0.492	9	0	0
65	1	344	9	1	1	0.2732	0.0500	0	1	0.677	0	82	82
65	1	345	1	2	3	0.2732	0.0500	0	1	0.542	81	82	82
65	1	346	9	1	1	0.2732	0.0500	1	1	0.619	0	82	0
65	1	347	9	1	3	0.2732	0.0500	1	1	0.550	0	0	82
65	1	348	1	1	3	0.2732	0.0500	1	1	0.546	80	82	0
65	1	349	1	2	3	0.2732	0.0500	1	1	1.472	50	0	82
65	1	350	0	2	2	0.2732	0.0500	0	1	0.417	9	0	0
65	1	351	0	1	3	0.2732	0.0500	1	1	0.549	8	0	82
65	1	352	1	2	2	0.2732	0.0500	0	1	0.569	78	82	82
65	1	353	1	1	3	0.2732	0.0500	0	1	1.075	50	82	82
65	1	354	1	1	1	0.2732	0.0500	1	1	0.686	66	82	0
65	1	355	9	2	2	0.2732	0.0500	1	1	0.633	0	82	0
65	1	356	0	1	3	0.2732	0.0500	1	1	0.550	8	0	82
65	1	357	0	2	3	0.2732	0.0500	0	1	0.476	9	0	0
65	1	358	1	1	3	0.2732	0.0500	0	1	0.736	61	82	82
65	1	359	0	2	3	0.2732	0.0500	0	0	0.662	0	0	0
65	1	360	0	2	3	0.2732	0.0500	1	1	0.593	8	82	0
65	1	361	9	1	3	0.2732	0.0500	1	1	0.702	0	0	82
65	1	362	1	1	1	0.2732	0.0500	1	1	0.603	75	82	0
65	1	363	1	1	1	0.2732	0.0500	0	1	0.518	83	82	82
65	1	364	1	1	3	0.2732	0.0500	1	1	0.576	77	82	0
65	1	365	0	1	1	0.2732	0.0500	1	1	0.515	8	0	82
65	1	366	9	2	3	0.2732	0.0500	1	1	0.687	0	82	0
65	1	367	1	2	3	0.2732	0.0500	0	1	0.526	82	82	82
65	1	368	0	1	1	0.2732	0.0500	1	1	0.464	9	0	82
65	1	369	9	1	3	0.2732	0.0500	1	1	0.851	0	82	0
65	1	370	1	2	2	0.2732	0.0500	1	1	0.580	77	0	82
65	1	371	9	1	1	0.2732	0.0500	1	1	0.542	0	82	0
65	1	372	1	1	1	0.2732	0.0500	1	1	0.461	89	82	0
65	1	373	1	2	2	0.2732	0.0500	0	1	0.480	87	82	82
65	1	374	1	1	2	0.2732	0.0500	0	1	0.646	70	82	82
65	1	375	0	1	1	0.2732	0.0500	1	1	1.915	5	0	82
65	1	376	1	1	2	0.2732	0.0500	1	0	0.545	0	82	0
65	1	377	9	2	3	0.2732	0.0500	1	1	0.635	0	0	82
65	1	378	0	1	1	0.2732	0.0500	1	1	0.547	8	0	82
65	1	379	0	2	2	0.2732	0.0500	1	1	0.478	9	82	0
65	1	380	0	1	1	0.2732	0.0500	1	0	0.913	0	0	82
65	1	381	0	1	1	0.2732	0.0500	0	1	0.714	6	0	0
65	1	382	0	1	1	0.2732	0.0500	0	1	0.632	7	0	0
65	1	383	9	1	2	0.2732	0.0500	0	1	0.462	0	0	0
65	1	384	1	2	3	0.2732	0.0500	0	0	0.984	0	82	82
65	1	385	1	1	3	0.2732	0.0500	1	1	0.472	88	82	0
65	1	386	9	1	1	0.2732	0.0500	1	1	0.725	0	0	82
65	1	387	1	1	3	0.2732	0.0500	0	1	0.497	85	82	82
65	1	388	0	2	3	0.2732	0.0500	1	1	1.415	5	82	0
65	1	389	0	2	2	0.2732	0.0500	1	1	0.547	8	82	0
65	1	390	1	2	2	0.2732	0.0500	0	1	0.446	90	82	82
65	1	391	1	1	3	0.2732	0.0500	1	1	0.525	83	82	0
65	1	392	1	2	1	0.2732	0.0500	1	1	0.571	78	0	82
65	1	393	1	1	3	0.2732	0.0500	0	1	0.700	65	82	82
65	1	394	9	2	3	0.2732	0.0500	0	1	0.460	0	0	0
65	1	395	1	2	3	0.2732	0.0500	1	1	0.506	84	0	82
65	1	396	1	1	3	0.2732	0.0500	0	1	0.996	50	82	82
65	1	397	0	2	3	0.2732	0.0500	1	1	0.661	7	82	0
65	1	398	9	1	2	0.2732	0.0500	0	1	0.566	0	82	82
65	1	399	0	2	2	0.2732	0.0500	1	1	1.108	5	82	0
65	1	400	1	1	3	0.2732	0.0500	1	1	0.723	63	82	0
65	1	401	9	2	1	0.2732	0.0500	1	1	0.804	0	82	0
65	1	402	1	1	1	0.2732	0.0500	0	1	0.794	56	82	82
65	1	403	0	1	3	0.2732	0.0500	1	1	0.777	6	0	82
65	1	404	9	2	3	0.2732	0.0500	1	1	0.598	0	82	0
65	1	405	1	1	1	0.2732	0.0500	1	1	0.635	71	82	0
65	1	406	1	2	3	0.2732	0.0500	1	1	0.590	76	0	82
65	1	407	0	2	2	0.2732	0.0500	0	1	0.842	5	0	0
65	1	408	1	2	2	0.2732	0.0500	1	1	0.473	88	0	82
65	1	409	1	1	1	0.2732	0.0500	1	1	0.670	68	82	0
65	1	410	0	2	2	0.2732	0.0500	1	1	0.702	6	82	0
65	1	411	0	1	3	0.2732	0.0500	1	1	0.478	9	0	82
65	1	412	0	1	3	0.2732	0.0500	0	1	0.773	6	0	0
65	1	413	0	2	2	0.2732	0.0500	1	1	0.506	8	82	0
65	1	414	1	2	2	0.2732	0.0500	0	1	1.006	50	82	82
65	1	415	0	2	3	0.2732	0.0500	1	1	1.205	5	82	0
65	1	416	0	1	3	0.2732	0.0500	1	1	0.593	8	0	82
65	1	417	0	2	2	0.2732	0.0500	1	1	0.568	8	82	0
65	1	418	9	1	1	0.2732	0.0500	1	1	0.605	0	0	82
65	1	419	0	1	3	0.2732	0.0500	0	1	0.548	8	0	0
65	1	420	9	1	1	0.2732	0.0500	1	1	0.491	0	0	82
65	1	421	9	1	3	0.2732	0.0500	0	1	0.591	0	82	82
65	1	422	0	1	3	0.2732	0.0500	0	1	0.550	8	0	0
65	1	423	1	2	3	0.2732	0.0500	1	1	0.722	63	0	82
65	1	424	1	2	2	0.2732	0.0500	1	1	1.321	50	0	82
65	1	425	9	1	1	0.2732	0.0500	0	1	0.719	0	0	0
65	1	426	0	2	2	0.2732	0.0500	1	1	0.585	8	82	0
65	1	427	1	2	3	0.2732	0.0500	0	0	1.122	0	82	82
65	1	428	1	2	2	0.2732	0.0500	0	1	0.513	84	82	82
65	1	429	0	1	3	0.2732	0.0500	0	1	0.548	8	0	0
65	1	430	0	2	2	0.2732	0.0500	1	1	0.516	8	82	0
65	1	431	0	1	3	0.2732	0.0500	0	1	0.637	7	0	0
65	1	432	1	1	3	0.2732	0.0500	0	1	0.695	66	82	82
65	1	433	1	1	3	0.2732	0.0500	0	1	0.523	83	82	82
65	1	434	0	2	3	0.2732	0.0500	0	0	1.006	0	0	0
65	1	435	9	1	1	0.2732	0.0500	1	1	1.131	0	82	0
65	1	436	0	1	1	0.2732	0.0500	1	1	0.648	7	0	82
65	1	437	1	2	2	0.2732	0.0500	0	1	1.158	50	82	82
65	1	438	0	2	2	0.2732	0.0500	0	1	0.446	9	0	0
65	1	439	0	2	1	0.2732	0.0500	0	1	0.473	9	0	0
65	1	440	1	1	1	0.2732	0.0500	1	1	0.540	81	82	0
65	1	441	9	1	1	0.2732	0.0500	0	1	0.680	0	82	82
65	1	442	1	2	3	0.2732	0.0500	1	1	0.814	54	0	82
65	1	443	9	2	3	0.2732	0.0500	0	1	0.780	0	0	0
65	1	444	0	1	1	0.2732	0.0500	0	1	0.667	7	0	0
65	1	445	0	2	3	0.2732	0.0500	1	1	0.543	8	82	0
65	1	446	0	2	3	0.2732	0.0500	0	1	0.438	9	0	0
65	1	447	9	1	3	0.2732	0.0500	0	1	0.723	0	82	82
65	1	448	0	1	1	0.2732	0.0500	1	1	0.532	8	0	82
65	1	449	0	2	2	0.2732	0.0500	1	1	0.550	8	82	0
65	1	450	0	2	3	0.2732	0.0500	1	1	0.527	8	82	0
65	1	451	1	1	1	0.2732	0.0500	0	1	0.505	84	82	82
65	1	452	1	1	3	0.2732	0.0500	0	1	0.523	83	82	82
65	1	453	1	2	2	0.2732	0.0500	0	1	0.550	80	82	82
65	1	454	0	2	2	0.2732	0.0500	1	1	0.595	8	82	0
65	1	455	0	2	2	0.2732	0.0500	1	1	0.702	6	82	0
65	1	456	1	1	3	0.2732	0.0500	1	1	1.798	50	82	0
65	1	457	1	1	2	0.2732	0.0500	0	1	0.713	64	82	82
65	1	458	1	2	2	0.2732	0.0500	0	1	0.895	50	82	82
65	1	459	0	2	3	0.2732	0.0500	0	1	0.473	9	0	0
65	1	460	1	2	2	0.2732	0.0500	1	1	0.639	71	0	82
65	1	461	0	1	3	0.2732	0.0500	1	1	0.707	6	0	82
65	1	462	0	1	3	0.2732	0.0500	0	1	0.501	8	0	0
65	1	463	0	1	3	0.2732	0.0500	0	1	0.507	8	0	0
65	1	464	1	1	3	0.2732	0.0500	0	1	0.494	86	82	82
65	1	465	1	2	2	0.2732	0.0500	0	1	0.729	62	82	82
65	1	466	1	2	3	0.2732	0.0500	0	1	0.432	92	82	82
65	1	467	0	1	3	0.2732	0.0500	0	1	0.617	7	0	0
65	1	468	1	1	3	0.2732	0.0500	0	1	0.611	74	82	82
65	1	469	1	2	2	0.2732	0.0500	0	1	0.411	94	82	82
65	1	470	9	2	2	0.2732	0.0500	1	1	0.656	0	82	0
65	1	471	9	2	2	0.2732	0.0500	0	1	0.459	0	0	0
65	1	472	9	1	3	0.2732	0.0500	0	1	0.750	0	82	82
65	1	473	1	2	1	0.2732	0.0500	1	1	0.657	69	0	82
65	1	474	1	1	1	0.2732	0.0500	0	1	0.545	81	82	82
65	1	475	1	2	2	0.2732	0.0500	0	1	0.403	95	82	82
65	1	476	1	2	2	0.2732	0.0500	1	1	0.600	75	0	82
65	1	477	9	1	3	0.2732	0.0500	1	1	0.892	0	0	82
65	1	478	1	1	1	0.2732	0.0500	1	1	0.503	85	82	0
65	1	479	0	1	1	0.2732	0.0500	1	1	0.579	8	0	82
65	1	480	9	2	2	0.2732	0.0500	1	1	0.515	0	0	82
65	1	481	1	2	3	0.2732	0.0500	1	1	0.710	64	0	82
65	1	482	9	1	3	0.2732	0.0500	0	1	0.755	0	0	0
65	1	483	0	2	3	0.2732	0.0500	1	1	0.503	8	82	0
65	1	484	0	1	1	0.2732	0.0500	0	1	0.588	8	0	0
65	1	485	0	1	1	0.2732	0.0500	1	0	0.712	0	0	82
65	1	486	1	1	1	0.2732	0.0500	1	1	1.744	50	82	0
65	1	487	0	1	3	0.2732	0.0500	0	1	0.641	7	0	0
65	1	488	0	1	2	0.2732	0.0500	0	1	0.478	9	0	0
65	1	489	0	2	1	0.2732	0.0500	0	1	0.485	9	0	0
65	1	490	9	2	3	0.2732	0.0500	1	1	0.592	0	0	82
65	1	491	9	2	3	0.2732	0.0500	0	1	0.877	0	0	0
65	1	492	1	1	3	0.2732	0.0500	0	1	0.631	72	82	82
65	1	493	9	2	3	0.2732	0.0500	0	1	0.471	0	82	82
65	1	494	0	2	2	0.2732	0.0500	0	1	0.496	9	0	0
65	1	495	1	1	3	0.2732	0.0500	0	1	0.563	79	82	82
65	1	496	1	2	1	0.2732	0.0500	0	1	0.410	94	82	82
65	1	497	0	2	2	0.2732	0.0500	0	1	0.358	10	0	0
65	1	498	1	1	1	0.2732	0.0500	1	1	0.681	67	82	0
65	1	499	9	2	3	0.2732	0.0500	0	1	0.440	0	82	82
65	1	500	9	2	2	0.2732	0.0500	1	0	0.707	0	0	82
65	1	501	1	1	1	0.2732	0.0500	0	1	0.644	71	82	82
65	1	502	0	1	1	0.2732	0.0500	1	1	0.570	8	0	82
65	1	503	1	1	2	0.2732	0.0500	1	1	0.454	90	82	0
65	1	504	0	1	1	0.2732	0.0500	0	0	0.701	0	0	0
65	1	505	9	1	1	0.2732	0.0500	0	1	0.571	0	0	0
65	1	506	0	1	2	0.2732	0.0500	0	1	0.437	9	0	0
65	1	507	9	2	3	0.2732	0.0500	1	1	0.700	0	0	82
65	1	508	0	1	3	0.2732	0.0500	1	1	0.500	9	0	82
65	1	509	0	1	3	0.2732	0.0500	1	1	0.554	8	0	82
65	1	510	1	1	2	0.2732	0.0500	0	1	0.538	81	82	82
65	1	511	0	1	1	0.2732	0.0500	0	1	0.475	9	0	0
65	1	512	1	1	3	0.2732	0.0500	1	1	0.661	69	82	0
65	1	513	0	1	1	0.2732	0.0500	0	1	0.465	9	0	0
65	1	514	9	1	1	0.2732	0.0500	0	1	0.438	0	82	82
65	1	515	0	2	3	0.2732	0.0500	1	1	1.152	5	82	0
65	1	516	0	2	1	0.2732	0.0500	0	1	0.424	9	0	0
65	1	517	0	2	2	0.2732	0.0500	1	1	0.539	8	82	0
65	1	518	0	2	1	0.2732	0.0500	1	1	0.493	9	82	0
65	1	519	0	2	2	0.2732	0.0500	0	1	0.433	9	0	0
65	1	520	0	2	2	0.2732	0.0500	0	1	0.402	9	0	0
65	1	521	1	2	2	0.2732	0.0500	0	1	0.432	92	82	82
65	1	522	1	2	3	0.2732	0.0500	1	1	0.726	62	0	82
65	1	523	0	2	2	0.2732	0.0500	0	1	0.454	9	0	0
65	1	524	0	1	1	0.2732	0.0500	1	0	0.718	0	0	82
65	1	525	0	2	3	0.2732	0.0500	0	1	0.499	9	0	0
65	1	526	0	2	2	0.2732	0.0500	0	1	0.451	9	0	0
65	1	527	1	2	3	0.2732	0.0500	0	1	0.476	87	82	82
65	1	528	1	1	1	0.2732	0.0500	1	1	0.614	74	82	0
65	1	529	1	2	2	0.2732	0.0500	1	1	0.808	54	0	82
65	1	530	1	1	1	0.2732	0.0500	1	1	0.587	76	82	0
65	1	531	9	1	3	0.2732	0.0500	0	1	0.516	0	0	0
65	1	532	1	1	3	0.2732	0.0500	0	1	1.449	50	82	82
65	1	533	1	1	1	0.2732	0.0500	1	1	0.481	87	82	0
65	1	534	0	1	3	0.2732	0.0500	1	1	0.492	9	0	82
65	1	535	9	1	1	0.2732	0.0500	0	1	0.564	0	82	82
65	1	536	9	1	3	0.2732	0.0500	0	1	0.506	0	0	0
65	1	537	0	1	3	0.2732	0.0500	1	0	0.474	0	0	82
65	1	538	0	1	1	0.2732	0.0500	0	1	0.653	7	0	0
65	1	539	0	1	1	0.2732	0.0500	1	1	0.471	9	0	82
65	1	540	0	2	3	0.2732	0.0500	0	1	0.563	8	0	0
65	1	541	0	2	3	0.2732	0.0500	0	1	0.659	7	0	0
65	1	542	0	2	1	0.2732	0.0500	1	1	0.935	5	82	0
65	1	543	1	1	1	0.2732	0.0500	0	1	0.938	50	82	82
65	1	544	9	2	2	0.2732	0.0500	0	1	1.450	0	82	82
65	1	545	9	1	2	0.2732	0.0500	1	1	0.598	0	82	0
65	1	546	0	1	3	0.2732	0.0500	0	1	0.532	8	0	0
65	1	547	9	2	2	0.2732	0.0500	1	1	0.540	0	0	82
65	1	548	1	1	3	0.2732	0.0500	1	1	0.596	75	82	0
65	1	549	1	2	3	0.2732	0.0500	0	1	1.201	50	82	82
65	1	550	0	1	1	0.2732	0.0500	1	1	0.627	7	0	82
65	1	551	1	1	3	0.2732	0.0500	1	1	0.502	85	82	0
65	1	552	0	1	1	0.2732	0.0500	1	1	0.490	9	0	82
65	1	553	0	1	3	0.2732	0.0500	0	1	0.471	9	0	0
65	1	554	1	1	3	0.2732	0.0500	1	1	0.542	81	82	0
65	1	555	9	1	1	0.2732	0.0500	0	1	0.474	0	82	82
65	1	556	1	2	2	0.2732	0.0500	1	1	0.508	84	0	82
65	1	557	9	1	3	0.2732	0.0500	0	1	0.516	0	0	0
65	1	558	0	1	3	0.2732	0.0500	1	0	0.555	0	0	82
65	1	559	9	2	2	0.2732	0.0500	1	1	0.548	0	82	0
65	1	560	0	2	3	0.2732	0.0500	0	1	0.511	8	0	0
65	1	561	9	2	2	0.2732	0.0500	1	1	0.490	0	82	0
65	1	562	1	2	3	0.2732	0.0500	1	1	0.661	69	0	82
65	1	563	1	1	1	0.2732	0.0500	0	1	0.875	50	82	82
65	1	564	0	2	2	0.2732	0.0500	0	1	0.469	9	0	0
65	1	565	1	2	2	0.2732	0.0500	0	1	0.412	94	82	82
65	1	566	1	2	2	0.2732	0.0500	1	1	0.511	84	0	82
65	1	567	1	2	2	0.2732	0.0500	0	1	0.449	90	82	82
65	1	568	1	2	3	0.2732	0.0500	0	1	0.434	92	82	82
65	1	569	9	1	3	0.2732	0.0500	0	1	0.706	0	82	82
65	1	570	1	1	1	0.2732	0.0500	1	1	0.492	86	82	0
65	1	571	0	2	1	0.2732	0.0500	0	1	0.475	9	0	0
65	1	572	9	2	3	0.2732	0.0500	1	0	0.652	0	82	0
65	1	573	0	2	1	0.2732	0.0500	1	1	0.742	6	82	0
65	1	574	0	2	3	0.2732	0.0500	1	1	0.541	8	82	0
65	1	575	1	2	3	0.2732	0.0500	0	1	0.444	91	82	82
65	1	576	1	2	1	0.2732	0.0500	1	0	0.985	0	0	82
65	1	577	9	2	2	0.2732	0.0500	1	1	0.500	0	82	0
65	1	578	1	1	3	0.2732	0.0500	0	1	0.654	70	82	82
65	1	579	0	1	1	0.2732	0.0500	1	1	0.565	8	0	82
65	1	580	1	1	1	0.2732	0.0500	1	1	0.499	85	82	0
65	1	581	0	2	3	0.2732	0.0500	0	1	0.445	9	0	0
65	1	582	0	1	1	0.2732	0.0500	0	1	0.807	5	0	0
65	1	583	1	2	3	0.2732	0.0500	0	1	0.430	92	82	82
65	1	584	1	2	1	0.2732	0.0500	0	1	0.429	92	82	82
65	1	585	0	1	3	0.2732	0.0500	0	1	0.769	6	0	0
65	1	586	9	2	3	0.2732	0.0500	1	1	0.565	0	0	82
65	1	587	0	1	3	0.2732	0.0500	0	1	0.616	7	0	0
65	1	588	1	1	2	0.2732	0.0500	0	1	0.563	79	82	82
65	1	589	1	2	3	0.2732	0.0500	1	1	0.629	72	0	82
65	1	590	9	2	3	0.2732	0.0500	0	1	0.579	0	82	82
65	1	591	1	2	1	0.2732	0.0500	0	1	0.728	62	82	82
65	1	592	1	2	3	0.2732	0.0500	1	1	0.554	80	0	82
65	1	593	9	2	1	0.2732	0.0500	0	1	0.497	0	0	0
65	1	594	1	2	2	0.2732	0.0500	1	1	0.547	80	0	82
65	1	595	1	2	1	0.2732	0.0500	1	1	0.402	95	0	82
65	1	596	0	2	3	0.2732	0.0500	0	1	0.422	9	0	0
65	1	597	1	1	1	0.2732	0.0500	0	0	0.576	0	82	82
65	1	598	1	2	3	0.2732	0.0500	0	1	0.423	93	82	82
65	1	599	9	2	3	0.2732	0.0500	1	1	0.579	0	82	0
65	1	600	0	1	2	0.2732	0.0500	1	1	0.650	7	0	82
65	1	601	0	2	2	0.2732	0.0500	1	1	0.581	8	82	0
65	1	602	0	2	3	0.2732	0.0500	1	1	0.426	9	82	0
65	1	603	0	2	3	0.2732	0.0500	0	1	0.610	7	0	0
65	1	604	1	2	2	0.2732	0.0500	1	1	0.684	67	0	82
65	1	605	0	2	3	0.2732	0.0500	1	1	0.481	9	82	0
65	1	606	0	2	3	0.2732	0.0500	0	1	0.876	5	0	0
65	1	607	0	2	3	0.2732	0.0500	0	1	0.457	9	0	0
65	1	608	1	1	3	0.2732	0.0500	0	1	1.008	50	82	82
65	1	609	0	1	3	0.2732	0.0500	0	1	0.549	8	0	0
65	1	610	9	2	2	0.2732	0.0500	1	1	0.564	0	0	82
65	1	611	0	2	2	0.2732	0.0500	1	1	0.605	7	82	0
65	1	612	9	2	1	0.2732	0.0500	1	1	0.701	0	0	82
65	1	613	0	2	3	0.2732	0.0500	0	1	0.663	7	0	0
65	1	614	1	1	1	0.2732	0.0500	0	1	0.610	74	82	82
65	1	615	1	1	3	0.2732	0.0500	0	1	0.586	76	82	82
65	1	616	9	2	2	0.2732	0.0500	0	1	0.523	0	0	0
65	1	617	1	2	1	0.2732	0.0500	0	1	0.440	91	82	82
65	1	618	0	1	1	0.2732	0.0500	0	1	0.483	9	0	0
65	1	619	0	2	3	0.2732	0.0500	1	1	0.592	8	82	0
65	1	620	0	1	3	0.2732	0.0500	1	1	0.550	8	0	82
65	1	621	1	2	3	0.2732	0.0500	0	1	0.582	77	82	82
65	1	622	0	1	1	0.2732	0.0500	0	1	0.637	7	0	0
65	1	623	0	1	1	0.2732	0.0500	0	1	0.425	9	0	0
65	1	624	1	2	3	0.2732	0.0500	1	1	0.527	82	0	82
65	1	625	0	2	3	0.2732	0.0500	1	1	0.495	9	82	0
65	1	626	1	1	3	0.2732	0.0500	1	1	0.700	65	82	0
65	1	627	1	2	3	0.2732	0.0500	0	1	0.817	53	82	82
65	1	628	1	1	3	0.2732	0.0500	1	1	0.771	58	82	0
65	1	629	9	1	1	0.2732	0.0500	1	1	0.636	0	82	0
65	1	630	0	1	2	0.2732	0.0500	1	1	0.516	8	0	82
65	1	631	1	1	2	0.2732	0.0500	1	1	0.615	74	82	0
65	1	632	0	1	3	0.2732	0.0500	0	1	0.455	9	0	0
65	1	633	0	2	3	0.2732	0.0500	0	1	0.546	8	0	0
65	1	634	9	2	2	0.2732	0.0500	0	1	0.498	0	82	82
65	1	635	9	1	3	0.2732	0.0500	1	1	1.409	0	0	82
65	1	636	0	1	3	0.2732	0.0500	1	1	0.546	8	0	82
65	1	637	1	1	3	0.2732	0.0500	1	1	0.594	76	82	0
65	1	638	9	1	3	0.2732	0.0500	1	1	0.458	0	82	0
65	1	639	0	1	3	0.2732	0.0500	1	1	0.483	9	0	82
65	1	640	9	1	1	0.2732	0.0500	0	1	0.731	0	0	0
65	1	641	1	1	1	0.2732	0.0500	0	1	0.555	79	82	82
65	1	642	0	2	2	0.2732	0.0500	0	1	0.504	8	0	0
65	1	643	0	1	2	0.2732	0.0500	0	1	0.625	7	0	0
65	1	644	0	2	2	0.2732	0.0500	0	1	0.501	8	0	0
65	1	645	1	2	3	0.2732	0.0500	0	1	0.449	90	82	82
65	1	646	0	2	3	0.2732	0.0500	1	1	0.511	8	82	0
65	1	647	1	1	1	0.2732	0.0500	0	1	0.675	67	82	82
65	1	648	0	2	2	0.2732	0.0500	0	1	0.413	9	0	0
65	1	649	0	1	2	0.2732	0.0500	1	1	0.564	8	0	82
65	1	650	0	2	3	0.2732	0.0500	0	1	0.415	9	0	0
65	1	651	1	1	3	0.2732	0.0500	0	1	0.603	75	82	82
65	1	652	0	1	2	0.2732	0.0500	1	1	0.659	7	0	82
65	1	653	1	1	3	0.2732	0.0500	1	1	0.556	79	82	0
65	1	654	0	2	1	0.2732	0.0500	1	1	0.811	5	82	0
65	1	655	9	1	3	0.2732	0.0500	1	1	0.557	0	82	0
65	1	656	0	1	1	0.2732	0.0500	0	1	0.558	8	0	0
65	1	657	9	2	3	0.2732	0.0500	0	1	0.917	0	82	82
65	1	658	1	2	3	0.2732	0.0500	1	0	0.496	0	0	82
65	1	659	1	2	2	0.2732	0.0500	0	1	0.636	71	82	82
65	1	660	0	1	1	0.2732	0.0500	0	1	0.605	7	0	0
65	1	661	1	2	3	0.2732	0.0500	1	1	1.359	50	0	82
65	1	662	1	1	1	0.2732	0.0500	0	1	0.661	69	82	82
65	1	663	1	2	2	0.2732	0.0500	1	1	0.582	77	0	82
65	1	664	1	1	3	0.2732	0.0500	1	1	1.215	50	82	0
65	1	665	0	1	2	0.2732	0.0500	0	1	0.789	6	0	0
65	1	666	1	1	3	0.2732	0.0500	1	1	0.590	76	82	0
65	1	667	0	2	2	0.2732	0.0500	0	1	0.498	9	0	0
65	1	668	1	2	2	0.2732	0.0500	0	1	0.429	92	82	82
65	1	669	0	2	3	0.2732	0.0500	1	1	0.736	6	82	0
65	1	670	0	1	3	0.2732	0.0500	1	1	1.618	5	0	82
65	1	671	0	2	3	0.2732	0.0500	0	1	0.455	9	0	0
65	1	672	0	1	3	0.2732	0.0500	0	1	0.625	7	0	0
65	1	673	1	2	2	0.2732	0.0500	1	1	0.567	78	0	82
65	1	674	1	1	1	0.2732	0.0500	1	1	0.587	76	82	0
65	1	675	1	2	2	0.2732	0.0500	1	1	0.506	84	0	82
65	1	676	1	2	3	0.2732	0.0500	1	1	0.532	82	0	82
65	1	677	9	2	2	0.2732	0.0500	0	1	0.466	0	0	0
65	1	678	1	1	1	0.2732	0.0500	0	1	0.594	76	82	82
65	1	679	1	2	3	0.2732	0.0500	1	1	0.584	77	0	82
65	1	680	9	1	1	0.2732	0.0500	0	1	0.529	0	0	0
65	1	681	1	1	1	0.2732	0.0500	1	1	0.637	71	82	0
65	1	682	9	2	3	0.2732	0.0500	0	0	1.179	0	0	0
65	1	683	9	1	3	0.2732	0.0500	1	1	0.649	0	0	82
65	1	684	9	2	2	0.2732	0.0500	0	0	0.837	0	0	0
65	1	685	1	2	3	0.2732	0.0500	1	1	0.559	79	0	82
65	1	686	9	1	2	0.2732	0.0500	1	1	0.545	0	0	82
65	1	687	9	2	2	0.2732	0.0500	0	1	0.520	0	82	82
65	1	688	1	1	1	0.2732	0.0500	0	1	0.717	63	82	82
65	1	689	1	2	2	0.2732	0.0500	1	1	0.606	74	0	82
65	1	690	0	2	2	0.2732	0.0500	1	1	0.790	6	82	0
65	1	691	9	2	1	0.2732	0.0500	0	0	0.803	0	82	82
65	1	692	0	2	2	0.2732	0.0500	0	1	0.522	8	0	0
65	1	693	1	2	2	0.2732	0.0500	1	1	0.510	84	0	82
65	1	694	1	1	1	0.2732	0.0500	0	1	0.579	77	82	82
65	1	695	0	1	1	0.2732	0.0500	0	1	0.431	9	0	0
65	1	696	9	1	1	0.2732	0.0500	1	1	0.627	0	0	82
65	1	697	0	1	3	0.2732	0.0500	1	1	0.956	5	0	82
65	1	698	0	2	2	0.2732	0.0500	0	1	0.477	9	0	0
65	1	699	0	2	3	0.2732	0.0500	1	1	0.592	8	82	0
65	1	700	1	2	3	0.2732	0.0500	1	1	0.533	82	0	82
65	1	701	9	1	1	0.2732	0.0500	1	1	1.208	0	82	0
65	1	702	1	2	3	0.2732	0.0500	0	1	1.017	50	82	82
65	1	703	0	2	2	0.2732	0.0500	0	1	0.473	9	0	0
65	1	704	9	1	3	0.2732	0.0500	1	1	0.622	0	82	0
65	1	705	0	1	1	0.2732	0.0500	1	1	0.511	8	0	82
65	1	706	1	2	3	0.2732	0.0500	0	1	0.476	87	82	82
65	1	707	0	2	3	0.2732	0.0500	1	1	0.595	8	82	0
65	1	708	1	1	1	0.2732	0.0500	0	1	0.542	81	82	82
65	1	709	1	1	3	0.2732	0.0500	0	1	0.394	96	82	82
65	1	710	1	2	3	0.2732	0.0500	0	1	0.706	64	82	82
65	1	711	0	1	1	0.2732	0.0500	0	1	0.456	9	0	0
65	1	712	1	1	2	0.2732	0.0500	1	1	0.550	80	82	0
65	1	713	1	1	1	0.2732	0.0500	1	1	0.483	87	82	0
65	1	714	1	1	3	0.2732	0.0500	1	1	0.452	90	82	0
65	1	715	0	1	3	0.2732	0.0500	1	1	0.537	8	0	82
65	1	716	9	2	2	0.2732	0.0500	0	1	0.515	0	82	82
65	1	717	0	2	2	0.2732	0.0500	1	1	0.770	6	82	0
65	1	718	0	1	3	0.2732	0.0500	1	1	0.770	6	0	82
65	1	719	1	2	2	0.2732	0.0500	0	1	0.623	73	82	82
65	1	720	1	2	2	0.2732	0.0500	1	1	0.641	71	0	82
