sub	sess	t	rew	loc	cue	co1	co2	or	resp	rt	rew_tot	left_col	right_col
38	1	1	0	1	3	0.3703	0.2372	0	1	0.544	8	82	82
38	1	2	9	2	3	0.3703	0.2372	1	1	0.877	0	82	0
38	1	3	0	1	2	0.3703	0.2372	1	0	0.669	0	82	0
38	1	4	1	2	3	0.3703	0.2372	0	1	0.724	63	0	0
38	1	5	1	2	2	0.3703	0.2372	0	0	0.736	0	0	0
38	1	6	1	2	1	0.3703	0.2372	1	1	1.430	50	82	0
38	1	7	9	2	2	0.3703	0.2372	0	1	0.612	0	82	82
38	1	8	9	2	2	0.3703	0.2372	1	1	0.622	0	82	0
38	1	9	1	2	2	0.3703	0.2372	0	1	0.703	65	0	0
38	1	10	0	2	3	0.3703	0.2372	1	1	0.635	7	0	82
38	1	11	0	1	1	0.3703	0.2372	1	1	0.677	7	82	0
38	1	12	0	2	3	0.3703	0.2372	1	1	0.748	6	0	82
38	1	13	9	2	3	0.3703	0.2372	1	1	0.600	0	82	0
38	1	14	1	2	3	0.3703	0.2372	1	1	0.488	86	82	0
38	1	15	0	1	2	0.3703	0.2372	0	1	0.877	5	82	82
38	1	16	0	2	1	0.3703	0.2372	0	1	0.926	5	82	82
38	1	17	9	2	1	0.3703	0.2372	0	1	0.883	0	82	82
38	1	18	0	1	3	0.3703	0.2372	1	1	1.137	5	82	0
38	1	19	1	1	2	0.3703	0.2372	0	1	0.590	76	0	0
38	1	20	0	1	3	0.3703	0.2372	1	0	0.921	0	82	0
38	1	21	9	2	2	0.3703	0.2372	0	1	0.752	0	82	82
38	1	22	1	1	1	0.3703	0.2372	0	1	0.779	57	0	0
38	1	23	1	1	1	0.3703	0.2372	1	1	0.707	64	0	82
38	1	24	0	1	3	0.3703	0.2372	1	1	0.706	6	82	0
38	1	25	0	1	2	0.3703	0.2372	1	1	0.593	8	82	0
38	1	26	1	1	3	0.3703	0.2372	0	1	0.604	75	0	0
38	1	27	1	2	3	0.3703	0.2372	0	1	0.662	69	0	0
38	1	28	1	1	1	0.3703	0.2372	1	1	0.613	74	0	82
38	1	29	0	1	3	0.3703	0.2372	1	1	0.590	8	82	0
38	1	30	1	2	2	0.3703	0.2372	1	1	0.554	80	82	0
38	1	31	9	2	2	0.3703	0.2372	1	1	0.604	0	0	82
38	1	32	1	1	3	0.3703	0.2372	0	0	3.397	0	0	0
38	1	33	1	1	3	0.3703	0.2372	0	1	0.630	72	0	0
38	1	34	0	1	1	0.3703	0.2372	1	1	0.832	5	82	0
38	1	35	9	2	3	0.3703	0.2372	0	1	0.752	0	82	82
38	1	36	0	1	3	0.3703	0.2372	1	1	1.026	5	82	0
38	1	37	0	1	3	0.3703	0.2372	0	1	0.826	5	82	82
38	1	38	0	2	2	0.3703	0.2372	0	1	0.659	7	82	82
38	1	39	1	1	1	0.3703	0.2372	0	1	0.547	80	0	0
38	1	40	1	1	1	0.3703	0.2372	0	1	0.527	82	0	0
38	1	41	1	2	2	0.3703	0.2372	0	1	1.095	50	0	0
38	1	42	1	2	2	0.3703	0.2372	1	1	0.755	60	82	0
38	1	43	1	2	2	0.3703	0.2372	0	1	0.630	72	0	0
38	1	44	0	2	2	0.3703	0.2372	0	1	0.597	8	82	82
38	1	45	0	1	2	0.3703	0.2372	1	1	0.663	7	82	0
38	1	46	1	1	3	0.3703	0.2372	0	1	0.840	51	0	0
38	1	47	1	1	3	0.3703	0.2372	1	1	1.032	50	0	82
38	1	48	0	1	1	0.3703	0.2372	0	1	0.680	7	82	82
38	1	49	1	1	1	0.3703	0.2372	1	1	0.684	67	0	82
38	1	50	1	2	3	0.3703	0.2372	1	1	0.762	59	82	0
38	1	51	1	1	3	0.3703	0.2372	1	1	0.727	62	0	82
38	1	52	0	2	2	0.3703	0.2372	1	1	0.610	7	0	82
38	1	53	0	2	3	0.3703	0.2372	1	1	0.549	8	0	82
38	1	54	0	1	3	0.3703	0.2372	0	1	0.583	8	82	82
38	1	55	9	1	1	0.3703	0.2372	1	1	0.852	0	0	82
38	1	56	9	2	2	0.3703	0.2372	0	1	0.732	0	0	0
38	1	57	1	2	2	0.3703	0.2372	1	1	0.640	71	82	0
38	1	58	0	2	3	0.3703	0.2372	1	1	0.504	8	0	82
38	1	59	9	1	3	0.3703	0.2372	1	1	0.734	0	82	0
38	1	60	0	1	3	0.3703	0.2372	0	1	0.555	8	82	82
38	1	61	9	2	2	0.3703	0.2372	0	0	0.776	0	0	0
38	1	62	1	1	1	0.3703	0.2372	0	1	0.628	72	0	0
38	1	63	0	2	3	0.3703	0.2372	0	1	0.733	6	82	82
38	1	64	0	2	2	0.3703	0.2372	1	1	0.642	7	0	82
38	1	65	0	2	2	0.3703	0.2372	1	1	0.739	6	0	82
38	1	66	0	1	1	0.3703	0.2372	1	1	1.543	5	82	0
38	1	67	1	1	1	0.3703	0.2372	0	1	0.620	73	0	0
38	1	68	0	1	3	0.3703	0.2372	1	1	0.644	7	82	0
38	1	69	0	2	2	0.3703	0.2372	1	1	0.814	5	0	82
38	1	70	0	1	1	0.3703	0.2372	0	1	0.504	8	82	82
38	1	71	0	2	3	0.3703	0.2372	1	1	0.660	7	0	82
38	1	72	1	1	3	0.3703	0.2372	1	1	0.644	71	0	82
38	1	73	0	1	3	0.3703	0.2372	1	1	0.653	7	82	0
38	1	74	0	1	3	0.3703	0.2372	1	1	0.564	8	82	0
38	1	75	1	1	1	0.3703	0.2372	0	1	0.503	85	0	0
38	1	76	1	2	3	0.3703	0.2372	1	1	0.927	50	82	0
38	1	77	9	2	3	0.3703	0.2372	0	1	0.697	0	0	0
38	1	78	9	2	3	0.3703	0.2372	1	1	0.609	0	82	0
38	1	79	9	1	1	0.3703	0.2372	0	1	0.547	0	82	82
38	1	80	0	2	3	0.3703	0.2372	1	1	0.646	7	0	82
38	1	81	0	1	3	0.3703	0.2372	1	1	1.041	5	82	0
38	1	82	1	1	3	0.3703	0.2372	0	1	0.545	81	0	0
38	1	83	1	2	3	0.3703	0.2372	1	1	0.667	68	82	0
38	1	84	0	1	3	0.3703	0.2372	1	1	0.466	9	82	0
38	1	85	1	2	3	0.3703	0.2372	0	1	0.578	77	0	0
38	1	86	1	1	3	0.3703	0.2372	0	1	0.435	91	0	0
38	1	87	0	2	3	0.3703	0.2372	0	1	0.493	9	82	82
38	1	88	9	2	3	0.3703	0.2372	1	1	0.842	0	0	82
38	1	89	1	1	1	0.3703	0.2372	0	1	0.474	88	0	0
38	1	90	0	2	2	0.3703	0.2372	0	1	0.595	8	82	82
38	1	91	1	2	3	0.3703	0.2372	0	0	0.519	0	0	0
38	1	92	1	2	3	0.3703	0.2372	0	1	0.515	84	0	0
38	1	93	9	1	1	0.3703	0.2372	1	1	0.599	0	0	82
38	1	94	0	2	3	0.3703	0.2372	1	1	0.576	8	0	82
38	1	95	1	1	1	0.3703	0.2372	1	0	0.377	0	0	82
38	1	96	0	2	1	0.3703	0.2372	0	1	0.902	5	82	82
38	1	97	9	1	1	0.3703	0.2372	1	1	0.428	0	0	82
38	1	98	0	1	1	0.3703	0.2372	1	1	0.699	7	82	0
38	1	99	9	1	1	0.3703	0.2372	0	1	0.432	0	82	82
38	1	100	9	2	2	0.3703	0.2372	0	1	0.542	0	0	0
38	1	101	1	1	3	0.3703	0.2372	1	1	0.736	61	0	82
38	1	102	9	2	1	0.3703	0.2372	1	1	0.813	0	0	82
38	1	103	0	1	3	0.3703	0.2372	0	1	0.463	9	82	82
38	1	104	1	2	3	0.3703	0.2372	1	1	0.456	89	82	0
38	1	105	9	1	3	0.3703	0.2372	1	1	0.495	0	0	82
38	1	106	1	2	2	0.3703	0.2372	0	1	0.597	75	0	0
38	1	107	1	2	3	0.3703	0.2372	1	1	0.533	82	82	0
38	1	108	0	2	3	0.3703	0.2372	0	1	0.585	8	82	82
38	1	109	0	2	1	0.3703	0.2372	1	1	0.498	9	0	82
38	1	110	1	2	2	0.3703	0.2372	0	1	0.432	92	0	0
38	1	111	1	1	1	0.3703	0.2372	0	1	0.462	89	0	0
38	1	112	1	2	3	0.3703	0.2372	1	1	0.468	88	82	0
38	1	113	1	2	2	0.3703	0.2372	0	1	0.387	96	0	0
38	1	114	0	2	3	0.3703	0.2372	0	0	0.381	0	82	82
38	1	115	0	2	2	0.3703	0.2372	1	0	0.502	0	0	82
38	1	116	9	1	2	0.3703	0.2372	1	1	0.547	0	0	82
38	1	117	1	2	2	0.3703	0.2372	0	1	0.414	94	0	0
38	1	118	9	2	3	0.3703	0.2372	1	1	0.511	0	0	82
38	1	119	9	1	2	0.3703	0.2372	0	1	0.478	0	82	82
38	1	120	0	2	2	0.3703	0.2372	1	1	0.499	9	0	82
38	1	121	9	1	3	0.3703	0.2372	1	0	0.652	0	82	0
38	1	122	0	2	3	0.3703	0.2372	1	1	0.745	6	0	82
38	1	123	0	1	3	0.3703	0.2372	0	1	0.485	9	82	82
38	1	124	0	1	3	0.3703	0.2372	1	1	0.755	6	82	0
38	1	125	0	1	1	0.3703	0.2372	1	1	0.918	5	82	0
38	1	126	0	2	2	0.3703	0.2372	0	1	0.457	9	82	82
38	1	127	1	2	3	0.3703	0.2372	0	1	0.544	81	0	0
38	1	128	0	1	3	0.3703	0.2372	0	1	0.459	9	82	82
38	1	129	0	1	1	0.3703	0.2372	1	1	0.664	7	82	0
38	1	130	1	1	3	0.3703	0.2372	0	1	0.405	95	0	0
38	1	131	9	1	3	0.3703	0.2372	1	0	0.628	0	82	0
38	1	132	0	2	3	0.3703	0.2372	0	0	0.518	0	82	82
38	1	133	0	2	1	0.3703	0.2372	1	1	0.556	8	0	82
38	1	134	1	2	3	0.3703	0.2372	0	1	0.461	89	0	0
38	1	135	0	2	3	0.3703	0.2372	1	1	0.652	7	0	82
38	1	136	0	2	3	0.3703	0.2372	0	1	0.566	8	82	82
38	1	137	0	2	3	0.3703	0.2372	1	1	0.498	9	0	82
38	1	138	1	2	2	0.3703	0.2372	1	1	0.550	80	82	0
38	1	139	0	1	3	0.3703	0.2372	1	1	0.435	9	82	0
38	1	140	1	1	1	0.3703	0.2372	0	1	0.410	94	0	0
38	1	141	0	2	1	0.3703	0.2372	0	1	0.549	8	82	82
38	1	142	1	1	3	0.3703	0.2372	0	1	0.720	63	0	0
38	1	143	9	2	2	0.3703	0.2372	1	1	0.484	0	0	82
38	1	144	0	1	3	0.3703	0.2372	0	1	0.640	7	82	82
38	1	145	1	1	3	0.3703	0.2372	0	1	0.511	84	0	0
38	1	146	0	1	3	0.3703	0.2372	1	1	0.564	8	82	0
38	1	147	0	2	3	0.3703	0.2372	0	1	0.792	6	82	82
38	1	148	0	1	1	0.3703	0.2372	0	1	0.681	7	82	82
38	1	149	0	1	1	0.3703	0.2372	0	1	0.430	9	82	82
38	1	150	1	1	3	0.3703	0.2372	0	1	0.400	95	0	0
38	1	151	0	2	2	0.3703	0.2372	1	1	0.611	7	0	82
38	1	152	0	1	1	0.3703	0.2372	1	1	0.483	9	82	0
38	1	153	0	1	1	0.3703	0.2372	1	0	0.962	0	82	0
38	1	154	0	2	3	0.3703	0.2372	1	1	0.750	6	0	82
38	1	155	1	2	3	0.3703	0.2372	1	1	0.755	59	82	0
38	1	156	0	2	2	0.3703	0.2372	1	1	0.551	8	0	82
38	1	157	1	1	1	0.3703	0.2372	0	1	0.522	83	0	0
38	1	158	1	2	1	0.3703	0.2372	0	1	0.710	64	0	0
38	1	159	0	2	3	0.3703	0.2372	0	1	0.541	8	82	82
38	1	160	9	1	3	0.3703	0.2372	0	1	0.442	0	0	0
38	1	161	9	2	3	0.3703	0.2372	0	1	0.555	0	82	82
38	1	162	1	2	2	0.3703	0.2372	1	1	0.462	89	82	0
38	1	163	1	2	3	0.3703	0.2372	0	1	0.575	78	0	0
38	1	164	9	2	2	0.3703	0.2372	1	1	0.514	0	82	0
38	1	165	1	2	3	0.3703	0.2372	0	1	0.578	77	0	0
38	1	166	0	2	3	0.3703	0.2372	0	1	0.643	7	82	82
38	1	167	0	1	3	0.3703	0.2372	1	1	0.614	7	82	0
38	1	168	0	2	2	0.3703	0.2372	0	1	0.448	9	82	82
38	1	169	0	2	2	0.3703	0.2372	1	1	0.470	9	0	82
38	1	170	1	2	2	0.3703	0.2372	1	1	0.598	75	82	0
38	1	171	9	1	1	0.3703	0.2372	0	1	0.464	0	0	0
38	1	172	0	1	1	0.3703	0.2372	1	1	0.511	8	82	0
38	1	173	0	1	3	0.3703	0.2372	0	1	0.412	9	82	82
38	1	174	1	2	2	0.3703	0.2372	1	1	0.404	95	82	0
38	1	175	0	2	2	0.3703	0.2372	1	1	0.470	9	0	82
38	1	176	9	2	2	0.3703	0.2372	0	1	0.559	0	82	82
38	1	177	9	1	3	0.3703	0.2372	0	0	0.560	0	82	82
38	1	178	0	1	1	0.3703	0.2372	1	0	0.493	0	82	0
38	1	179	0	2	2	0.3703	0.2372	0	1	0.539	8	82	82
38	1	180	0	1	1	0.3703	0.2372	0	1	0.527	8	82	82
38	1	181	1	2	2	0.3703	0.2372	1	1	0.570	78	82	0
38	1	182	1	1	3	0.3703	0.2372	1	1	0.549	80	0	82
38	1	183	1	1	3	0.3703	0.2372	0	0	0.616	0	0	0
38	1	184	1	1	3	0.3703	0.2372	0	1	0.435	92	0	0
38	1	185	1	2	2	0.3703	0.2372	1	1	0.426	92	82	0
38	1	186	1	2	2	0.3703	0.2372	0	1	0.454	90	0	0
38	1	187	0	1	1	0.3703	0.2372	1	1	0.549	8	82	0
38	1	188	1	1	1	0.3703	0.2372	0	1	0.432	92	0	0
38	1	189	0	2	2	0.3703	0.2372	1	1	0.490	9	0	82
38	1	190	1	2	3	0.3703	0.2372	1	1	0.489	86	82	0
38	1	191	1	1	1	0.3703	0.2372	1	1	0.493	86	0	82
38	1	192	1	2	3	0.3703	0.2372	0	1	0.620	73	0	0
38	1	193	0	1	1	0.3703	0.2372	0	1	0.533	8	82	82
38	1	194	1	1	3	0.3703	0.2372	1	1	0.384	97	0	82
38	1	195	1	2	2	0.3703	0.2372	0	1	0.457	89	0	0
38	1	196	9	2	2	0.3703	0.2372	0	1	0.486	0	0	0
38	1	197	1	2	3	0.3703	0.2372	1	1	0.771	58	82	0
38	1	198	0	2	2	0.3703	0.2372	0	1	0.405	9	82	82
38	1	199	1	2	1	0.3703	0.2372	0	0	0.406	0	0	0
38	1	200	1	1	2	0.3703	0.2372	0	0	0.686	0	0	0
38	1	201	0	1	3	0.3703	0.2372	1	0	0.638	0	82	0
38	1	202	0	2	2	0.3703	0.2372	0	1	0.543	8	82	82
38	1	203	0	2	3	0.3703	0.2372	1	1	0.779	6	0	82
38	1	204	0	1	2	0.3703	0.2372	0	1	0.903	5	82	82
38	1	205	1	2	2	0.3703	0.2372	1	1	0.547	80	82	0
38	1	206	0	2	3	0.3703	0.2372	0	1	0.510	8	82	82
38	1	207	9	2	3	0.3703	0.2372	0	1	0.541	0	0	0
38	1	208	1	1	3	0.3703	0.2372	1	1	0.449	90	0	82
38	1	209	0	2	2	0.3703	0.2372	1	1	0.567	8	0	82
38	1	210	0	2	2	0.3703	0.2372	0	1	0.441	9	82	82
38	1	211	0	2	3	0.3703	0.2372	0	1	0.580	8	82	82
38	1	212	0	2	2	0.3703	0.2372	1	1	0.597	8	0	82
38	1	213	9	1	1	0.3703	0.2372	0	1	0.472	0	0	0
38	1	214	1	2	2	0.3703	0.2372	0	1	0.399	95	0	0
38	1	215	0	2	3	0.3703	0.2372	1	1	0.471	9	0	82
38	1	216	0	2	3	0.3703	0.2372	0	1	0.455	9	82	82
38	1	217	0	1	3	0.3703	0.2372	0	0	0.534	0	82	82
38	1	218	0	1	1	0.3703	0.2372	1	0	0.450	0	82	0
38	1	219	0	2	2	0.3703	0.2372	0	1	0.508	8	82	82
38	1	220	0	2	2	0.3703	0.2372	0	1	0.468	9	82	82
38	1	221	1	2	3	0.3703	0.2372	1	1	0.852	50	82	0
38	1	222	1	2	1	0.3703	0.2372	0	1	0.717	63	0	0
38	1	223	0	1	2	0.3703	0.2372	1	1	0.690	7	82	0
38	1	224	1	1	2	0.3703	0.2372	1	0	0.618	0	0	82
38	1	225	1	1	1	0.3703	0.2372	1	1	0.395	95	0	82
38	1	226	9	1	3	0.3703	0.2372	0	1	0.784	0	82	82
38	1	227	1	2	3	0.3703	0.2372	1	1	0.471	88	82	0
38	1	228	9	1	1	0.3703	0.2372	1	0	0.631	0	82	0
38	1	229	9	2	2	0.3703	0.2372	1	1	0.456	0	0	82
38	1	230	9	2	1	0.3703	0.2372	0	1	0.633	0	0	0
38	1	231	0	1	3	0.3703	0.2372	0	1	0.538	8	82	82
38	1	232	9	1	1	0.3703	0.2372	0	1	0.397	0	82	82
38	1	233	1	2	1	0.3703	0.2372	0	1	0.686	66	0	0
38	1	234	1	2	3	0.3703	0.2372	1	1	0.443	91	82	0
38	1	235	0	1	1	0.3703	0.2372	1	0	0.526	0	82	0
38	1	236	9	2	3	0.3703	0.2372	1	1	0.641	0	0	82
38	1	237	1	2	2	0.3703	0.2372	1	1	0.433	92	82	0
38	1	238	0	2	1	0.3703	0.2372	1	1	0.555	8	0	82
38	1	239	9	1	1	0.3703	0.2372	0	0	0.414	0	0	0
38	1	240	1	1	2	0.3703	0.2372	1	1	0.526	82	0	82
38	1	241	1	1	1	0.3703	0.2372	0	1	0.583	77	0	0
38	1	242	1	2	1	0.3703	0.2372	1	1	0.544	81	82	0
38	1	243	9	2	3	0.3703	0.2372	0	1	0.579	0	82	82
38	1	244	0	1	3	0.3703	0.2372	0	1	0.479	9	82	82
38	1	245	0	1	2	0.3703	0.2372	0	1	0.407	9	82	82
38	1	246	9	1	3	0.3703	0.2372	1	1	0.361	0	0	82
38	1	247	0	1	2	0.3703	0.2372	0	1	0.475	9	82	82
38	1	248	1	2	2	0.3703	0.2372	0	0	0.499	0	0	0
38	1	249	1	1	1	0.3703	0.2372	1	1	0.486	86	0	82
38	1	250	1	1	3	0.3703	0.2372	1	1	0.395	95	0	82
38	1	251	1	2	3	0.3703	0.2372	0	1	0.725	63	0	0
38	1	252	0	2	1	0.3703	0.2372	0	1	0.626	7	82	82
38	1	253	0	1	3	0.3703	0.2372	1	0	0.850	0	82	0
38	1	254	1	1	3	0.3703	0.2372	0	1	0.551	80	0	0
38	1	255	0	1	1	0.3703	0.2372	0	1	0.501	8	82	82
38	1	256	0	1	3	0.3703	0.2372	0	1	0.403	9	82	82
38	1	257	9	1	3	0.3703	0.2372	1	1	0.510	0	0	82
38	1	258	1	2	3	0.3703	0.2372	1	1	0.454	90	82	0
38	1	259	1	2	2	0.3703	0.2372	1	1	0.412	94	82	0
38	1	260	1	1	1	0.3703	0.2372	1	1	0.421	93	0	82
38	1	261	9	1	2	0.3703	0.2372	1	1	0.640	0	82	0
38	1	262	0	1	1	0.3703	0.2372	1	1	0.647	7	82	0
38	1	263	9	1	3	0.3703	0.2372	0	1	0.469	0	0	0
38	1	264	9	2	2	0.3703	0.2372	1	1	0.719	0	0	82
38	1	265	1	2	3	0.3703	0.2372	1	1	0.467	88	82	0
38	1	266	0	2	3	0.3703	0.2372	0	0	0.555	0	82	82
38	1	267	1	2	3	0.3703	0.2372	0	1	0.542	81	0	0
38	1	268	0	1	1	0.3703	0.2372	1	1	1.425	5	82	0
38	1	269	1	2	3	0.3703	0.2372	1	1	0.474	88	82	0
38	1	270	1	2	2	0.3703	0.2372	1	1	0.491	86	82	0
38	1	271	1	1	1	0.3703	0.2372	0	1	0.400	95	0	0
38	1	272	9	1	3	0.3703	0.2372	1	1	0.784	0	82	0
38	1	273	1	2	3	0.3703	0.2372	0	0	0.611	0	0	0
38	1	274	0	2	3	0.3703	0.2372	0	1	0.500	9	82	82
38	1	275	9	1	1	0.3703	0.2372	1	1	0.658	0	82	0
38	1	276	1	2	1	0.3703	0.2372	1	1	0.530	82	82	0
38	1	277	0	2	3	0.3703	0.2372	0	1	0.607	7	82	82
38	1	278	0	1	1	0.3703	0.2372	0	1	0.359	10	82	82
38	1	279	9	2	3	0.3703	0.2372	1	1	0.449	0	82	0
38	1	280	0	1	1	0.3703	0.2372	0	1	0.387	10	82	82
38	1	281	9	1	3	0.3703	0.2372	0	1	0.467	0	0	0
38	1	282	1	2	3	0.3703	0.2372	0	1	0.504	85	0	0
38	1	283	1	1	3	0.3703	0.2372	1	1	0.421	93	0	82
38	1	284	0	2	2	0.3703	0.2372	0	1	0.381	10	82	82
38	1	285	1	1	1	0.3703	0.2372	1	1	0.374	98	0	82
38	1	286	9	1	3	0.3703	0.2372	1	1	0.417	0	0	82
38	1	287	0	1	3	0.3703	0.2372	0	1	0.394	10	82	82
38	1	288	0	1	1	0.3703	0.2372	0	1	0.390	10	82	82
38	1	289	9	2	3	0.3703	0.2372	0	0	0.449	0	0	0
38	1	290	9	2	2	0.3703	0.2372	0	1	0.360	0	82	82
38	1	291	9	1	1	0.3703	0.2372	0	1	0.293	0	0	0
38	1	292	1	1	1	0.3703	0.2372	0	1	0.333	100	0	0
38	1	293	0	2	2	0.3703	0.2372	1	0	0.643	0	0	82
38	1	294	1	2	3	0.3703	0.2372	0	1	0.603	75	0	0
38	1	295	9	1	3	0.3703	0.2372	0	1	0.395	0	82	82
38	1	296	1	1	1	0.3703	0.2372	1	1	0.362	99	0	82
38	1	297	1	2	2	0.3703	0.2372	0	1	0.399	95	0	0
38	1	298	1	2	3	0.3703	0.2372	0	1	0.443	91	0	0
38	1	299	1	1	3	0.3703	0.2372	1	1	0.497	85	0	82
38	1	300	1	2	2	0.3703	0.2372	1	1	0.504	85	82	0
38	1	301	0	2	2	0.3703	0.2372	0	1	0.527	8	82	82
38	1	302	9	1	1	0.3703	0.2372	0	1	0.364	0	82	82
38	1	303	1	2	1	0.3703	0.2372	1	1	0.446	90	82	0
38	1	304	0	2	1	0.3703	0.2372	1	1	0.517	8	0	82
38	1	305	9	2	3	0.3703	0.2372	0	1	0.473	0	82	82
38	1	306	0	1	1	0.3703	0.2372	0	1	0.457	9	82	82
38	1	307	1	2	2	0.3703	0.2372	1	1	0.391	96	82	0
38	1	308	1	1	3	0.3703	0.2372	0	1	0.376	97	0	0
38	1	309	1	2	2	0.3703	0.2372	1	1	0.405	94	82	0
38	1	310	9	2	2	0.3703	0.2372	1	1	0.384	0	82	0
38	1	311	1	2	2	0.3703	0.2372	0	1	0.579	77	0	0
38	1	312	0	2	2	0.3703	0.2372	0	0	0.547	0	82	82
38	1	313	1	1	3	0.3703	0.2372	0	1	0.432	92	0	0
38	1	314	1	1	3	0.3703	0.2372	1	1	0.616	73	0	82
38	1	315	9	1	1	0.3703	0.2372	1	1	1.104	0	82	0
38	1	316	0	2	3	0.3703	0.2372	1	1	1.204	5	0	82
38	1	317	9	1	3	0.3703	0.2372	0	1	0.396	0	0	0
38	1	318	0	1	1	0.3703	0.2372	1	1	0.711	6	82	0
38	1	319	1	1	1	0.3703	0.2372	1	1	0.442	91	0	82
38	1	320	1	1	1	0.3703	0.2372	0	1	0.506	84	0	0
38	1	321	1	2	2	0.3703	0.2372	0	1	0.395	96	0	0
38	1	322	9	1	1	0.3703	0.2372	1	1	0.413	0	0	82
38	1	323	1	1	1	0.3703	0.2372	1	1	0.421	93	0	82
38	1	324	1	1	2	0.3703	0.2372	1	1	0.639	71	0	82
38	1	325	0	2	3	0.3703	0.2372	1	0	0.640	0	0	82
38	1	326	0	1	1	0.3703	0.2372	0	1	0.687	7	82	82
38	1	327	9	1	3	0.3703	0.2372	0	1	0.518	0	82	82
38	1	328	9	2	3	0.3703	0.2372	0	0	0.525	0	0	0
38	1	329	0	2	2	0.3703	0.2372	0	1	0.425	9	82	82
38	1	330	1	1	1	0.3703	0.2372	1	1	0.370	98	0	82
38	1	331	9	2	2	0.3703	0.2372	1	1	0.484	0	82	0
38	1	332	0	1	3	0.3703	0.2372	0	1	0.449	9	82	82
38	1	333	1	1	1	0.3703	0.2372	1	1	0.408	94	0	82
38	1	334	1	1	2	0.3703	0.2372	1	1	0.937	50	0	82
38	1	335	1	1	3	0.3703	0.2372	0	1	0.469	88	0	0
38	1	336	1	1	3	0.3703	0.2372	1	1	0.419	93	0	82
38	1	337	1	1	3	0.3703	0.2372	1	1	0.395	96	0	82
38	1	338	1	1	3	0.3703	0.2372	1	1	0.363	99	0	82
38	1	339	1	1	2	0.3703	0.2372	0	0	0.591	0	0	0
38	1	340	9	1	2	0.3703	0.2372	0	1	0.408	0	0	0
38	1	341	0	1	1	0.3703	0.2372	0	1	0.376	10	82	82
38	1	342	1	1	3	0.3703	0.2372	1	1	0.465	89	0	82
38	1	343	0	2	2	0.3703	0.2372	0	1	0.383	10	82	82
38	1	344	0	2	2	0.3703	0.2372	1	1	0.593	8	0	82
38	1	345	0	1	1	0.3703	0.2372	0	1	0.363	10	82	82
38	1	346	1	1	1	0.3703	0.2372	1	0	0.422	0	0	82
38	1	347	0	2	2	0.3703	0.2372	1	1	1.168	5	0	82
38	1	348	0	2	3	0.3703	0.2372	1	1	0.769	6	0	82
38	1	349	0	1	3	0.3703	0.2372	0	1	0.555	8	82	82
38	1	350	1	1	3	0.3703	0.2372	1	1	0.440	91	0	82
38	1	351	1	1	2	0.3703	0.2372	0	1	0.488	86	0	0
38	1	352	1	1	1	0.3703	0.2372	1	1	0.437	91	0	82
38	1	353	9	2	1	0.3703	0.2372	1	1	0.420	0	82	0
38	1	354	9	1	1	0.3703	0.2372	1	0	0.605	0	82	0
38	1	355	0	1	1	0.3703	0.2372	0	1	0.465	9	82	82
38	1	356	0	2	3	0.3703	0.2372	0	1	0.848	5	82	82
38	1	357	1	2	2	0.3703	0.2372	0	1	0.521	83	0	0
38	1	358	0	1	1	0.3703	0.2372	0	1	0.511	8	82	82
38	1	359	9	2	3	0.3703	0.2372	1	1	0.766	0	0	82
38	1	360	1	1	1	0.3703	0.2372	0	1	0.375	97	0	0
38	1	361	0	2	1	0.3703	0.2372	0	1	0.602	7	82	82
38	1	362	0	1	1	0.3703	0.2372	1	0	0.491	0	82	0
38	1	363	1	1	1	0.3703	0.2372	0	1	0.401	95	0	0
38	1	364	9	1	3	0.3703	0.2372	1	1	0.417	0	0	82
38	1	365	1	2	2	0.3703	0.2372	1	0	0.483	0	82	0
38	1	366	0	1	1	0.3703	0.2372	1	0	0.603	0	82	0
38	1	367	1	2	2	0.3703	0.2372	0	1	0.901	50	0	0
38	1	368	0	2	3	0.3703	0.2372	0	1	0.553	8	82	82
38	1	369	1	2	2	0.3703	0.2372	1	1	0.435	91	82	0
38	1	370	0	2	2	0.3703	0.2372	0	1	0.393	10	82	82
38	1	371	1	2	2	0.3703	0.2372	0	0	0.797	0	0	0
38	1	372	9	1	3	0.3703	0.2372	1	0	0.583	0	82	0
38	1	373	9	1	1	0.3703	0.2372	0	1	0.440	0	0	0
38	1	374	0	1	3	0.3703	0.2372	0	1	0.447	9	82	82
38	1	375	1	2	3	0.3703	0.2372	1	1	0.532	82	82	0
38	1	376	0	2	2	0.3703	0.2372	1	1	0.553	8	0	82
38	1	377	1	1	3	0.3703	0.2372	0	1	0.540	81	0	0
38	1	378	1	2	3	0.3703	0.2372	1	1	0.441	91	82	0
38	1	379	9	1	3	0.3703	0.2372	0	1	0.472	0	0	0
38	1	380	0	1	3	0.3703	0.2372	1	0	0.566	0	82	0
38	1	381	0	1	1	0.3703	0.2372	0	1	0.564	8	82	82
38	1	382	0	2	3	0.3703	0.2372	1	1	0.750	6	0	82
38	1	383	9	1	1	0.3703	0.2372	1	1	0.675	0	82	0
38	1	384	0	2	2	0.3703	0.2372	0	1	0.448	9	82	82
38	1	385	9	2	3	0.3703	0.2372	0	1	0.737	0	0	0
38	1	386	0	2	1	0.3703	0.2372	1	1	0.533	8	0	82
38	1	387	1	2	2	0.3703	0.2372	0	1	0.410	94	0	0
38	1	388	0	2	2	0.3703	0.2372	0	1	0.460	9	82	82
38	1	389	1	2	2	0.3703	0.2372	1	1	0.459	89	82	0
38	1	390	0	1	2	0.3703	0.2372	0	0	0.764	0	82	82
38	1	391	9	1	1	0.3703	0.2372	0	1	0.369	0	82	82
38	1	392	1	2	2	0.3703	0.2372	0	0	0.428	0	0	0
38	1	393	9	1	3	0.3703	0.2372	0	1	0.404	0	0	0
38	1	394	1	1	3	0.3703	0.2372	1	1	0.480	87	0	82
38	1	395	1	1	3	0.3703	0.2372	0	1	0.504	85	0	0
38	1	396	1	1	1	0.3703	0.2372	1	1	0.421	93	0	82
38	1	397	0	2	2	0.3703	0.2372	1	1	0.742	6	0	82
38	1	398	0	2	2	0.3703	0.2372	0	1	0.411	9	82	82
38	1	399	0	2	2	0.3703	0.2372	0	1	0.421	9	82	82
38	1	400	0	2	2	0.3703	0.2372	0	1	0.462	9	82	82
38	1	401	1	1	3	0.3703	0.2372	1	1	0.378	97	0	82
38	1	402	0	1	2	0.3703	0.2372	0	1	0.397	10	82	82
38	1	403	1	1	1	0.3703	0.2372	0	1	0.407	94	0	0
38	1	404	0	1	3	0.3703	0.2372	0	1	0.361	10	82	82
38	1	405	9	2	2	0.3703	0.2372	0	1	0.531	0	0	0
38	1	406	0	1	2	0.3703	0.2372	1	0	0.599	0	82	0
38	1	407	9	2	3	0.3703	0.2372	0	1	0.482	0	82	82
38	1	408	1	2	3	0.3703	0.2372	0	0	0.601	0	0	0
38	1	409	9	2	2	0.3703	0.2372	0	1	0.392	0	82	82
38	1	410	0	1	1	0.3703	0.2372	1	0	0.481	0	82	0
38	1	411	1	1	2	0.3703	0.2372	1	1	0.527	82	0	82
38	1	412	1	1	1	0.3703	0.2372	0	1	0.466	88	0	0
38	1	413	1	1	2	0.3703	0.2372	1	1	0.472	88	0	82
38	1	414	1	2	1	0.3703	0.2372	0	1	0.456	89	0	0
38	1	415	0	1	1	0.3703	0.2372	1	1	0.551	8	82	0
38	1	416	1	2	3	0.3703	0.2372	0	1	0.555	79	0	0
38	1	417	0	2	3	0.3703	0.2372	0	1	0.565	8	82	82
38	1	418	9	2	3	0.3703	0.2372	1	1	0.719	0	0	82
38	1	419	0	2	3	0.3703	0.2372	1	1	0.571	8	0	82
38	1	420	0	2	3	0.3703	0.2372	0	1	0.564	8	82	82
38	1	421	9	1	3	0.3703	0.2372	1	1	1.180	0	0	82
38	1	422	0	1	3	0.3703	0.2372	0	1	0.581	8	82	82
38	1	423	0	1	3	0.3703	0.2372	1	1	0.608	7	82	0
38	1	424	9	2	2	0.3703	0.2372	1	1	0.423	0	0	82
38	1	425	0	1	1	0.3703	0.2372	0	1	0.472	9	82	82
38	1	426	1	2	2	0.3703	0.2372	1	1	0.364	99	82	0
38	1	427	0	2	2	0.3703	0.2372	1	1	0.392	10	0	82
38	1	428	0	2	3	0.3703	0.2372	1	1	0.417	9	0	82
38	1	429	1	1	3	0.3703	0.2372	0	0	0.642	0	0	0
38	1	430	1	1	1	0.3703	0.2372	0	1	0.425	93	0	0
38	1	431	9	1	3	0.3703	0.2372	0	1	0.327	0	0	0
38	1	432	0	2	2	0.3703	0.2372	0	1	0.517	8	82	82
38	1	433	0	1	3	0.3703	0.2372	1	1	0.889	5	82	0
38	1	434	1	1	3	0.3703	0.2372	0	1	0.439	91	0	0
38	1	435	0	1	1	0.3703	0.2372	1	1	0.528	8	82	0
38	1	436	1	2	3	0.3703	0.2372	0	1	0.365	99	0	0
38	1	437	1	1	3	0.3703	0.2372	1	1	0.527	82	0	82
38	1	438	0	1	1	0.3703	0.2372	1	0	0.339	0	82	0
38	1	439	1	2	2	0.3703	0.2372	0	1	0.461	89	0	0
38	1	440	1	1	3	0.3703	0.2372	1	1	0.363	99	0	82
38	1	441	1	1	1	0.3703	0.2372	1	1	1.043	50	0	82
38	1	442	0	2	3	0.3703	0.2372	1	1	0.577	8	0	82
38	1	443	9	2	3	0.3703	0.2372	1	1	0.476	0	82	0
38	1	444	0	2	2	0.3703	0.2372	0	1	0.435	9	82	82
38	1	445	0	2	3	0.3703	0.2372	0	1	0.555	8	82	82
38	1	446	0	2	3	0.3703	0.2372	0	1	0.622	7	82	82
38	1	447	1	1	3	0.3703	0.2372	0	1	0.469	88	0	0
38	1	448	1	2	3	0.3703	0.2372	0	1	0.684	67	0	0
38	1	449	1	1	1	0.3703	0.2372	0	1	0.432	92	0	0
38	1	450	0	1	1	0.3703	0.2372	0	1	0.376	10	82	82
38	1	451	0	2	2	0.3703	0.2372	0	1	0.378	10	82	82
38	1	452	9	1	1	0.3703	0.2372	1	0	0.366	0	82	0
38	1	453	1	1	1	0.3703	0.2372	1	1	0.512	84	0	82
38	1	454	9	2	2	0.3703	0.2372	0	1	0.447	0	0	0
38	1	455	9	2	3	0.3703	0.2372	0	1	0.592	0	82	82
38	1	456	0	1	3	0.3703	0.2372	0	1	0.387	10	82	82
38	1	457	9	1	2	0.3703	0.2372	1	1	0.439	0	0	82
38	1	458	9	2	2	0.3703	0.2372	1	0	0.605	0	0	82
38	1	459	1	1	3	0.3703	0.2372	1	1	0.421	93	0	82
38	1	460	9	1	3	0.3703	0.2372	1	1	0.414	0	0	82
38	1	461	0	1	2	0.3703	0.2372	1	1	0.987	5	82	0
38	1	462	0	2	3	0.3703	0.2372	0	1	0.541	8	82	82
38	1	463	0	2	3	0.3703	0.2372	0	1	0.408	9	82	82
38	1	464	9	2	3	0.3703	0.2372	1	1	0.499	0	0	82
38	1	465	1	1	1	0.3703	0.2372	1	1	0.629	72	0	82
38	1	466	9	2	3	0.3703	0.2372	1	1	0.399	0	82	0
38	1	467	9	2	3	0.3703	0.2372	0	1	0.490	0	82	82
38	1	468	9	1	3	0.3703	0.2372	0	1	0.561	0	82	82
38	1	469	1	1	1	0.3703	0.2372	1	1	0.309	100	0	82
38	1	470	9	1	1	0.3703	0.2372	0	1	0.443	0	0	0
38	1	471	0	2	1	0.3703	0.2372	1	1	0.674	7	0	82
38	1	472	0	2	3	0.3703	0.2372	1	1	0.449	9	0	82
38	1	473	0	1	1	0.3703	0.2372	1	1	0.635	7	82	0
38	1	474	1	1	3	0.3703	0.2372	0	1	0.394	96	0	0
38	1	475	1	2	1	0.3703	0.2372	0	0	0.500	0	0	0
38	1	476	1	1	1	0.3703	0.2372	0	1	0.386	96	0	0
38	1	477	0	2	2	0.3703	0.2372	1	0	0.379	0	0	82
38	1	478	0	1	1	0.3703	0.2372	0	1	0.455	9	82	82
38	1	479	1	2	2	0.3703	0.2372	0	1	0.606	74	0	0
38	1	480	1	1	1	0.3703	0.2372	1	1	0.464	89	0	82
38	1	481	0	1	3	0.3703	0.2372	1	0	0.515	0	82	0
38	1	482	1	1	1	0.3703	0.2372	1	1	0.409	94	0	82
38	1	483	1	1	1	0.3703	0.2372	1	1	0.412	94	0	82
38	1	484	1	2	3	0.3703	0.2372	1	1	0.549	80	82	0
38	1	485	9	1	1	0.3703	0.2372	0	1	0.505	0	82	82
38	1	486	1	1	3	0.3703	0.2372	1	0	0.374	0	0	82
38	1	487	1	2	2	0.3703	0.2372	1	1	0.488	86	82	0
38	1	488	1	2	2	0.3703	0.2372	0	1	0.485	87	0	0
38	1	489	1	1	3	0.3703	0.2372	0	1	0.563	79	0	0
38	1	490	9	2	2	0.3703	0.2372	1	1	0.408	0	82	0
38	1	491	1	2	3	0.3703	0.2372	1	1	0.648	70	82	0
38	1	492	9	1	1	0.3703	0.2372	0	1	0.376	0	82	82
38	1	493	0	2	3	0.3703	0.2372	1	0	0.317	0	0	82
38	1	494	0	2	3	0.3703	0.2372	1	1	0.681	7	0	82
38	1	495	1	2	2	0.3703	0.2372	1	1	0.366	98	82	0
38	1	496	9	2	2	0.3703	0.2372	0	1	0.504	0	0	0
38	1	497	0	1	1	0.3703	0.2372	0	1	0.389	10	82	82
38	1	498	9	2	1	0.3703	0.2372	0	0	0.439	0	82	82
38	1	499	1	1	1	0.3703	0.2372	0	1	0.353	100	0	0
38	1	500	1	1	3	0.3703	0.2372	0	1	0.382	97	0	0
38	1	501	9	1	3	0.3703	0.2372	0	1	0.408	0	0	0
38	1	502	1	2	3	0.3703	0.2372	1	1	0.483	87	82	0
38	1	503	0	1	3	0.3703	0.2372	1	1	0.497	9	82	0
38	1	504	1	1	3	0.3703	0.2372	0	1	0.341	100	0	0
38	1	505	0	1	1	0.3703	0.2372	1	0	0.392	0	82	0
38	1	506	0	1	1	0.3703	0.2372	1	0	0.540	0	82	0
38	1	507	0	2	2	0.3703	0.2372	0	1	0.591	8	82	82
38	1	508	1	2	3	0.3703	0.2372	1	1	0.475	88	82	0
38	1	509	0	1	3	0.3703	0.2372	1	0	0.729	0	82	0
38	1	510	0	2	3	0.3703	0.2372	0	0	0.565	0	82	82
38	1	511	0	1	3	0.3703	0.2372	0	1	0.422	9	82	82
38	1	512	0	1	1	0.3703	0.2372	0	1	0.374	10	82	82
38	1	513	0	1	3	0.3703	0.2372	1	1	0.851	5	82	0
38	1	514	1	2	2	0.3703	0.2372	0	1	0.400	95	0	0
38	1	515	9	2	2	0.3703	0.2372	0	1	0.427	0	82	82
38	1	516	9	2	1	0.3703	0.2372	1	1	0.769	0	0	82
38	1	517	1	2	3	0.3703	0.2372	1	1	0.396	95	82	0
38	1	518	9	2	1	0.3703	0.2372	0	1	0.404	0	0	0
38	1	519	9	1	2	0.3703	0.2372	0	0	0.357	0	0	0
38	1	520	1	2	3	0.3703	0.2372	1	1	0.408	94	82	0
38	1	521	0	2	3	0.3703	0.2372	1	0	0.702	0	0	82
38	1	522	1	1	2	0.3703	0.2372	0	1	0.494	86	0	0
38	1	523	1	2	2	0.3703	0.2372	0	1	0.794	56	0	0
38	1	524	0	1	2	0.3703	0.2372	0	1	0.533	8	82	82
38	1	525	1	2	2	0.3703	0.2372	1	1	0.355	100	82	0
38	1	526	1	1	1	0.3703	0.2372	1	1	0.536	81	0	82
38	1	527	9	1	1	0.3703	0.2372	0	0	0.390	0	0	0
38	1	528	1	1	1	0.3703	0.2372	0	1	0.335	100	0	0
38	1	529	9	1	1	0.3703	0.2372	1	1	0.524	0	0	82
38	1	530	0	2	2	0.3703	0.2372	0	1	0.378	10	82	82
38	1	531	1	1	1	0.3703	0.2372	1	1	0.573	78	0	82
38	1	532	0	1	3	0.3703	0.2372	0	1	0.377	10	82	82
38	1	533	0	2	3	0.3703	0.2372	1	1	0.377	10	0	82
38	1	534	1	2	2	0.3703	0.2372	0	1	0.595	76	0	0
38	1	535	9	1	3	0.3703	0.2372	1	1	0.803	0	82	0
38	1	536	1	2	2	0.3703	0.2372	1	0	0.381	0	82	0
38	1	537	1	1	1	0.3703	0.2372	1	1	0.422	93	0	82
38	1	538	9	2	3	0.3703	0.2372	0	1	0.374	0	82	82
38	1	539	1	2	3	0.3703	0.2372	0	1	0.443	91	0	0
38	1	540	0	2	1	0.3703	0.2372	0	1	0.483	9	82	82
38	1	541	0	2	3	0.3703	0.2372	0	1	0.558	8	82	82
38	1	542	0	2	2	0.3703	0.2372	1	1	0.386	10	0	82
38	1	543	0	1	1	0.3703	0.2372	1	0	0.430	0	82	0
38	1	544	0	1	2	0.3703	0.2372	1	1	0.502	8	82	0
38	1	545	1	2	3	0.3703	0.2372	0	1	0.505	84	0	0
38	1	546	9	2	3	0.3703	0.2372	1	1	0.544	0	0	82
38	1	547	1	2	2	0.3703	0.2372	1	1	0.459	89	82	0
38	1	548	0	1	3	0.3703	0.2372	0	1	0.475	9	82	82
38	1	549	1	2	3	0.3703	0.2372	0	0	0.465	0	0	0
38	1	550	0	2	3	0.3703	0.2372	0	1	0.561	8	82	82
38	1	551	9	1	1	0.3703	0.2372	0	1	0.446	0	0	0
38	1	552	0	1	1	0.3703	0.2372	0	1	0.403	9	82	82
38	1	553	0	1	1	0.3703	0.2372	0	1	0.422	9	82	82
38	1	554	9	1	1	0.3703	0.2372	1	1	0.551	0	0	82
38	1	555	0	1	3	0.3703	0.2372	1	1	0.371	10	82	0
38	1	556	9	1	1	0.3703	0.2372	0	1	0.486	0	82	82
38	1	557	1	1	3	0.3703	0.2372	0	1	0.348	100	0	0
38	1	558	0	2	2	0.3703	0.2372	1	0	0.431	0	0	82
38	1	559	1	1	3	0.3703	0.2372	0	1	0.518	83	0	0
38	1	560	1	2	2	0.3703	0.2372	0	1	0.379	97	0	0
38	1	561	9	1	3	0.3703	0.2372	0	1	0.388	0	82	82
38	1	562	1	2	3	0.3703	0.2372	1	1	0.342	100	82	0
38	1	563	1	2	3	0.3703	0.2372	0	0	0.393	0	0	0
38	1	564	0	1	3	0.3703	0.2372	1	1	0.444	9	82	0
38	1	565	9	2	3	0.3703	0.2372	1	1	0.454	0	82	0
38	1	566	0	1	3	0.3703	0.2372	1	0	0.624	0	82	0
38	1	567	1	1	3	0.3703	0.2372	1	1	0.313	100	0	82
38	1	568	0	2	2	0.3703	0.2372	1	1	0.760	6	0	82
38	1	569	0	1	1	0.3703	0.2372	1	0	0.674	0	82	0
38	1	570	1	1	3	0.3703	0.2372	0	1	0.555	79	0	0
38	1	571	0	1	1	0.3703	0.2372	0	1	0.509	8	82	82
38	1	572	9	2	1	0.3703	0.2372	1	1	0.532	0	82	0
38	1	573	0	2	2	0.3703	0.2372	1	1	0.447	9	0	82
38	1	574	0	2	2	0.3703	0.2372	1	1	0.417	9	0	82
38	1	575	0	2	1	0.3703	0.2372	1	1	0.528	8	0	82
38	1	576	1	2	1	0.3703	0.2372	1	1	0.588	76	82	0
38	1	577	1	1	1	0.3703	0.2372	0	1	0.447	90	0	0
38	1	578	9	2	2	0.3703	0.2372	1	1	0.535	0	0	82
38	1	579	0	1	1	0.3703	0.2372	0	1	0.427	9	82	82
38	1	580	1	1	2	0.3703	0.2372	0	0	0.331	0	0	0
38	1	581	9	1	3	0.3703	0.2372	1	0	0.704	0	82	0
38	1	582	1	2	3	0.3703	0.2372	0	1	0.686	66	0	0
38	1	583	9	1	1	0.3703	0.2372	1	1	0.550	0	82	0
38	1	584	1	2	1	0.3703	0.2372	1	1	0.474	88	82	0
38	1	585	1	1	3	0.3703	0.2372	1	1	0.535	82	0	82
38	1	586	0	2	3	0.3703	0.2372	0	1	0.563	8	82	82
38	1	587	1	1	2	0.3703	0.2372	0	1	0.364	99	0	0
38	1	588	1	1	1	0.3703	0.2372	0	1	0.392	96	0	0
38	1	589	1	2	1	0.3703	0.2372	1	1	0.482	87	82	0
38	1	590	0	2	1	0.3703	0.2372	0	1	0.570	8	82	82
38	1	591	0	1	1	0.3703	0.2372	1	0	0.590	0	82	0
38	1	592	9	2	3	0.3703	0.2372	1	1	0.775	0	0	82
38	1	593	1	2	1	0.3703	0.2372	0	1	0.370	98	0	0
38	1	594	1	1	1	0.3703	0.2372	1	1	0.412	94	0	82
38	1	595	0	1	3	0.3703	0.2372	0	1	0.427	9	82	82
38	1	596	0	2	2	0.3703	0.2372	1	1	0.461	9	0	82
38	1	597	9	2	2	0.3703	0.2372	1	1	0.372	0	82	0
38	1	598	1	1	1	0.3703	0.2372	0	1	0.359	99	0	0
38	1	599	0	2	2	0.3703	0.2372	1	1	0.457	9	0	82
38	1	600	9	2	3	0.3703	0.2372	1	0	0.481	0	82	0
38	1	601	9	1	3	0.3703	0.2372	0	1	0.524	0	82	82
38	1	602	1	1	3	0.3703	0.2372	1	1	0.474	88	0	82
38	1	603	0	2	3	0.3703	0.2372	1	1	1.097	5	0	82
38	1	604	9	1	1	0.3703	0.2372	1	1	0.462	0	0	82
38	1	605	1	1	3	0.3703	0.2372	0	1	0.533	82	0	0
38	1	606	1	2	1	0.3703	0.2372	1	1	0.553	80	82	0
38	1	607	1	2	2	0.3703	0.2372	1	1	0.403	95	82	0
38	1	608	0	1	3	0.3703	0.2372	1	1	0.645	7	82	0
38	1	609	0	1	3	0.3703	0.2372	1	1	0.454	9	82	0
38	1	610	0	2	2	0.3703	0.2372	1	1	0.440	9	0	82
38	1	611	1	2	3	0.3703	0.2372	1	1	0.449	90	82	0
38	1	612	1	1	2	0.3703	0.2372	1	1	0.433	92	0	82
38	1	613	9	2	2	0.3703	0.2372	0	1	0.415	0	0	0
38	1	614	0	2	1	0.3703	0.2372	1	1	0.434	9	0	82
38	1	615	0	2	3	0.3703	0.2372	1	1	0.434	9	0	82
38	1	616	1	2	2	0.3703	0.2372	0	1	0.355	100	0	0
38	1	617	1	1	1	0.3703	0.2372	1	1	0.285	100	0	82
38	1	618	1	2	3	0.3703	0.2372	1	1	0.443	91	82	0
38	1	619	1	1	3	0.3703	0.2372	1	1	0.443	91	0	82
38	1	620	1	2	2	0.3703	0.2372	0	0	0.419	0	0	0
38	1	621	1	1	3	0.3703	0.2372	1	1	0.432	92	0	82
38	1	622	1	1	2	0.3703	0.2372	0	1	0.479	87	0	0
38	1	623	0	2	2	0.3703	0.2372	1	1	0.467	9	0	82
38	1	624	9	2	2	0.3703	0.2372	1	1	0.675	0	0	82
38	1	625	9	1	3	0.3703	0.2372	0	1	0.716	0	82	82
38	1	626	1	1	3	0.3703	0.2372	1	1	0.433	92	0	82
38	1	627	0	1	3	0.3703	0.2372	0	1	0.434	9	82	82
38	1	628	9	2	3	0.3703	0.2372	0	0	0.475	0	0	0
38	1	629	1	1	1	0.3703	0.2372	1	1	0.431	92	0	82
38	1	630	0	2	2	0.3703	0.2372	0	1	0.415	9	82	82
38	1	631	1	1	1	0.3703	0.2372	1	1	0.304	100	0	82
38	1	632	9	1	2	0.3703	0.2372	0	1	0.447	0	82	82
38	1	633	1	2	3	0.3703	0.2372	1	1	0.382	97	82	0
38	1	634	1	1	3	0.3703	0.2372	0	1	0.384	97	0	0
38	1	635	1	2	2	0.3703	0.2372	1	1	0.355	99	82	0
38	1	636	1	2	3	0.3703	0.2372	1	1	0.470	88	82	0
38	1	637	1	2	2	0.3703	0.2372	1	1	0.419	93	82	0
38	1	638	0	1	1	0.3703	0.2372	0	1	0.395	10	82	82
38	1	639	1	2	1	0.3703	0.2372	0	0	0.333	0	0	0
38	1	640	1	1	2	0.3703	0.2372	1	1	0.378	97	0	82
38	1	641	1	2	3	0.3703	0.2372	0	1	0.459	89	0	0
38	1	642	0	2	2	0.3703	0.2372	0	1	0.481	9	82	82
38	1	643	0	2	3	0.3703	0.2372	0	0	0.423	0	82	82
38	1	644	1	2	2	0.3703	0.2372	0	1	0.465	89	0	0
38	1	645	1	2	3	0.3703	0.2372	0	1	0.366	98	0	0
38	1	646	0	1	3	0.3703	0.2372	0	1	0.369	10	82	82
38	1	647	0	1	3	0.3703	0.2372	1	0	0.709	0	82	0
38	1	648	1	2	2	0.3703	0.2372	1	1	0.426	92	82	0
38	1	649	9	1	3	0.3703	0.2372	1	0	0.428	0	82	0
38	1	650	1	2	2	0.3703	0.2372	1	1	0.517	83	82	0
38	1	651	1	1	3	0.3703	0.2372	1	1	0.392	96	0	82
38	1	652	0	2	3	0.3703	0.2372	1	1	0.337	10	0	82
38	1	653	0	2	3	0.3703	0.2372	1	1	0.485	9	0	82
38	1	654	0	1	2	0.3703	0.2372	0	1	0.554	8	82	82
38	1	655	1	2	2	0.3703	0.2372	0	0	0.389	0	0	0
38	1	656	1	1	1	0.3703	0.2372	0	1	0.383	97	0	0
38	1	657	0	2	3	0.3703	0.2372	0	1	0.458	9	82	82
38	1	658	0	1	3	0.3703	0.2372	0	1	0.627	7	82	82
38	1	659	1	1	1	0.3703	0.2372	1	1	0.410	94	0	82
38	1	660	1	2	3	0.3703	0.2372	0	1	0.434	92	0	0
38	1	661	0	1	1	0.3703	0.2372	1	1	0.659	7	82	0
38	1	662	9	1	1	0.3703	0.2372	1	1	0.741	0	82	0
38	1	663	9	2	3	0.3703	0.2372	0	1	0.489	0	0	0
38	1	664	1	1	1	0.3703	0.2372	0	1	0.551	80	0	0
38	1	665	9	2	2	0.3703	0.2372	1	1	0.426	0	82	0
38	1	666	1	2	3	0.3703	0.2372	1	1	0.484	87	82	0
38	1	667	9	2	2	0.3703	0.2372	1	1	0.435	0	82	0
38	1	668	9	2	2	0.3703	0.2372	0	1	0.458	0	82	82
38	1	669	0	2	3	0.3703	0.2372	0	1	0.563	8	82	82
38	1	670	9	1	2	0.3703	0.2372	1	1	0.383	0	82	0
38	1	671	0	1	3	0.3703	0.2372	1	0	0.408	0	82	0
38	1	672	0	1	1	0.3703	0.2372	0	1	0.418	9	82	82
38	1	673	0	2	3	0.3703	0.2372	1	1	0.513	8	0	82
38	1	674	0	1	3	0.3703	0.2372	0	1	0.400	10	82	82
38	1	675	1	2	3	0.3703	0.2372	1	1	0.361	99	82	0
38	1	676	0	1	1	0.3703	0.2372	0	1	0.494	9	82	82
38	1	677	0	1	3	0.3703	0.2372	1	1	0.620	7	82	0
38	1	678	0	1	1	0.3703	0.2372	0	1	0.373	10	82	82
38	1	679	0	2	2	0.3703	0.2372	1	1	0.457	9	0	82
38	1	680	9	2	3	0.3703	0.2372	0	1	0.503	0	0	0
38	1	681	9	2	2	0.3703	0.2372	0	1	0.769	0	82	82
38	1	682	0	2	2	0.3703	0.2372	1	1	0.507	8	0	82
38	1	683	0	1	1	0.3703	0.2372	1	1	0.466	9	82	0
38	1	684	1	1	3	0.3703	0.2372	1	1	0.464	89	0	82
38	1	685	0	2	2	0.3703	0.2372	0	1	0.366	10	82	82
38	1	686	0	1	1	0.3703	0.2372	0	0	0.306	0	82	82
38	1	687	1	1	1	0.3703	0.2372	0	0	0.448	0	0	0
38	1	688	0	2	2	0.3703	0.2372	1	0	0.631	0	0	82
38	1	689	1	2	2	0.3703	0.2372	1	1	0.480	87	82	0
38	1	690	0	1	1	0.3703	0.2372	0	1	0.350	10	82	82
38	1	691	1	2	3	0.3703	0.2372	1	1	0.434	92	82	0
38	1	692	0	1	3	0.3703	0.2372	0	1	0.394	10	82	82
38	1	693	9	1	3	0.3703	0.2372	1	1	0.405	0	0	82
38	1	694	0	1	3	0.3703	0.2372	0	1	0.448	9	82	82
38	1	695	1	2	2	0.3703	0.2372	0	1	0.408	94	0	0
38	1	696	1	1	3	0.3703	0.2372	0	1	0.481	87	0	0
38	1	697	1	1	3	0.3703	0.2372	1	1	0.400	95	0	82
38	1	698	1	2	3	0.3703	0.2372	0	1	0.576	77	0	0
38	1	699	0	2	3	0.3703	0.2372	1	1	0.434	9	0	82
38	1	700	0	2	3	0.3703	0.2372	0	1	0.444	9	82	82
38	1	701	0	1	1	0.3703	0.2372	1	1	0.537	8	82	0
38	1	702	0	1	2	0.3703	0.2372	1	1	0.644	7	82	0
38	1	703	9	1	1	0.3703	0.2372	1	1	0.365	0	0	82
38	1	704	0	1	3	0.3703	0.2372	1	1	0.600	8	82	0
38	1	705	1	1	1	0.3703	0.2372	0	1	0.537	81	0	0
38	1	706	0	2	1	0.3703	0.2372	0	1	0.799	6	82	82
38	1	707	0	2	3	0.3703	0.2372	1	1	0.687	7	0	82
38	1	708	0	2	3	0.3703	0.2372	0	1	0.431	9	82	82
38	1	709	0	2	2	0.3703	0.2372	0	1	0.455	9	82	82
38	1	710	0	1	1	0.3703	0.2372	1	0	0.488	0	82	0
38	1	711	1	2	3	0.3703	0.2372	0	1	0.550	80	0	0
38	1	712	1	2	3	0.3703	0.2372	0	1	0.498	85	0	0
38	1	713	0	2	2	0.3703	0.2372	0	1	0.401	9	82	82
38	1	714	1	1	3	0.3703	0.2372	0	1	0.476	87	0	0
38	1	715	0	1	3	0.3703	0.2372	0	1	0.546	8	82	82
38	1	716	1	2	3	0.3703	0.2372	0	0	0.517	0	0	0
38	1	717	1	1	1	0.3703	0.2372	0	1	0.402	95	0	0
38	1	718	1	2	2	0.3703	0.2372	1	1	0.598	75	82	0
38	1	719	1	1	3	0.3703	0.2372	1	1	0.505	85	0	82
38	1	720	0	1	3	0.3703	0.2372	0	1	0.432	9	82	82
