sub	sess	t	rew	loc	cue	co1	co2	or	resp	rt	rew_tot	left_col	right_col
81	1	1	1	1	3	0.1209	0.0500	0	1	0.560	79	82	82
81	1	2	9	1	2	0.1209	0.0500	0	1	0.414	0	0	0
81	1	3	1	1	3	0.1209	0.0500	0	1	0.494	86	82	82
81	1	4	9	1	2	0.1209	0.0500	0	1	0.391	0	82	82
81	1	5	1	2	3	0.1209	0.0500	1	1	0.558	79	0	82
81	1	6	1	1	1	0.1209	0.0500	1	1	0.487	86	82	0
81	1	7	1	1	3	0.1209	0.0500	0	1	0.413	94	82	82
81	1	8	1	2	2	0.1209	0.0500	1	0	0.491	0	0	82
81	1	9	9	1	3	0.1209	0.0500	0	0	0.508	0	82	82
81	1	10	1	2	3	0.1209	0.0500	0	1	0.613	74	82	82
81	1	11	9	1	1	0.1209	0.0500	0	1	0.429	0	82	82
81	1	12	0	1	3	0.1209	0.0500	1	1	0.443	9	0	82
81	1	13	1	1	1	0.1209	0.0500	0	1	0.479	87	82	82
81	1	14	0	1	3	0.1209	0.0500	0	1	0.436	9	0	0
81	1	15	1	1	1	0.1209	0.0500	1	1	0.392	96	82	0
81	1	16	0	2	3	0.1209	0.0500	1	1	0.562	8	82	0
81	1	17	0	2	2	0.1209	0.0500	1	0	0.557	0	82	0
81	1	18	1	2	3	0.1209	0.0500	0	1	0.419	93	82	82
81	1	19	0	1	1	0.1209	0.0500	1	1	0.650	7	0	82
81	1	20	1	1	3	0.1209	0.0500	0	0	0.501	0	82	82
81	1	21	1	2	2	0.1209	0.0500	0	1	0.528	82	82	82
81	1	22	1	2	3	0.1209	0.0500	0	1	0.533	82	82	82
81	1	23	0	2	3	0.1209	0.0500	1	1	0.520	8	82	0
81	1	24	0	1	1	0.1209	0.0500	0	1	0.447	9	0	0
81	1	25	9	2	1	0.1209	0.0500	0	1	0.488	0	82	82
81	1	26	0	2	2	0.1209	0.0500	0	1	0.425	9	0	0
81	1	27	1	1	1	0.1209	0.0500	1	1	0.470	88	82	0
81	1	28	1	1	1	0.1209	0.0500	1	1	0.452	90	82	0
81	1	29	0	2	3	0.1209	0.0500	0	1	0.466	9	0	0
81	1	30	1	1	2	0.1209	0.0500	0	1	0.498	85	82	82
81	1	31	1	1	2	0.1209	0.0500	1	1	0.709	64	82	0
81	1	32	9	1	3	0.1209	0.0500	0	1	0.406	0	82	82
81	1	33	1	1	2	0.1209	0.0500	1	0	0.387	0	82	0
81	1	34	1	2	2	0.1209	0.0500	0	1	0.439	91	82	82
81	1	35	0	2	3	0.1209	0.0500	0	1	0.443	9	0	0
81	1	36	9	2	2	0.1209	0.0500	1	1	0.489	0	0	82
81	1	37	1	1	3	0.1209	0.0500	1	1	0.465	88	82	0
81	1	38	0	1	3	0.1209	0.0500	0	1	0.764	6	0	0
81	1	39	1	2	3	0.1209	0.0500	0	1	0.915	50	82	82
81	1	40	1	1	2	0.1209	0.0500	0	0	0.474	0	82	82
81	1	41	0	2	3	0.1209	0.0500	1	1	0.588	8	82	0
81	1	42	9	2	2	0.1209	0.0500	0	1	0.720	0	0	0
81	1	43	9	1	1	0.1209	0.0500	1	1	0.707	0	0	82
81	1	44	1	2	3	0.1209	0.0500	0	1	0.421	93	82	82
81	1	45	9	1	3	0.1209	0.0500	1	1	0.570	0	0	82
81	1	46	9	2	3	0.1209	0.0500	1	0	0.434	0	0	82
81	1	47	0	1	3	0.1209	0.0500	1	1	0.679	7	0	82
81	1	48	1	1	3	0.1209	0.0500	1	1	0.444	91	82	0
81	1	49	9	2	3	0.1209	0.0500	0	0	0.704	0	82	82
81	1	50	0	2	2	0.1209	0.0500	1	1	0.517	8	82	0
81	1	51	0	2	3	0.1209	0.0500	0	1	0.602	7	0	0
81	1	52	0	1	3	0.1209	0.0500	0	0	0.565	0	0	0
81	1	53	1	1	1	0.1209	0.0500	0	1	0.572	78	82	82
81	1	54	9	1	1	0.1209	0.0500	0	1	0.467	0	82	82
81	1	55	1	2	2	0.1209	0.0500	1	1	0.627	72	0	82
81	1	56	0	2	3	0.1209	0.0500	0	1	0.501	8	0	0
81	1	57	1	1	1	0.1209	0.0500	1	1	0.590	76	82	0
81	1	58	1	1	3	0.1209	0.0500	0	1	0.525	83	82	82
81	1	59	0	2	2	0.1209	0.0500	0	1	0.504	8	0	0
81	1	60	9	2	3	0.1209	0.0500	0	1	0.523	0	0	0
81	1	61	0	1	1	0.1209	0.0500	1	1	0.504	8	0	82
81	1	62	0	1	2	0.1209	0.0500	0	1	0.470	9	0	0
81	1	63	1	1	3	0.1209	0.0500	1	1	0.465	89	82	0
81	1	64	1	2	3	0.1209	0.0500	1	1	0.527	82	0	82
81	1	65	0	2	3	0.1209	0.0500	1	1	0.404	9	82	0
81	1	66	1	2	1	0.1209	0.0500	1	1	0.374	98	0	82
81	1	67	9	2	2	0.1209	0.0500	0	1	0.428	0	82	82
81	1	68	0	1	1	0.1209	0.0500	1	1	0.439	9	0	82
81	1	69	0	2	2	0.1209	0.0500	0	1	0.437	9	0	0
81	1	70	1	1	3	0.1209	0.0500	1	1	0.466	88	82	0
81	1	71	9	1	3	0.1209	0.0500	1	1	0.412	0	82	0
81	1	72	0	2	3	0.1209	0.0500	1	1	0.595	8	82	0
81	1	73	9	1	2	0.1209	0.0500	1	1	0.453	0	0	82
81	1	74	0	1	3	0.1209	0.0500	0	1	0.595	8	0	0
81	1	75	0	1	2	0.1209	0.0500	0	1	0.426	9	0	0
81	1	76	0	2	2	0.1209	0.0500	0	0	0.554	0	0	0
81	1	77	1	1	3	0.1209	0.0500	0	1	0.503	85	82	82
81	1	78	9	2	3	0.1209	0.0500	1	0	0.569	0	0	82
81	1	79	9	2	3	0.1209	0.0500	1	1	0.463	0	0	82
81	1	80	1	1	3	0.1209	0.0500	1	1	0.769	58	82	0
81	1	81	0	1	3	0.1209	0.0500	0	1	0.499	9	0	0
81	1	82	0	2	3	0.1209	0.0500	0	0	0.551	0	0	0
81	1	83	0	2	1	0.1209	0.0500	1	1	0.518	8	82	0
81	1	84	0	2	3	0.1209	0.0500	1	1	0.468	9	82	0
81	1	85	1	2	3	0.1209	0.0500	0	1	0.517	83	82	82
81	1	86	9	2	3	0.1209	0.0500	0	1	0.433	0	82	82
81	1	87	0	1	1	0.1209	0.0500	0	0	0.460	0	0	0
81	1	88	0	1	1	0.1209	0.0500	1	0	0.526	0	0	82
81	1	89	1	2	3	0.1209	0.0500	0	0	0.746	0	82	82
81	1	90	0	1	1	0.1209	0.0500	0	1	0.556	8	0	0
81	1	91	1	1	2	0.1209	0.0500	0	1	0.467	88	82	82
81	1	92	9	1	1	0.1209	0.0500	1	1	0.492	0	0	82
81	1	93	9	2	2	0.1209	0.0500	1	0	0.627	0	0	82
81	1	94	1	2	3	0.1209	0.0500	1	1	0.620	73	0	82
81	1	95	9	1	3	0.1209	0.0500	0	1	0.517	0	0	0
81	1	96	9	2	1	0.1209	0.0500	1	1	0.515	0	82	0
81	1	97	1	2	1	0.1209	0.0500	0	1	0.705	65	82	82
81	1	98	1	2	2	0.1209	0.0500	1	1	0.550	80	0	82
81	1	99	1	1	1	0.1209	0.0500	1	1	0.541	81	82	0
81	1	100	1	1	1	0.1209	0.0500	0	1	0.513	84	82	82
81	1	101	9	1	1	0.1209	0.0500	1	1	0.482	0	82	0
81	1	102	0	1	2	0.1209	0.0500	1	1	0.417	9	0	82
81	1	103	1	2	1	0.1209	0.0500	1	0	0.582	0	0	82
81	1	104	0	2	3	0.1209	0.0500	0	1	0.421	9	0	0
81	1	105	9	1	1	0.1209	0.0500	0	1	0.486	0	82	82
81	1	106	9	2	1	0.1209	0.0500	0	1	0.568	0	0	0
81	1	107	0	1	1	0.1209	0.0500	0	0	0.426	0	0	0
81	1	108	1	2	2	0.1209	0.0500	1	1	0.722	63	0	82
81	1	109	0	1	1	0.1209	0.0500	1	1	0.597	8	0	82
81	1	110	0	1	3	0.1209	0.0500	1	1	0.519	8	0	82
81	1	111	0	1	2	0.1209	0.0500	0	1	0.504	8	0	0
81	1	112	0	2	1	0.1209	0.0500	1	1	1.182	5	82	0
81	1	113	1	2	1	0.1209	0.0500	0	1	0.508	84	82	82
81	1	114	0	1	1	0.1209	0.0500	1	1	0.561	8	0	82
81	1	115	9	1	3	0.1209	0.0500	1	1	0.442	0	82	0
81	1	116	9	1	1	0.1209	0.0500	0	1	0.521	0	0	0
81	1	117	1	1	3	0.1209	0.0500	1	1	0.414	94	82	0
81	1	118	9	2	3	0.1209	0.0500	1	1	0.730	0	0	82
81	1	119	1	1	3	0.1209	0.0500	0	1	0.529	82	82	82
81	1	120	0	2	2	0.1209	0.0500	1	0	0.527	0	82	0
81	1	121	1	2	2	0.1209	0.0500	0	1	0.502	85	82	82
81	1	122	0	2	2	0.1209	0.0500	0	0	0.842	0	0	0
81	1	123	0	1	1	0.1209	0.0500	1	1	0.552	8	0	82
81	1	124	9	1	1	0.1209	0.0500	0	1	0.487	0	0	0
81	1	125	1	2	3	0.1209	0.0500	1	1	0.529	82	0	82
81	1	126	1	2	2	0.1209	0.0500	1	1	0.483	87	0	82
81	1	127	0	2	2	0.1209	0.0500	1	1	0.432	9	82	0
81	1	128	0	2	2	0.1209	0.0500	0	1	0.520	8	0	0
81	1	129	0	1	3	0.1209	0.0500	1	1	0.482	9	0	82
81	1	130	0	1	1	0.1209	0.0500	1	1	0.513	8	0	82
81	1	131	1	1	2	0.1209	0.0500	1	1	0.459	89	82	0
81	1	132	1	1	3	0.1209	0.0500	1	1	0.467	88	82	0
81	1	133	1	2	3	0.1209	0.0500	1	1	0.823	53	0	82
81	1	134	9	1	1	0.1209	0.0500	1	1	0.596	0	82	0
81	1	135	9	1	1	0.1209	0.0500	1	1	0.639	0	0	82
81	1	136	1	2	2	0.1209	0.0500	1	1	0.617	73	0	82
81	1	137	0	1	3	0.1209	0.0500	1	1	0.491	9	0	82
81	1	138	1	2	3	0.1209	0.0500	0	1	0.791	56	82	82
81	1	139	0	1	1	0.1209	0.0500	1	1	0.504	8	0	82
81	1	140	9	2	2	0.1209	0.0500	1	1	0.529	0	0	82
81	1	141	1	1	1	0.1209	0.0500	1	1	0.456	89	82	0
81	1	142	9	2	2	0.1209	0.0500	1	1	0.561	0	82	0
81	1	143	9	1	1	0.1209	0.0500	0	0	0.466	0	82	82
81	1	144	9	2	1	0.1209	0.0500	1	1	0.561	0	0	82
81	1	145	9	1	3	0.1209	0.0500	1	0	0.555	0	0	82
81	1	146	1	1	1	0.1209	0.0500	0	1	0.563	79	82	82
81	1	147	0	2	3	0.1209	0.0500	0	0	0.513	0	0	0
81	1	148	1	2	3	0.1209	0.0500	0	1	0.518	83	82	82
81	1	149	0	2	2	0.1209	0.0500	1	1	0.513	8	82	0
81	1	150	0	2	3	0.1209	0.0500	0	1	0.518	8	0	0
81	1	151	0	2	3	0.1209	0.0500	0	1	0.401	9	0	0
81	1	152	1	1	1	0.1209	0.0500	1	1	0.440	91	82	0
81	1	153	1	1	1	0.1209	0.0500	0	1	0.507	84	82	82
81	1	154	1	1	3	0.1209	0.0500	1	0	0.574	0	82	0
81	1	155	1	2	3	0.1209	0.0500	0	1	0.532	82	82	82
81	1	156	0	2	2	0.1209	0.0500	1	0	0.531	0	82	0
81	1	157	1	2	3	0.1209	0.0500	1	1	0.463	89	0	82
81	1	158	0	2	2	0.1209	0.0500	1	1	0.496	9	82	0
81	1	159	0	1	3	0.1209	0.0500	0	0	0.479	0	0	0
81	1	160	1	1	1	0.1209	0.0500	1	1	0.473	88	82	0
81	1	161	9	2	2	0.1209	0.0500	1	1	0.484	0	0	82
81	1	162	9	2	2	0.1209	0.0500	0	1	1.210	0	82	82
81	1	163	1	2	3	0.1209	0.0500	1	1	0.455	89	0	82
81	1	164	0	2	3	0.1209	0.0500	1	1	0.444	9	82	0
81	1	165	0	1	1	0.1209	0.0500	0	1	0.544	8	0	0
81	1	166	1	1	1	0.1209	0.0500	0	1	0.489	86	82	82
81	1	167	0	1	1	0.1209	0.0500	1	1	0.488	9	0	82
81	1	168	1	1	3	0.1209	0.0500	0	1	0.368	98	82	82
81	1	169	1	2	3	0.1209	0.0500	1	1	0.642	71	0	82
81	1	170	1	2	3	0.1209	0.0500	1	1	0.568	78	0	82
81	1	171	0	1	3	0.1209	0.0500	0	1	0.521	8	0	0
81	1	172	0	2	1	0.1209	0.0500	0	1	0.388	10	0	0
81	1	173	1	1	1	0.1209	0.0500	1	1	0.438	91	82	0
81	1	174	0	1	1	0.1209	0.0500	0	1	0.422	9	0	0
81	1	175	9	1	3	0.1209	0.0500	1	1	0.381	0	82	0
81	1	176	0	2	3	0.1209	0.0500	1	0	0.254	0	82	0
81	1	177	0	1	1	0.1209	0.0500	1	1	0.401	9	0	82
81	1	178	0	1	3	0.1209	0.0500	1	1	0.365	10	0	82
81	1	179	1	1	1	0.1209	0.0500	0	1	0.426	92	82	82
81	1	180	0	1	3	0.1209	0.0500	0	1	0.363	10	0	0
81	1	181	0	1	1	0.1209	0.0500	1	1	0.519	8	0	82
81	1	182	1	1	3	0.1209	0.0500	1	1	0.373	98	82	0
81	1	183	1	1	1	0.1209	0.0500	0	1	0.492	86	82	82
81	1	184	1	2	2	0.1209	0.0500	0	1	0.549	80	82	82
81	1	185	0	2	3	0.1209	0.0500	1	1	0.410	9	82	0
81	1	186	1	2	2	0.1209	0.0500	0	1	0.420	93	82	82
81	1	187	0	1	1	0.1209	0.0500	1	1	0.484	9	0	82
81	1	188	1	2	2	0.1209	0.0500	1	0	0.459	0	0	82
81	1	189	0	1	2	0.1209	0.0500	1	1	0.475	9	0	82
81	1	190	0	2	2	0.1209	0.0500	0	1	0.476	9	0	0
81	1	191	1	1	3	0.1209	0.0500	0	1	0.568	78	82	82
81	1	192	0	1	3	0.1209	0.0500	0	1	0.445	9	0	0
81	1	193	1	1	3	0.1209	0.0500	1	0	0.393	0	82	0
81	1	194	0	2	3	0.1209	0.0500	0	1	0.585	8	0	0
81	1	195	1	1	3	0.1209	0.0500	1	1	0.434	92	82	0
81	1	196	1	2	2	0.1209	0.0500	1	0	0.529	0	0	82
81	1	197	1	1	1	0.1209	0.0500	1	1	0.782	57	82	0
81	1	198	9	2	3	0.1209	0.0500	0	1	0.516	0	0	0
81	1	199	9	2	2	0.1209	0.0500	1	0	0.550	0	82	0
81	1	200	0	2	2	0.1209	0.0500	1	1	0.475	9	82	0
81	1	201	1	1	3	0.1209	0.0500	0	0	0.446	0	82	82
81	1	202	0	1	3	0.1209	0.0500	1	1	0.454	9	0	82
81	1	203	1	2	2	0.1209	0.0500	1	1	0.536	81	0	82
81	1	204	0	1	1	0.1209	0.0500	1	1	0.394	10	0	82
81	1	205	0	1	2	0.1209	0.0500	0	0	0.375	0	0	0
81	1	206	0	2	2	0.1209	0.0500	1	1	0.523	8	82	0
81	1	207	9	1	2	0.1209	0.0500	1	1	0.615	0	82	0
81	1	208	0	2	2	0.1209	0.0500	1	1	0.411	9	82	0
81	1	209	9	1	3	0.1209	0.0500	0	1	0.615	0	82	82
81	1	210	9	2	2	0.1209	0.0500	1	1	0.610	0	82	0
81	1	211	9	2	2	0.1209	0.0500	0	1	0.565	0	0	0
81	1	212	1	2	2	0.1209	0.0500	1	1	0.518	83	0	82
81	1	213	1	2	2	0.1209	0.0500	0	1	0.451	90	82	82
81	1	214	1	2	2	0.1209	0.0500	0	1	0.431	92	82	82
81	1	215	1	2	3	0.1209	0.0500	1	1	0.401	95	0	82
81	1	216	1	2	2	0.1209	0.0500	0	1	0.411	94	82	82
81	1	217	9	2	2	0.1209	0.0500	0	1	0.389	0	82	82
81	1	218	9	1	3	0.1209	0.0500	0	0	0.635	0	0	0
81	1	219	0	1	3	0.1209	0.0500	0	1	0.480	9	0	0
81	1	220	1	1	1	0.1209	0.0500	0	1	0.458	89	82	82
81	1	221	0	2	3	0.1209	0.0500	1	0	0.544	0	82	0
81	1	222	9	2	3	0.1209	0.0500	0	1	0.489	0	82	82
81	1	223	1	2	2	0.1209	0.0500	0	1	0.381	97	82	82
81	1	224	0	1	3	0.1209	0.0500	0	0	0.521	0	0	0
81	1	225	9	2	3	0.1209	0.0500	1	0	0.470	0	82	0
81	1	226	0	1	3	0.1209	0.0500	1	1	0.632	7	0	82
81	1	227	0	2	2	0.1209	0.0500	1	1	0.423	9	82	0
81	1	228	9	2	3	0.1209	0.0500	1	0	0.564	0	82	0
81	1	229	0	2	2	0.1209	0.0500	0	1	0.437	9	0	0
81	1	230	1	1	3	0.1209	0.0500	0	0	0.476	0	82	82
81	1	231	0	1	3	0.1209	0.0500	1	1	0.554	8	0	82
81	1	232	0	2	3	0.1209	0.0500	1	1	0.656	7	82	0
81	1	233	0	1	1	0.1209	0.0500	0	1	0.526	8	0	0
81	1	234	0	1	3	0.1209	0.0500	0	1	0.445	9	0	0
81	1	235	0	1	3	0.1209	0.0500	1	1	0.448	9	0	82
81	1	236	1	1	3	0.1209	0.0500	0	1	0.437	91	82	82
81	1	237	0	1	1	0.1209	0.0500	1	1	0.663	7	0	82
81	1	238	1	1	3	0.1209	0.0500	0	1	0.446	90	82	82
81	1	239	1	2	2	0.1209	0.0500	0	1	0.576	77	82	82
81	1	240	1	2	3	0.1209	0.0500	0	1	0.516	83	82	82
81	1	241	9	2	2	0.1209	0.0500	0	1	0.409	0	0	0
81	1	242	0	2	2	0.1209	0.0500	0	1	0.536	8	0	0
81	1	243	0	2	2	0.1209	0.0500	0	1	0.514	8	0	0
81	1	244	1	1	3	0.1209	0.0500	0	1	0.545	80	82	82
81	1	245	0	2	2	0.1209	0.0500	1	1	0.629	7	82	0
81	1	246	9	2	2	0.1209	0.0500	0	0	0.595	0	82	82
81	1	247	1	2	2	0.1209	0.0500	0	1	0.481	87	82	82
81	1	248	0	1	2	0.1209	0.0500	1	1	0.456	9	0	82
81	1	249	1	2	2	0.1209	0.0500	1	1	0.537	81	0	82
81	1	250	1	1	1	0.1209	0.0500	0	0	0.528	0	82	82
81	1	251	1	1	1	0.1209	0.0500	1	1	0.532	82	82	0
81	1	252	1	2	1	0.1209	0.0500	1	1	0.608	74	0	82
81	1	253	1	1	3	0.1209	0.0500	1	1	0.528	82	82	0
81	1	254	0	1	1	0.1209	0.0500	0	1	0.519	8	0	0
81	1	255	9	1	1	0.1209	0.0500	1	1	0.412	0	0	82
81	1	256	9	1	1	0.1209	0.0500	1	1	0.415	0	82	0
81	1	257	0	2	1	0.1209	0.0500	1	0	0.529	0	82	0
81	1	258	0	2	3	0.1209	0.0500	0	1	0.551	8	0	0
81	1	259	9	2	3	0.1209	0.0500	0	1	0.448	0	82	82
81	1	260	1	1	3	0.1209	0.0500	1	1	0.434	92	82	0
81	1	261	1	2	2	0.1209	0.0500	0	1	0.482	87	82	82
81	1	262	0	2	3	0.1209	0.0500	0	1	0.502	8	0	0
81	1	263	1	2	3	0.1209	0.0500	0	1	0.495	86	82	82
81	1	264	1	1	1	0.1209	0.0500	1	1	0.526	82	82	0
81	1	265	0	1	2	0.1209	0.0500	1	1	0.518	8	0	82
81	1	266	9	2	3	0.1209	0.0500	1	1	0.512	0	82	0
81	1	267	0	2	1	0.1209	0.0500	0	0	0.535	0	0	0
81	1	268	0	2	2	0.1209	0.0500	0	1	0.474	9	0	0
81	1	269	1	2	3	0.1209	0.0500	0	0	0.560	0	82	82
81	1	270	0	1	3	0.1209	0.0500	0	0	0.384	0	0	0
81	1	271	1	1	3	0.1209	0.0500	0	1	0.372	98	82	82
81	1	272	1	2	1	0.1209	0.0500	0	1	0.859	50	82	82
81	1	273	0	1	3	0.1209	0.0500	0	1	0.611	7	0	0
81	1	274	0	2	2	0.1209	0.0500	1	1	0.623	7	82	0
81	1	275	1	2	3	0.1209	0.0500	0	1	1.169	50	82	82
81	1	276	9	1	3	0.1209	0.0500	1	1	0.601	0	82	0
81	1	277	1	1	1	0.1209	0.0500	0	1	0.464	89	82	82
81	1	278	0	2	3	0.1209	0.0500	1	0	0.725	0	82	0
81	1	279	9	1	3	0.1209	0.0500	1	1	0.732	0	0	82
81	1	280	1	1	1	0.1209	0.0500	0	1	0.464	89	82	82
81	1	281	1	1	1	0.1209	0.0500	1	1	0.402	95	82	0
81	1	282	0	2	3	0.1209	0.0500	0	1	0.525	8	0	0
81	1	283	1	1	1	0.1209	0.0500	1	1	0.439	91	82	0
81	1	284	0	1	3	0.1209	0.0500	0	1	0.411	9	0	0
81	1	285	9	1	3	0.1209	0.0500	0	1	0.430	0	0	0
81	1	286	0	1	3	0.1209	0.0500	1	1	0.469	9	0	82
81	1	287	0	2	3	0.1209	0.0500	1	0	0.602	0	82	0
81	1	288	1	2	3	0.1209	0.0500	1	1	0.570	78	0	82
81	1	289	0	1	1	0.1209	0.0500	0	1	0.458	9	0	0
81	1	290	1	1	3	0.1209	0.0500	0	1	0.407	94	82	82
81	1	291	0	2	3	0.1209	0.0500	0	0	0.583	0	0	0
81	1	292	1	1	3	0.1209	0.0500	1	1	0.527	82	82	0
81	1	293	0	2	1	0.1209	0.0500	1	0	0.607	0	82	0
81	1	294	1	2	2	0.1209	0.0500	0	1	0.529	82	82	82
81	1	295	1	2	3	0.1209	0.0500	1	1	0.511	84	0	82
81	1	296	1	1	1	0.1209	0.0500	0	1	0.661	69	82	82
81	1	297	0	1	1	0.1209	0.0500	0	1	0.476	9	0	0
81	1	298	0	1	1	0.1209	0.0500	0	1	0.474	9	0	0
81	1	299	9	2	2	0.1209	0.0500	0	1	0.475	0	0	0
81	1	300	0	1	3	0.1209	0.0500	1	1	0.464	9	0	82
81	1	301	1	1	1	0.1209	0.0500	0	1	0.589	76	82	82
81	1	302	1	1	3	0.1209	0.0500	1	1	0.414	94	82	0
81	1	303	0	2	3	0.1209	0.0500	1	0	0.514	0	82	0
81	1	304	1	1	1	0.1209	0.0500	0	1	0.446	90	82	82
81	1	305	1	2	2	0.1209	0.0500	1	1	0.560	79	0	82
81	1	306	0	2	2	0.1209	0.0500	0	1	0.452	9	0	0
81	1	307	0	2	2	0.1209	0.0500	1	1	0.478	9	82	0
81	1	308	1	2	1	0.1209	0.0500	0	1	0.433	92	82	82
81	1	309	1	2	2	0.1209	0.0500	0	1	0.409	94	82	82
81	1	310	0	1	1	0.1209	0.0500	1	1	0.455	9	0	82
81	1	311	9	1	3	0.1209	0.0500	1	1	0.463	0	0	82
81	1	312	0	1	1	0.1209	0.0500	0	1	0.509	8	0	0
81	1	313	1	2	2	0.1209	0.0500	1	0	0.603	0	0	82
81	1	314	1	1	2	0.1209	0.0500	0	1	0.577	77	82	82
81	1	315	0	2	2	0.1209	0.0500	1	1	0.584	8	82	0
81	1	316	0	2	3	0.1209	0.0500	0	1	0.518	8	0	0
81	1	317	0	1	1	0.1209	0.0500	0	0	0.760	0	0	0
81	1	318	0	1	3	0.1209	0.0500	1	1	0.474	9	0	82
81	1	319	1	2	3	0.1209	0.0500	1	0	0.481	0	0	82
81	1	320	1	2	2	0.1209	0.0500	0	1	0.466	88	82	82
81	1	321	0	2	3	0.1209	0.0500	1	1	0.536	8	82	0
81	1	322	0	2	2	0.1209	0.0500	0	1	0.492	9	0	0
81	1	323	9	1	1	0.1209	0.0500	1	1	0.418	0	82	0
81	1	324	1	2	3	0.1209	0.0500	1	1	0.554	80	0	82
81	1	325	0	1	3	0.1209	0.0500	0	1	0.519	8	0	0
81	1	326	0	2	3	0.1209	0.0500	1	1	0.596	8	82	0
81	1	327	1	2	2	0.1209	0.0500	1	1	0.612	74	0	82
81	1	328	1	2	2	0.1209	0.0500	1	1	0.528	82	0	82
81	1	329	0	2	1	0.1209	0.0500	0	0	0.520	0	0	0
81	1	330	9	2	3	0.1209	0.0500	0	1	0.384	0	0	0
81	1	331	1	2	2	0.1209	0.0500	0	1	0.508	84	82	82
81	1	332	1	2	2	0.1209	0.0500	1	1	0.438	91	0	82
81	1	333	1	2	3	0.1209	0.0500	0	1	0.500	85	82	82
81	1	334	1	2	3	0.1209	0.0500	0	1	0.396	95	82	82
81	1	335	0	1	1	0.1209	0.0500	0	1	0.736	6	0	0
81	1	336	9	1	1	0.1209	0.0500	0	1	0.519	0	0	0
81	1	337	0	2	2	0.1209	0.0500	1	1	0.603	7	82	0
81	1	338	9	2	3	0.1209	0.0500	0	1	0.590	0	0	0
81	1	339	1	2	3	0.1209	0.0500	1	1	0.401	95	0	82
81	1	340	0	1	3	0.1209	0.0500	1	1	0.838	5	0	82
81	1	341	9	1	1	0.1209	0.0500	0	1	0.486	0	0	0
81	1	342	9	2	2	0.1209	0.0500	1	1	0.428	0	82	0
81	1	343	0	2	2	0.1209	0.0500	0	1	0.612	7	0	0
81	1	344	1	1	2	0.1209	0.0500	1	1	0.435	92	82	0
81	1	345	0	1	1	0.1209	0.0500	0	0	0.460	0	0	0
81	1	346	9	1	3	0.1209	0.0500	0	1	0.384	0	0	0
81	1	347	1	1	3	0.1209	0.0500	1	1	0.527	82	82	0
81	1	348	0	2	2	0.1209	0.0500	0	1	0.491	9	0	0
81	1	349	9	2	3	0.1209	0.0500	1	1	0.614	0	82	0
81	1	350	0	1	3	0.1209	0.0500	1	0	0.514	0	0	82
81	1	351	0	2	1	0.1209	0.0500	0	1	0.504	8	0	0
81	1	352	1	1	1	0.1209	0.0500	0	0	0.445	0	82	82
81	1	353	0	1	1	0.1209	0.0500	0	1	0.677	7	0	0
81	1	354	1	2	1	0.1209	0.0500	1	1	0.607	74	0	82
81	1	355	0	2	2	0.1209	0.0500	0	1	0.419	9	0	0
81	1	356	0	2	3	0.1209	0.0500	0	1	0.504	8	0	0
81	1	357	9	1	3	0.1209	0.0500	0	1	0.508	0	82	82
81	1	358	1	1	1	0.1209	0.0500	1	1	0.426	92	82	0
81	1	359	0	1	3	0.1209	0.0500	1	0	0.410	0	0	82
81	1	360	1	2	3	0.1209	0.0500	1	1	0.566	78	0	82
81	1	361	0	2	2	0.1209	0.0500	0	1	0.498	9	0	0
81	1	362	0	2	3	0.1209	0.0500	0	0	0.436	0	0	0
81	1	363	1	2	3	0.1209	0.0500	1	0	0.534	0	0	82
81	1	364	1	1	1	0.1209	0.0500	1	1	0.616	73	82	0
81	1	365	9	1	1	0.1209	0.0500	0	0	0.647	0	82	82
81	1	366	0	2	3	0.1209	0.0500	1	1	0.491	9	82	0
81	1	367	0	2	2	0.1209	0.0500	1	1	0.424	9	82	0
81	1	368	1	2	2	0.1209	0.0500	1	1	0.395	95	0	82
81	1	369	1	1	1	0.1209	0.0500	0	1	0.886	50	82	82
81	1	370	9	2	3	0.1209	0.0500	0	0	0.617	0	82	82
81	1	371	1	2	2	0.1209	0.0500	1	1	0.569	78	0	82
81	1	372	0	1	1	0.1209	0.0500	1	1	0.650	7	0	82
81	1	373	1	1	3	0.1209	0.0500	0	1	0.586	76	82	82
81	1	374	1	2	2	0.1209	0.0500	1	1	0.575	77	0	82
81	1	375	0	2	3	0.1209	0.0500	1	1	0.473	9	82	0
81	1	376	1	1	3	0.1209	0.0500	1	1	0.592	76	82	0
81	1	377	1	2	2	0.1209	0.0500	1	1	0.567	78	0	82
81	1	378	1	1	1	0.1209	0.0500	0	0	0.480	0	82	82
81	1	379	1	2	3	0.1209	0.0500	0	1	0.772	58	82	82
81	1	380	0	1	3	0.1209	0.0500	1	1	0.463	9	0	82
81	1	381	9	2	3	0.1209	0.0500	0	1	0.486	0	0	0
81	1	382	0	2	2	0.1209	0.0500	0	1	0.451	9	0	0
81	1	383	0	1	1	0.1209	0.0500	0	0	0.552	0	0	0
81	1	384	1	1	3	0.1209	0.0500	0	1	0.472	88	82	82
81	1	385	9	1	3	0.1209	0.0500	1	1	0.567	0	82	0
81	1	386	0	2	3	0.1209	0.0500	0	1	0.705	6	0	0
81	1	387	1	2	2	0.1209	0.0500	0	1	0.539	81	82	82
81	1	388	0	2	3	0.1209	0.0500	0	1	0.429	9	0	0
81	1	389	0	2	3	0.1209	0.0500	1	1	0.617	7	82	0
81	1	390	1	2	2	0.1209	0.0500	1	1	0.491	86	0	82
81	1	391	9	2	2	0.1209	0.0500	0	1	0.698	0	0	0
81	1	392	1	2	3	0.1209	0.0500	0	0	0.591	0	82	82
81	1	393	9	2	3	0.1209	0.0500	0	1	0.574	0	0	0
81	1	394	0	1	3	0.1209	0.0500	1	1	0.579	8	0	82
81	1	395	0	1	3	0.1209	0.0500	0	1	0.561	8	0	0
81	1	396	0	1	3	0.1209	0.0500	1	1	0.474	9	0	82
81	1	397	1	1	1	0.1209	0.0500	1	1	0.463	89	82	0
81	1	398	0	2	3	0.1209	0.0500	1	0	0.630	0	82	0
81	1	399	9	2	2	0.1209	0.0500	1	1	0.823	0	0	82
81	1	400	1	2	1	0.1209	0.0500	0	1	0.671	68	82	82
81	1	401	0	2	1	0.1209	0.0500	1	1	0.559	8	82	0
81	1	402	0	2	3	0.1209	0.0500	1	1	0.532	8	82	0
81	1	403	1	1	1	0.1209	0.0500	1	1	0.415	93	82	0
81	1	404	0	1	3	0.1209	0.0500	0	1	0.648	7	0	0
81	1	405	1	2	1	0.1209	0.0500	1	1	0.590	76	0	82
81	1	406	1	1	1	0.1209	0.0500	1	1	0.517	83	82	0
81	1	407	0	2	2	0.1209	0.0500	1	1	0.557	8	82	0
81	1	408	0	2	3	0.1209	0.0500	1	1	0.384	10	82	0
81	1	409	0	2	2	0.1209	0.0500	1	1	0.557	8	82	0
81	1	410	0	1	1	0.1209	0.0500	1	1	0.495	9	0	82
81	1	411	0	2	1	0.1209	0.0500	0	0	0.727	0	0	0
81	1	412	9	2	2	0.1209	0.0500	0	1	0.694	0	0	0
81	1	413	1	1	1	0.1209	0.0500	0	0	0.692	0	82	82
81	1	414	0	1	3	0.1209	0.0500	0	1	0.747	6	0	0
81	1	415	1	2	3	0.1209	0.0500	1	1	0.583	77	0	82
81	1	416	0	2	3	0.1209	0.0500	0	1	0.514	8	0	0
81	1	417	1	2	2	0.1209	0.0500	1	1	0.605	74	0	82
81	1	418	0	2	2	0.1209	0.0500	0	1	0.545	8	0	0
81	1	419	9	1	2	0.1209	0.0500	1	1	0.434	0	82	0
81	1	420	9	2	2	0.1209	0.0500	0	1	0.612	0	82	82
81	1	421	0	1	1	0.1209	0.0500	0	0	0.533	0	0	0
81	1	422	1	2	2	0.1209	0.0500	1	0	0.443	0	0	82
81	1	423	9	1	1	0.1209	0.0500	1	0	0.641	0	0	82
81	1	424	0	1	1	0.1209	0.0500	0	1	0.404	9	0	0
81	1	425	1	2	3	0.1209	0.0500	0	1	0.427	92	82	82
81	1	426	0	1	1	0.1209	0.0500	1	1	0.460	9	0	82
81	1	427	9	2	2	0.1209	0.0500	0	1	0.446	0	82	82
81	1	428	1	2	2	0.1209	0.0500	0	1	0.476	87	82	82
81	1	429	0	1	2	0.1209	0.0500	0	1	0.631	7	0	0
81	1	430	0	1	3	0.1209	0.0500	1	1	0.522	8	0	82
81	1	431	0	2	2	0.1209	0.0500	0	1	0.449	9	0	0
81	1	432	0	2	2	0.1209	0.0500	0	1	0.418	9	0	0
81	1	433	0	2	1	0.1209	0.0500	1	1	0.488	9	82	0
81	1	434	0	1	1	0.1209	0.0500	1	0	0.548	0	0	82
81	1	435	1	1	1	0.1209	0.0500	0	0	0.485	0	82	82
81	1	436	1	1	1	0.1209	0.0500	0	1	0.463	89	82	82
81	1	437	1	2	3	0.1209	0.0500	1	0	0.490	0	0	82
81	1	438	1	2	3	0.1209	0.0500	1	1	0.472	88	0	82
81	1	439	9	2	3	0.1209	0.0500	1	1	0.536	0	0	82
81	1	440	0	1	1	0.1209	0.0500	1	1	0.470	9	0	82
81	1	441	1	1	1	0.1209	0.0500	1	1	0.449	90	82	0
81	1	442	0	1	3	0.1209	0.0500	0	1	0.655	7	0	0
81	1	443	1	2	3	0.1209	0.0500	0	1	0.560	79	82	82
81	1	444	9	2	3	0.1209	0.0500	0	1	0.636	0	82	82
81	1	445	0	2	3	0.1209	0.0500	0	1	0.439	9	0	0
81	1	446	0	2	2	0.1209	0.0500	0	1	0.403	9	0	0
81	1	447	0	1	1	0.1209	0.0500	1	1	0.602	7	0	82
81	1	448	1	1	1	0.1209	0.0500	1	1	0.445	90	82	0
81	1	449	1	2	2	0.1209	0.0500	0	1	0.422	93	82	82
81	1	450	9	1	3	0.1209	0.0500	0	0	0.562	0	0	0
81	1	451	1	1	3	0.1209	0.0500	0	1	0.482	87	82	82
81	1	452	9	2	3	0.1209	0.0500	0	1	0.590	0	0	0
81	1	453	0	2	2	0.1209	0.0500	0	1	0.706	6	0	0
81	1	454	0	1	1	0.1209	0.0500	0	1	0.532	8	0	0
81	1	455	0	2	1	0.1209	0.0500	0	1	0.448	9	0	0
81	1	456	0	2	3	0.1209	0.0500	1	1	0.585	8	82	0
81	1	457	0	1	3	0.1209	0.0500	1	1	0.663	7	0	82
81	1	458	1	2	3	0.1209	0.0500	0	1	0.467	88	82	82
81	1	459	1	1	1	0.1209	0.0500	0	1	0.421	93	82	82
81	1	460	1	2	1	0.1209	0.0500	0	1	0.423	93	82	82
81	1	461	0	1	2	0.1209	0.0500	0	1	0.469	9	0	0
81	1	462	1	2	3	0.1209	0.0500	0	1	0.414	94	82	82
81	1	463	1	1	3	0.1209	0.0500	1	1	0.469	88	82	0
81	1	464	1	1	1	0.1209	0.0500	1	1	0.454	90	82	0
81	1	465	1	1	1	0.1209	0.0500	1	1	0.460	89	82	0
81	1	466	1	2	1	0.1209	0.0500	0	1	0.488	86	82	82
81	1	467	1	2	3	0.1209	0.0500	1	0	0.491	0	0	82
81	1	468	1	1	3	0.1209	0.0500	1	1	0.662	69	82	0
81	1	469	0	1	1	0.1209	0.0500	1	1	0.586	8	0	82
81	1	470	1	2	3	0.1209	0.0500	0	0	0.543	0	82	82
81	1	471	9	1	3	0.1209	0.0500	0	1	1.885	0	82	82
81	1	472	0	1	1	0.1209	0.0500	0	1	0.564	8	0	0
81	1	473	1	1	3	0.1209	0.0500	0	1	0.518	83	82	82
81	1	474	0	1	2	0.1209	0.0500	1	1	0.449	9	0	82
81	1	475	1	2	2	0.1209	0.0500	1	0	0.544	0	0	82
81	1	476	9	2	3	0.1209	0.0500	1	1	0.469	0	82	0
81	1	477	1	1	3	0.1209	0.0500	1	1	0.570	78	82	0
81	1	478	9	2	3	0.1209	0.0500	1	0	0.448	0	0	82
81	1	479	1	2	3	0.1209	0.0500	1	1	0.646	70	0	82
81	1	480	1	2	3	0.1209	0.0500	0	1	0.492	86	82	82
81	1	481	9	1	3	0.1209	0.0500	0	1	0.657	0	0	0
81	1	482	1	1	1	0.1209	0.0500	0	1	0.509	84	82	82
81	1	483	9	1	1	0.1209	0.0500	1	1	0.621	0	0	82
81	1	484	1	2	2	0.1209	0.0500	0	1	0.381	97	82	82
81	1	485	0	1	3	0.1209	0.0500	1	1	0.727	6	0	82
81	1	486	1	1	3	0.1209	0.0500	0	1	0.491	86	82	82
81	1	487	1	1	3	0.1209	0.0500	0	1	2.898	50	82	82
81	1	488	9	2	2	0.1209	0.0500	1	1	0.207	0	82	0
81	1	489	1	2	2	0.1209	0.0500	1	0	0.650	0	0	82
81	1	490	0	1	3	0.1209	0.0500	0	1	0.808	5	0	0
81	1	491	0	1	1	0.1209	0.0500	0	1	1.112	5	0	0
81	1	492	9	2	2	0.1209	0.0500	1	0	0.813	0	82	0
81	1	493	1	2	3	0.1209	0.0500	0	1	0.723	63	82	82
81	1	494	9	1	3	0.1209	0.0500	1	1	0.472	0	82	0
81	1	495	0	1	3	0.1209	0.0500	0	1	0.463	9	0	0
81	1	496	1	2	2	0.1209	0.0500	0	1	0.463	89	82	82
81	1	497	1	1	1	0.1209	0.0500	0	1	0.447	90	82	82
81	1	498	0	1	2	0.1209	0.0500	0	1	0.392	10	0	0
81	1	499	1	2	3	0.1209	0.0500	1	1	0.577	77	0	82
81	1	500	1	1	3	0.1209	0.0500	0	1	0.374	98	82	82
81	1	501	9	1	3	0.1209	0.0500	1	0	0.527	0	82	0
81	1	502	1	1	3	0.1209	0.0500	0	1	0.626	72	82	82
81	1	503	1	2	2	0.1209	0.0500	1	0	0.420	0	0	82
81	1	504	1	1	2	0.1209	0.0500	0	1	0.520	83	82	82
81	1	505	1	2	2	0.1209	0.0500	0	0	0.644	0	82	82
81	1	506	0	1	3	0.1209	0.0500	0	1	0.445	9	0	0
81	1	507	9	2	1	0.1209	0.0500	0	1	0.502	0	82	82
81	1	508	1	1	3	0.1209	0.0500	1	1	0.546	80	82	0
81	1	509	0	2	2	0.1209	0.0500	1	0	0.492	0	82	0
81	1	510	1	1	3	0.1209	0.0500	0	0	0.513	0	82	82
81	1	511	0	1	2	0.1209	0.0500	0	1	0.526	8	0	0
81	1	512	1	1	2	0.1209	0.0500	0	1	0.473	88	82	82
81	1	513	9	1	3	0.1209	0.0500	1	1	0.898	0	82	0
81	1	514	1	2	2	0.1209	0.0500	0	1	0.708	64	82	82
81	1	515	0	2	3	0.1209	0.0500	0	1	0.557	8	0	0
81	1	516	1	1	3	0.1209	0.0500	1	1	1.059	50	82	0
81	1	517	9	1	1	0.1209	0.0500	0	1	0.538	0	82	82
81	1	518	0	2	2	0.1209	0.0500	1	0	0.631	0	82	0
81	1	519	9	2	2	0.1209	0.0500	1	1	0.672	0	82	0
81	1	520	9	1	1	0.1209	0.0500	1	0	0.487	0	0	82
81	1	521	1	1	2	0.1209	0.0500	0	1	0.492	86	82	82
81	1	522	9	2	2	0.1209	0.0500	0	1	0.384	0	0	0
81	1	523	0	2	2	0.1209	0.0500	0	0	0.508	0	0	0
81	1	524	1	2	3	0.1209	0.0500	0	1	0.378	97	82	82
81	1	525	1	1	1	0.1209	0.0500	1	0	0.463	0	82	0
81	1	526	1	1	2	0.1209	0.0500	1	1	0.487	86	82	0
81	1	527	1	1	3	0.1209	0.0500	1	1	0.655	70	82	0
81	1	528	9	2	2	0.1209	0.0500	0	1	0.447	0	0	0
81	1	529	9	2	2	0.1209	0.0500	1	0	0.472	0	0	82
81	1	530	1	2	2	0.1209	0.0500	0	0	0.628	0	82	82
81	1	531	0	2	1	0.1209	0.0500	1	0	0.473	0	82	0
81	1	532	9	1	3	0.1209	0.0500	1	1	0.435	0	0	82
81	1	533	1	1	3	0.1209	0.0500	1	1	0.444	91	82	0
81	1	534	1	1	1	0.1209	0.0500	1	1	0.528	82	82	0
81	1	535	1	2	3	0.1209	0.0500	1	1	0.369	98	0	82
81	1	536	9	1	3	0.1209	0.0500	1	1	0.534	0	0	82
81	1	537	0	1	1	0.1209	0.0500	1	1	0.429	9	0	82
81	1	538	1	2	3	0.1209	0.0500	0	1	0.464	89	82	82
81	1	539	0	2	3	0.1209	0.0500	0	1	0.411	9	0	0
81	1	540	0	2	2	0.1209	0.0500	0	1	0.499	9	0	0
81	1	541	0	2	3	0.1209	0.0500	0	1	0.416	9	0	0
81	1	542	0	1	3	0.1209	0.0500	1	1	0.388	10	0	82
81	1	543	9	1	3	0.1209	0.0500	0	1	0.488	0	0	0
81	1	544	0	1	1	0.1209	0.0500	1	1	0.440	9	0	82
81	1	545	1	2	3	0.1209	0.0500	1	0	0.635	0	0	82
81	1	546	9	1	1	0.1209	0.0500	0	1	3.349	0	0	0
81	1	547	9	1	1	0.1209	0.0500	0	1	0.474	0	0	0
81	1	548	1	2	2	0.1209	0.0500	1	1	1.122	50	0	82
81	1	549	9	2	1	0.1209	0.0500	1	1	1.334	0	82	0
81	1	550	9	1	1	0.1209	0.0500	1	1	0.532	0	82	0
81	1	551	9	2	2	0.1209	0.0500	1	0	0.791	0	82	0
81	1	552	0	2	3	0.1209	0.0500	0	1	0.659	7	0	0
81	1	553	1	1	1	0.1209	0.0500	0	1	0.524	83	82	82
81	1	554	1	2	2	0.1209	0.0500	0	0	1.265	0	82	82
81	1	555	1	1	3	0.1209	0.0500	0	1	0.485	87	82	82
81	1	556	1	2	2	0.1209	0.0500	1	1	0.588	76	0	82
81	1	557	9	1	3	0.1209	0.0500	0	1	0.620	0	82	82
81	1	558	1	2	3	0.1209	0.0500	1	1	0.732	62	0	82
81	1	559	0	1	1	0.1209	0.0500	0	1	0.555	8	0	0
81	1	560	1	2	2	0.1209	0.0500	0	0	0.568	0	82	82
81	1	561	1	2	2	0.1209	0.0500	0	1	0.464	89	82	82
81	1	562	0	1	1	0.1209	0.0500	0	0	0.490	0	0	0
81	1	563	0	1	1	0.1209	0.0500	1	1	0.560	8	0	82
81	1	564	1	1	3	0.1209	0.0500	0	1	0.524	83	82	82
81	1	565	0	2	2	0.1209	0.0500	0	1	0.622	7	0	0
81	1	566	1	2	2	0.1209	0.0500	0	1	0.461	89	82	82
81	1	567	1	1	1	0.1209	0.0500	0	0	0.523	0	82	82
81	1	568	9	2	2	0.1209	0.0500	1	0	0.746	0	0	82
81	1	569	1	1	1	0.1209	0.0500	0	1	0.514	84	82	82
81	1	570	1	1	3	0.1209	0.0500	0	1	0.479	87	82	82
81	1	571	1	1	1	0.1209	0.0500	1	1	0.462	89	82	0
81	1	572	0	2	2	0.1209	0.0500	0	1	0.524	8	0	0
81	1	573	0	2	3	0.1209	0.0500	1	0	0.435	0	82	0
81	1	574	1	1	1	0.1209	0.0500	0	1	1.143	50	82	82
81	1	575	9	1	1	0.1209	0.0500	0	1	0.842	0	0	0
81	1	576	1	1	1	0.1209	0.0500	1	1	0.409	94	82	0
81	1	577	9	1	1	0.1209	0.0500	0	1	0.442	0	0	0
81	1	578	0	1	1	0.1209	0.0500	0	1	0.453	9	0	0
81	1	579	0	2	3	0.1209	0.0500	1	1	0.495	9	82	0
81	1	580	1	2	3	0.1209	0.0500	1	1	0.461	89	0	82
81	1	581	9	2	2	0.1209	0.0500	0	0	0.488	0	82	82
81	1	582	1	1	3	0.1209	0.0500	1	1	0.464	89	82	0
81	1	583	0	1	3	0.1209	0.0500	0	1	0.453	9	0	0
81	1	584	1	2	2	0.1209	0.0500	0	1	0.727	62	82	82
81	1	585	1	2	3	0.1209	0.0500	1	1	0.448	90	0	82
81	1	586	0	1	3	0.1209	0.0500	0	1	0.532	8	0	0
81	1	587	0	2	1	0.1209	0.0500	0	1	0.500	9	0	0
81	1	588	9	1	3	0.1209	0.0500	0	0	0.511	0	0	0
81	1	589	0	2	3	0.1209	0.0500	0	1	0.511	8	0	0
81	1	590	9	1	1	0.1209	0.0500	0	0	0.455	0	82	82
81	1	591	0	2	2	0.1209	0.0500	1	1	0.457	9	82	0
81	1	592	0	1	3	0.1209	0.0500	0	1	0.443	9	0	0
81	1	593	0	2	3	0.1209	0.0500	1	0	0.442	0	82	0
81	1	594	0	2	3	0.1209	0.0500	0	1	0.456	9	0	0
81	1	595	0	1	1	0.1209	0.0500	1	1	0.447	9	0	82
81	1	596	1	1	2	0.1209	0.0500	1	1	0.408	94	82	0
81	1	597	9	1	3	0.1209	0.0500	1	1	0.417	0	0	82
81	1	598	1	2	2	0.1209	0.0500	1	0	0.502	0	0	82
81	1	599	0	2	3	0.1209	0.0500	1	0	0.482	0	82	0
81	1	600	1	1	3	0.1209	0.0500	1	1	0.470	88	82	0
81	1	601	1	1	3	0.1209	0.0500	1	1	0.451	90	82	0
81	1	602	1	1	1	0.1209	0.0500	0	0	0.614	0	82	82
81	1	603	0	2	2	0.1209	0.0500	0	1	0.604	7	0	0
81	1	604	1	1	1	0.1209	0.0500	1	1	0.649	70	82	0
81	1	605	0	2	3	0.1209	0.0500	0	0	1.126	0	0	0
81	1	606	1	1	3	0.1209	0.0500	1	1	1.210	50	82	0
81	1	607	0	2	2	0.1209	0.0500	0	0	3.081	0	0	0
81	1	608	0	1	1	0.1209	0.0500	0	1	0.672	7	0	0
81	1	609	1	1	3	0.1209	0.0500	0	1	0.708	64	82	82
81	1	610	9	1	3	0.1209	0.0500	0	1	0.528	0	82	82
81	1	611	0	1	3	0.1209	0.0500	1	1	0.537	8	0	82
81	1	612	1	2	2	0.1209	0.0500	0	1	0.401	95	82	82
81	1	613	9	2	3	0.1209	0.0500	1	1	0.469	0	0	82
81	1	614	1	1	2	0.1209	0.0500	0	0	0.477	0	82	82
81	1	615	9	1	1	0.1209	0.0500	1	1	0.423	0	82	0
81	1	616	0	2	2	0.1209	0.0500	1	1	0.539	8	82	0
81	1	617	1	1	3	0.1209	0.0500	0	1	0.557	79	82	82
81	1	618	1	1	3	0.1209	0.0500	0	1	0.515	84	82	82
81	1	619	1	2	2	0.1209	0.0500	0	1	0.722	63	82	82
81	1	620	0	1	1	0.1209	0.0500	0	1	3.623	5	0	0
81	1	621	0	2	2	0.1209	0.0500	1	1	0.619	7	82	0
81	1	622	0	2	3	0.1209	0.0500	1	1	0.499	9	82	0
81	1	623	9	2	3	0.1209	0.0500	1	1	0.410	0	82	0
81	1	624	9	2	3	0.1209	0.0500	1	1	0.395	0	0	82
81	1	625	0	2	2	0.1209	0.0500	1	1	0.383	10	82	0
81	1	626	0	1	3	0.1209	0.0500	1	0	0.422	0	0	82
81	1	627	9	1	1	0.1209	0.0500	1	1	0.447	0	0	82
81	1	628	0	1	3	0.1209	0.0500	0	1	0.472	9	0	0
81	1	629	0	1	3	0.1209	0.0500	1	1	0.429	9	0	82
81	1	630	0	1	1	0.1209	0.0500	0	1	0.407	9	0	0
81	1	631	9	1	1	0.1209	0.0500	0	1	0.469	0	82	82
81	1	632	0	1	1	0.1209	0.0500	0	1	0.413	9	0	0
81	1	633	0	2	2	0.1209	0.0500	1	1	0.509	8	82	0
81	1	634	9	2	1	0.1209	0.0500	0	1	0.505	0	0	0
81	1	635	1	2	1	0.1209	0.0500	1	1	0.537	81	0	82
81	1	636	1	2	2	0.1209	0.0500	1	1	0.400	95	0	82
81	1	637	9	2	3	0.1209	0.0500	1	1	0.456	0	82	0
81	1	638	0	2	2	0.1209	0.0500	1	1	0.404	9	82	0
81	1	639	0	2	2	0.1209	0.0500	0	0	0.508	0	0	0
81	1	640	0	1	2	0.1209	0.0500	1	1	0.402	9	0	82
81	1	641	0	2	2	0.1209	0.0500	1	1	0.480	9	82	0
81	1	642	0	1	3	0.1209	0.0500	0	1	0.568	8	0	0
81	1	643	0	2	2	0.1209	0.0500	1	1	0.413	9	82	0
81	1	644	9	1	3	0.1209	0.0500	0	1	0.451	0	82	82
81	1	645	1	2	3	0.1209	0.0500	0	0	0.712	0	82	82
81	1	646	9	1	1	0.1209	0.0500	1	1	0.624	0	82	0
81	1	647	0	1	3	0.1209	0.0500	0	1	0.420	9	0	0
81	1	648	0	2	3	0.1209	0.0500	1	1	0.516	8	82	0
81	1	649	9	2	3	0.1209	0.0500	0	1	0.471	0	82	82
81	1	650	9	1	2	0.1209	0.0500	1	1	0.440	0	0	82
81	1	651	0	1	3	0.1209	0.0500	1	1	0.420	9	0	82
81	1	652	0	1	1	0.1209	0.0500	1	1	0.449	9	0	82
81	1	653	9	2	1	0.1209	0.0500	1	0	0.470	0	0	82
81	1	654	0	2	1	0.1209	0.0500	1	1	0.522	8	82	0
81	1	655	1	2	1	0.1209	0.0500	1	1	0.563	79	0	82
81	1	656	0	1	3	0.1209	0.0500	1	1	0.492	9	0	82
81	1	657	0	2	2	0.1209	0.0500	1	1	0.652	7	82	0
81	1	658	0	1	1	0.1209	0.0500	0	0	0.378	0	0	0
81	1	659	1	2	2	0.1209	0.0500	1	1	0.590	76	0	82
81	1	660	1	2	3	0.1209	0.0500	1	1	0.433	92	0	82
81	1	661	0	2	3	0.1209	0.0500	1	1	0.552	8	82	0
81	1	662	1	1	2	0.1209	0.0500	1	1	0.541	81	82	0
81	1	663	0	1	1	0.1209	0.0500	1	1	0.537	8	0	82
81	1	664	0	2	3	0.1209	0.0500	0	0	0.664	0	0	0
81	1	665	1	1	1	0.1209	0.0500	0	0	2.266	0	82	82
81	1	666	0	1	3	0.1209	0.0500	1	0	0.300	0	0	82
81	1	667	0	1	1	0.1209	0.0500	1	1	2.150	5	0	82
81	1	668	0	1	2	0.1209	0.0500	1	1	0.423	9	0	82
81	1	669	1	2	3	0.1209	0.0500	0	0	0.383	0	82	82
81	1	670	0	2	1	0.1209	0.0500	0	0	0.467	0	0	0
81	1	671	0	1	1	0.1209	0.0500	0	0	0.395	0	0	0
81	1	672	1	1	3	0.1209	0.0500	1	1	0.447	90	82	0
81	1	673	0	2	3	0.1209	0.0500	0	1	0.487	9	0	0
81	1	674	1	2	3	0.1209	0.0500	1	1	0.465	89	0	82
81	1	675	1	2	3	0.1209	0.0500	0	1	0.447	90	82	82
81	1	676	1	1	1	0.1209	0.0500	0	1	0.497	85	82	82
81	1	677	0	2	3	0.1209	0.0500	1	1	0.504	8	82	0
81	1	678	0	1	3	0.1209	0.0500	1	1	0.444	9	0	82
81	1	679	0	2	2	0.1209	0.0500	0	1	0.423	9	0	0
81	1	680	0	1	3	0.1209	0.0500	0	0	0.476	0	0	0
81	1	681	0	2	3	0.1209	0.0500	1	1	0.483	9	82	0
81	1	682	9	2	3	0.1209	0.0500	1	1	0.400	0	82	0
81	1	683	1	1	2	0.1209	0.0500	1	0	0.482	0	82	0
81	1	684	9	1	2	0.1209	0.0500	0	1	0.493	0	0	0
81	1	685	9	1	2	0.1209	0.0500	0	1	0.454	0	82	82
81	1	686	1	1	3	0.1209	0.0500	1	1	0.442	91	82	0
81	1	687	1	2	3	0.1209	0.0500	0	1	0.741	61	82	82
81	1	688	1	1	1	0.1209	0.0500	0	1	0.432	92	82	82
81	1	689	0	2	3	0.1209	0.0500	0	1	0.458	9	0	0
81	1	690	1	2	3	0.1209	0.0500	1	1	0.481	87	0	82
81	1	691	0	2	3	0.1209	0.0500	0	1	0.467	9	0	0
81	1	692	0	2	2	0.1209	0.0500	0	0	0.648	0	0	0
81	1	693	0	2	2	0.1209	0.0500	1	1	0.583	8	82	0
81	1	694	0	1	3	0.1209	0.0500	0	0	0.477	0	0	0
81	1	695	1	2	1	0.1209	0.0500	1	1	0.552	80	0	82
81	1	696	1	1	3	0.1209	0.0500	0	1	0.695	65	82	82
81	1	697	9	1	1	0.1209	0.0500	1	1	0.569	0	82	0
81	1	698	9	1	3	0.1209	0.0500	1	1	0.413	0	0	82
81	1	699	1	1	1	0.1209	0.0500	1	1	0.521	83	82	0
81	1	700	1	1	3	0.1209	0.0500	1	1	0.397	95	82	0
81	1	701	0	1	3	0.1209	0.0500	1	1	0.495	9	0	82
81	1	702	0	2	2	0.1209	0.0500	1	0	0.496	0	82	0
81	1	703	9	2	3	0.1209	0.0500	0	1	0.413	0	82	82
81	1	704	9	2	2	0.1209	0.0500	1	1	0.464	0	0	82
81	1	705	1	1	1	0.1209	0.0500	1	1	0.496	85	82	0
81	1	706	1	2	3	0.1209	0.0500	1	1	0.473	88	0	82
81	1	707	0	1	1	0.1209	0.0500	0	1	0.676	7	0	0
81	1	708	0	1	2	0.1209	0.0500	1	1	0.542	8	0	82
81	1	709	1	2	1	0.1209	0.0500	0	1	0.427	92	82	82
81	1	710	9	2	2	0.1209	0.0500	0	0	0.450	0	82	82
81	1	711	1	2	2	0.1209	0.0500	0	1	0.410	94	82	82
81	1	712	1	1	1	0.1209	0.0500	1	1	0.575	78	82	0
81	1	713	0	1	3	0.1209	0.0500	0	1	0.423	9	0	0
81	1	714	0	1	3	0.1209	0.0500	1	1	0.482	9	0	82
81	1	715	1	1	3	0.1209	0.0500	1	1	0.453	90	82	0
81	1	716	0	1	1	0.1209	0.0500	1	1	0.469	9	0	82
81	1	717	1	2	2	0.1209	0.0500	1	1	0.546	80	0	82
81	1	718	1	2	3	0.1209	0.0500	0	0	0.513	0	82	82
81	1	719	9	2	3	0.1209	0.0500	0	1	0.931	0	0	0
81	1	720	0	1	1	0.1209	0.0500	1	1	0.464	9	0	82
