sub	sess	t	rew	loc	cue	co1	co2	or	resp	rt	rew_tot	left_col	right_col
124	1	1	0	1	3	0.1688	0.0879	1	1	0.560	8	82	0
124	1	2	9	1	3	0.1688	0.0879	1	1	0.689	0	0	82
124	1	3	1	2	3	0.1688	0.0879	0	1	0.470	88	0	0
124	1	4	1	2	1	0.1688	0.0879	0	1	0.413	94	0	0
124	1	5	0	2	3	0.1688	0.0879	0	1	0.479	9	82	82
124	1	6	0	2	2	0.1688	0.0879	1	1	0.573	8	0	82
124	1	7	1	1	1	0.1688	0.0879	0	1	0.376	97	0	0
124	1	8	0	2	2	0.1688	0.0879	1	1	0.587	8	0	82
124	1	9	9	1	1	0.1688	0.0879	0	1	0.409	0	0	0
124	1	10	1	2	2	0.1688	0.0879	0	1	0.391	96	0	0
124	1	11	1	2	3	0.1688	0.0879	0	1	0.392	96	0	0
124	1	12	1	2	1	0.1688	0.0879	1	1	0.566	78	82	0
124	1	13	9	1	3	0.1688	0.0879	1	1	0.499	0	0	82
124	1	14	1	1	3	0.1688	0.0879	1	0	0.443	0	0	82
124	1	15	1	1	2	0.1688	0.0879	0	1	0.510	84	0	0
124	1	16	0	2	3	0.1688	0.0879	0	1	0.439	9	82	82
124	1	17	1	1	1	0.1688	0.0879	0	1	0.695	65	0	0
124	1	18	9	2	3	0.1688	0.0879	1	1	0.566	0	0	82
124	1	19	0	2	2	0.1688	0.0879	1	1	0.538	8	0	82
124	1	20	9	2	1	0.1688	0.0879	0	1	0.440	0	0	0
124	1	21	0	2	3	0.1688	0.0879	1	1	0.606	7	0	82
124	1	22	1	1	1	0.1688	0.0879	1	1	0.641	71	0	82
124	1	23	0	1	2	0.1688	0.0879	1	0	0.421	0	82	0
124	1	24	0	1	1	0.1688	0.0879	1	0	0.527	0	82	0
124	1	25	1	2	3	0.1688	0.0879	1	0	0.636	0	82	0
124	1	26	1	1	3	0.1688	0.0879	1	1	0.613	74	0	82
124	1	27	9	2	2	0.1688	0.0879	1	1	0.595	0	82	0
124	1	28	9	1	1	0.1688	0.0879	1	1	0.619	0	0	82
124	1	29	9	2	3	0.1688	0.0879	0	1	0.440	0	0	0
124	1	30	1	1	1	0.1688	0.0879	0	0	0.523	0	0	0
124	1	31	9	1	3	0.1688	0.0879	0	1	0.730	0	82	82
124	1	32	0	2	2	0.1688	0.0879	0	1	0.466	9	82	82
124	1	33	9	2	3	0.1688	0.0879	0	1	0.371	0	82	82
124	1	34	0	2	2	0.1688	0.0879	1	1	0.698	7	0	82
124	1	35	9	1	2	0.1688	0.0879	1	1	0.663	0	82	0
124	1	36	9	1	3	0.1688	0.0879	0	0	0.625	0	82	82
124	1	37	0	2	2	0.1688	0.0879	1	1	0.620	7	0	82
124	1	38	0	2	3	0.1688	0.0879	1	1	0.582	8	0	82
124	1	39	0	1	1	0.1688	0.0879	0	1	0.764	6	82	82
124	1	40	0	1	1	0.1688	0.0879	1	1	0.622	7	82	0
124	1	41	0	2	3	0.1688	0.0879	0	1	0.758	6	82	82
124	1	42	9	2	2	0.1688	0.0879	1	1	0.596	0	0	82
124	1	43	1	1	1	0.1688	0.0879	0	1	0.492	86	0	0
124	1	44	1	1	3	0.1688	0.0879	1	1	0.487	86	0	82
124	1	45	1	2	2	0.1688	0.0879	0	1	0.431	92	0	0
124	1	46	1	2	3	0.1688	0.0879	1	1	0.436	91	82	0
124	1	47	1	2	2	0.1688	0.0879	1	1	0.489	86	82	0
124	1	48	9	2	2	0.1688	0.0879	0	1	0.445	0	0	0
124	1	49	0	2	2	0.1688	0.0879	0	1	0.412	9	82	82
124	1	50	0	1	3	0.1688	0.0879	0	1	0.555	8	82	82
124	1	51	9	2	3	0.1688	0.0879	1	1	0.456	0	82	0
124	1	52	0	2	2	0.1688	0.0879	0	1	0.411	9	82	82
124	1	53	0	1	1	0.1688	0.0879	0	1	0.608	7	82	82
124	1	54	0	1	1	0.1688	0.0879	1	1	0.569	8	82	0
124	1	55	0	2	3	0.1688	0.0879	1	1	0.769	6	0	82
124	1	56	1	1	3	0.1688	0.0879	0	1	0.535	81	0	0
124	1	57	1	2	2	0.1688	0.0879	0	1	0.405	95	0	0
124	1	58	0	1	3	0.1688	0.0879	0	1	0.499	9	82	82
124	1	59	1	1	3	0.1688	0.0879	1	1	0.489	86	0	82
124	1	60	0	2	3	0.1688	0.0879	0	1	0.431	9	82	82
124	1	61	9	2	3	0.1688	0.0879	1	0	0.586	0	0	82
124	1	62	9	1	2	0.1688	0.0879	0	1	0.629	0	0	0
124	1	63	9	2	2	0.1688	0.0879	0	1	0.484	0	82	82
124	1	64	1	2	2	0.1688	0.0879	0	1	0.465	89	0	0
124	1	65	0	2	3	0.1688	0.0879	1	0	0.732	0	0	82
124	1	66	1	1	2	0.1688	0.0879	1	1	0.485	87	0	82
124	1	67	9	1	1	0.1688	0.0879	0	1	0.400	0	82	82
124	1	68	9	1	1	0.1688	0.0879	0	1	0.440	0	0	0
124	1	69	0	1	1	0.1688	0.0879	0	1	0.391	10	82	82
124	1	70	0	1	3	0.1688	0.0879	0	1	0.549	8	82	82
124	1	71	9	2	2	0.1688	0.0879	1	1	0.455	0	82	0
124	1	72	0	1	3	0.1688	0.0879	1	1	0.813	5	82	0
124	1	73	1	2	3	0.1688	0.0879	1	1	0.618	73	82	0
124	1	74	1	1	1	0.1688	0.0879	0	1	0.414	94	0	0
124	1	75	0	1	3	0.1688	0.0879	0	1	0.390	10	82	82
124	1	76	1	1	3	0.1688	0.0879	0	1	0.364	99	0	0
124	1	77	0	2	3	0.1688	0.0879	1	0	0.502	0	0	82
124	1	78	1	1	1	0.1688	0.0879	0	1	0.408	94	0	0
124	1	79	1	1	2	0.1688	0.0879	1	1	0.567	78	0	82
124	1	80	9	2	2	0.1688	0.0879	1	1	0.457	0	0	82
124	1	81	0	2	2	0.1688	0.0879	0	1	0.626	7	82	82
124	1	82	0	2	3	0.1688	0.0879	1	0	0.496	0	0	82
124	1	83	9	2	2	0.1688	0.0879	1	0	0.688	0	0	82
124	1	84	0	2	3	0.1688	0.0879	0	1	0.519	8	82	82
124	1	85	0	2	2	0.1688	0.0879	0	1	0.546	8	82	82
124	1	86	0	2	1	0.1688	0.0879	1	0	0.499	0	0	82
124	1	87	0	1	3	0.1688	0.0879	1	1	0.650	7	82	0
124	1	88	9	2	2	0.1688	0.0879	0	1	0.493	0	82	82
124	1	89	1	2	2	0.1688	0.0879	0	1	0.380	97	0	0
124	1	90	9	1	2	0.1688	0.0879	0	1	0.577	0	82	82
124	1	91	0	1	3	0.1688	0.0879	1	0	0.587	0	82	0
124	1	92	9	2	3	0.1688	0.0879	0	1	0.465	0	82	82
124	1	93	1	2	3	0.1688	0.0879	1	1	0.553	80	82	0
124	1	94	9	1	1	0.1688	0.0879	0	1	0.510	0	82	82
124	1	95	9	1	1	0.1688	0.0879	1	0	0.340	0	0	82
124	1	96	0	1	1	0.1688	0.0879	1	0	0.467	0	82	0
124	1	97	1	2	3	0.1688	0.0879	1	0	0.461	0	82	0
124	1	98	0	1	1	0.1688	0.0879	0	1	0.594	8	82	82
124	1	99	0	1	1	0.1688	0.0879	1	1	0.530	8	82	0
124	1	100	0	2	2	0.1688	0.0879	0	1	0.581	8	82	82
124	1	101	0	2	2	0.1688	0.0879	0	1	0.500	8	82	82
124	1	102	0	2	1	0.1688	0.0879	1	0	0.438	0	0	82
124	1	103	9	2	2	0.1688	0.0879	1	0	0.488	0	82	0
124	1	104	9	2	3	0.1688	0.0879	1	1	0.693	0	82	0
124	1	105	0	1	2	0.1688	0.0879	0	1	0.495	9	82	82
124	1	106	1	2	2	0.1688	0.0879	1	1	0.535	82	82	0
124	1	107	1	2	2	0.1688	0.0879	1	0	0.409	0	82	0
124	1	108	1	1	1	0.1688	0.0879	1	1	0.441	91	0	82
124	1	109	1	2	2	0.1688	0.0879	1	1	0.371	98	82	0
124	1	110	1	2	3	0.1688	0.0879	0	1	0.402	95	0	0
124	1	111	0	2	2	0.1688	0.0879	1	0	0.490	0	0	82
124	1	112	0	1	1	0.1688	0.0879	1	1	0.689	7	82	0
124	1	113	1	2	2	0.1688	0.0879	0	1	0.392	96	0	0
124	1	114	0	1	1	0.1688	0.0879	1	0	0.418	0	82	0
124	1	115	9	1	3	0.1688	0.0879	1	1	0.693	0	82	0
124	1	116	1	1	1	0.1688	0.0879	0	1	0.530	82	0	0
124	1	117	0	2	3	0.1688	0.0879	0	1	0.475	9	82	82
124	1	118	1	1	3	0.1688	0.0879	0	1	0.700	65	0	0
124	1	119	1	2	1	0.1688	0.0879	1	0	0.515	0	82	0
124	1	120	1	2	2	0.1688	0.0879	1	1	0.460	89	82	0
124	1	121	1	1	3	0.1688	0.0879	0	1	0.457	89	0	0
124	1	122	0	1	2	0.1688	0.0879	0	1	0.529	8	82	82
124	1	123	0	1	2	0.1688	0.0879	0	1	0.482	9	82	82
124	1	124	0	1	2	0.1688	0.0879	1	0	0.481	0	82	0
124	1	125	0	2	3	0.1688	0.0879	0	1	0.436	9	82	82
124	1	126	9	2	2	0.1688	0.0879	0	1	0.502	0	0	0
124	1	127	0	2	3	0.1688	0.0879	0	1	0.418	9	82	82
124	1	128	9	2	1	0.1688	0.0879	1	0	0.448	0	82	0
124	1	129	0	2	3	0.1688	0.0879	0	1	0.449	9	82	82
124	1	130	0	2	3	0.1688	0.0879	0	1	0.451	9	82	82
124	1	131	9	1	1	0.1688	0.0879	1	0	0.330	0	0	82
124	1	132	1	2	3	0.1688	0.0879	0	1	0.410	94	0	0
124	1	133	0	1	3	0.1688	0.0879	1	0	0.560	0	82	0
124	1	134	9	2	2	0.1688	0.0879	1	1	0.550	0	82	0
124	1	135	1	2	3	0.1688	0.0879	0	1	0.428	92	0	0
124	1	136	0	1	3	0.1688	0.0879	1	0	0.413	0	82	0
124	1	137	0	2	1	0.1688	0.0879	0	1	0.455	9	82	82
124	1	138	1	1	1	0.1688	0.0879	1	0	0.405	0	0	82
124	1	139	1	1	2	0.1688	0.0879	0	1	0.459	89	0	0
124	1	140	1	1	3	0.1688	0.0879	0	1	0.368	98	0	0
124	1	141	9	2	3	0.1688	0.0879	1	0	0.535	0	0	82
124	1	142	1	2	3	0.1688	0.0879	0	1	0.325	100	0	0
124	1	143	0	1	3	0.1688	0.0879	1	0	0.618	0	82	0
124	1	144	0	2	2	0.1688	0.0879	0	1	0.392	10	82	82
124	1	145	1	1	3	0.1688	0.0879	1	1	0.291	100	0	82
124	1	146	1	1	3	0.1688	0.0879	0	1	0.421	93	0	0
124	1	147	1	1	3	0.1688	0.0879	1	0	0.279	0	0	82
124	1	148	9	2	2	0.1688	0.0879	0	1	0.322	0	82	82
124	1	149	0	1	3	0.1688	0.0879	0	1	0.323	10	82	82
124	1	150	1	1	1	0.1688	0.0879	1	1	0.365	98	0	82
124	1	151	1	2	3	0.1688	0.0879	0	0	0.475	0	0	0
124	1	152	9	1	1	0.1688	0.0879	0	1	0.396	0	82	82
124	1	153	1	1	3	0.1688	0.0879	1	1	0.339	100	0	82
124	1	154	0	2	2	0.1688	0.0879	0	1	0.563	8	82	82
124	1	155	1	2	2	0.1688	0.0879	1	1	0.489	86	82	0
124	1	156	0	2	1	0.1688	0.0879	0	1	0.357	10	82	82
124	1	157	0	1	2	0.1688	0.0879	0	1	0.499	9	82	82
124	1	158	0	2	2	0.1688	0.0879	0	1	0.448	9	82	82
124	1	159	9	2	3	0.1688	0.0879	0	1	0.452	0	0	0
124	1	160	0	2	3	0.1688	0.0879	1	0	0.461	0	0	82
124	1	161	1	1	3	0.1688	0.0879	1	1	0.559	79	0	82
124	1	162	1	2	3	0.1688	0.0879	0	1	0.408	94	0	0
124	1	163	0	1	3	0.1688	0.0879	1	0	0.434	0	82	0
124	1	164	0	2	2	0.1688	0.0879	1	0	0.489	0	0	82
124	1	165	1	1	1	0.1688	0.0879	1	0	0.473	0	0	82
124	1	166	1	2	2	0.1688	0.0879	0	0	0.649	0	0	0
124	1	167	9	1	3	0.1688	0.0879	1	1	0.419	0	0	82
124	1	168	0	2	2	0.1688	0.0879	0	1	0.349	10	82	82
124	1	169	0	2	2	0.1688	0.0879	1	0	0.732	0	0	82
124	1	170	9	1	3	0.1688	0.0879	0	1	0.418	0	0	0
124	1	171	1	1	2	0.1688	0.0879	0	1	0.454	90	0	0
124	1	172	1	1	1	0.1688	0.0879	1	1	0.415	93	0	82
124	1	173	0	1	3	0.1688	0.0879	1	1	0.437	9	82	0
124	1	174	0	1	1	0.1688	0.0879	0	1	0.467	9	82	82
124	1	175	0	1	1	0.1688	0.0879	0	1	0.335	10	82	82
124	1	176	0	2	3	0.1688	0.0879	1	0	0.410	0	0	82
124	1	177	1	1	3	0.1688	0.0879	0	1	0.352	100	0	0
124	1	178	1	1	3	0.1688	0.0879	1	1	0.454	90	0	82
124	1	179	1	2	2	0.1688	0.0879	0	1	0.343	100	0	0
124	1	180	1	1	1	0.1688	0.0879	0	0	0.404	0	0	0
124	1	181	0	1	2	0.1688	0.0879	1	0	0.456	0	82	0
124	1	182	1	1	3	0.1688	0.0879	1	1	0.323	100	0	82
124	1	183	1	2	3	0.1688	0.0879	1	1	0.459	89	82	0
124	1	184	1	1	1	0.1688	0.0879	1	1	0.355	99	0	82
124	1	185	1	1	3	0.1688	0.0879	1	1	0.345	100	0	82
124	1	186	0	1	1	0.1688	0.0879	0	1	0.370	10	82	82
124	1	187	1	2	1	0.1688	0.0879	0	1	0.466	88	0	0
124	1	188	9	1	3	0.1688	0.0879	0	0	0.356	0	0	0
124	1	189	1	1	1	0.1688	0.0879	0	1	0.306	100	0	0
124	1	190	1	1	3	0.1688	0.0879	0	1	0.375	98	0	0
124	1	191	9	2	3	0.1688	0.0879	1	1	0.414	0	82	0
124	1	192	9	1	3	0.1688	0.0879	0	1	0.348	0	0	0
124	1	193	9	1	3	0.1688	0.0879	0	1	0.346	0	0	0
124	1	194	1	1	3	0.1688	0.0879	1	1	0.427	92	0	82
124	1	195	0	1	1	0.1688	0.0879	1	1	0.503	8	82	0
124	1	196	0	1	1	0.1688	0.0879	0	1	0.469	9	82	82
124	1	197	9	1	1	0.1688	0.0879	1	0	0.413	0	82	0
124	1	198	1	2	1	0.1688	0.0879	1	0	0.432	0	82	0
124	1	199	1	1	1	0.1688	0.0879	1	1	0.542	81	0	82
124	1	200	1	1	1	0.1688	0.0879	1	1	0.421	93	0	82
124	1	201	9	1	1	0.1688	0.0879	1	1	0.344	0	0	82
124	1	202	1	1	3	0.1688	0.0879	0	1	0.402	95	0	0
124	1	203	0	2	3	0.1688	0.0879	0	0	1.500	0	82	82
124	1	204	0	1	3	0.1688	0.0879	0	1	0.335	10	82	82
124	1	205	0	2	2	0.1688	0.0879	1	0	0.439	0	0	82
124	1	206	0	2	3	0.1688	0.0879	0	0	0.440	0	82	82
124	1	207	1	2	3	0.1688	0.0879	1	1	0.443	91	82	0
124	1	208	1	2	1	0.1688	0.0879	0	1	0.340	100	0	0
124	1	209	0	1	1	0.1688	0.0879	0	1	0.353	10	82	82
124	1	210	9	2	2	0.1688	0.0879	0	1	0.373	0	82	82
124	1	211	1	1	3	0.1688	0.0879	0	1	0.287	100	0	0
124	1	212	0	1	3	0.1688	0.0879	0	1	0.538	8	82	82
124	1	213	1	1	2	0.1688	0.0879	1	1	0.382	97	0	82
124	1	214	1	2	3	0.1688	0.0879	0	1	0.452	90	0	0
124	1	215	1	2	3	0.1688	0.0879	0	1	0.409	94	0	0
124	1	216	0	1	3	0.1688	0.0879	0	1	0.447	9	82	82
124	1	217	1	1	3	0.1688	0.0879	0	1	0.271	100	0	0
124	1	218	9	2	3	0.1688	0.0879	0	1	0.493	0	82	82
124	1	219	1	1	1	0.1688	0.0879	0	1	0.480	87	0	0
124	1	220	1	1	3	0.1688	0.0879	1	1	0.438	91	0	82
124	1	221	1	2	3	0.1688	0.0879	0	1	0.535	81	0	0
124	1	222	0	2	3	0.1688	0.0879	1	0	0.428	0	0	82
124	1	223	1	2	2	0.1688	0.0879	1	1	0.489	86	82	0
124	1	224	1	2	2	0.1688	0.0879	1	0	0.424	0	82	0
124	1	225	1	1	2	0.1688	0.0879	1	1	0.393	96	0	82
124	1	226	9	1	3	0.1688	0.0879	1	0	0.497	0	82	0
124	1	227	9	2	1	0.1688	0.0879	0	1	0.326	0	82	82
124	1	228	1	2	3	0.1688	0.0879	0	1	0.364	99	0	0
124	1	229	9	2	2	0.1688	0.0879	0	1	0.358	0	0	0
124	1	230	1	2	2	0.1688	0.0879	0	1	0.310	100	0	0
124	1	231	0	1	3	0.1688	0.0879	0	1	0.320	10	82	82
124	1	232	0	1	1	0.1688	0.0879	1	0	0.433	0	82	0
124	1	233	9	1	3	0.1688	0.0879	1	0	0.382	0	82	0
124	1	234	0	1	1	0.1688	0.0879	0	1	0.451	9	82	82
124	1	235	1	1	3	0.1688	0.0879	0	1	0.294	100	0	0
124	1	236	1	1	1	0.1688	0.0879	1	1	0.395	95	0	82
124	1	237	9	1	1	0.1688	0.0879	0	0	0.362	0	0	0
124	1	238	0	2	3	0.1688	0.0879	1	0	0.444	0	0	82
124	1	239	9	1	3	0.1688	0.0879	0	1	0.406	0	82	82
124	1	240	0	1	3	0.1688	0.0879	0	1	0.365	10	82	82
124	1	241	9	2	3	0.1688	0.0879	0	1	0.430	0	82	82
124	1	242	0	2	3	0.1688	0.0879	0	1	0.373	10	82	82
124	1	243	1	1	1	0.1688	0.0879	0	1	0.314	100	0	0
124	1	244	9	1	1	0.1688	0.0879	1	0	0.326	0	82	0
124	1	245	1	1	1	0.1688	0.0879	1	1	0.332	100	0	82
124	1	246	9	1	3	0.1688	0.0879	1	1	0.439	0	82	0
124	1	247	1	2	2	0.1688	0.0879	1	1	0.640	71	82	0
124	1	248	0	2	2	0.1688	0.0879	1	0	0.850	0	0	82
124	1	249	0	1	3	0.1688	0.0879	0	1	0.323	10	82	82
124	1	250	1	2	2	0.1688	0.0879	0	1	0.331	100	0	0
124	1	251	0	2	2	0.1688	0.0879	1	0	0.477	0	0	82
124	1	252	0	2	3	0.1688	0.0879	1	0	0.349	0	0	82
124	1	253	9	1	1	0.1688	0.0879	1	1	0.246	0	82	0
124	1	254	0	1	1	0.1688	0.0879	0	1	0.466	9	82	82
124	1	255	9	2	1	0.1688	0.0879	1	0	0.331	0	0	82
124	1	256	1	2	2	0.1688	0.0879	1	0	0.391	0	82	0
124	1	257	1	1	1	0.1688	0.0879	0	1	0.297	100	0	0
124	1	258	1	2	3	0.1688	0.0879	1	1	0.313	100	82	0
124	1	259	0	1	1	0.1688	0.0879	0	1	0.291	10	82	82
124	1	260	0	1	3	0.1688	0.0879	0	1	0.284	10	82	82
124	1	261	0	1	1	0.1688	0.0879	1	0	0.342	0	82	0
124	1	262	1	1	3	0.1688	0.0879	0	1	0.283	100	0	0
124	1	263	9	1	3	0.1688	0.0879	0	1	0.386	0	82	82
124	1	264	0	1	2	0.1688	0.0879	1	1	0.423	9	82	0
124	1	265	0	1	1	0.1688	0.0879	0	1	0.382	10	82	82
124	1	266	1	2	3	0.1688	0.0879	1	0	0.472	0	82	0
124	1	267	1	1	1	0.1688	0.0879	0	1	0.370	98	0	0
124	1	268	1	2	3	0.1688	0.0879	1	0	0.382	0	82	0
124	1	269	0	2	3	0.1688	0.0879	1	0	0.341	0	0	82
124	1	270	1	2	3	0.1688	0.0879	1	1	0.419	93	82	0
124	1	271	0	1	3	0.1688	0.0879	0	1	0.325	10	82	82
124	1	272	1	1	3	0.1688	0.0879	0	1	0.294	100	0	0
124	1	273	9	2	3	0.1688	0.0879	0	1	0.437	0	0	0
124	1	274	1	1	1	0.1688	0.0879	1	1	0.401	95	0	82
124	1	275	1	1	1	0.1688	0.0879	0	0	0.457	0	0	0
124	1	276	1	2	3	0.1688	0.0879	1	1	0.373	98	82	0
124	1	277	0	1	3	0.1688	0.0879	1	0	0.421	0	82	0
124	1	278	0	1	1	0.1688	0.0879	1	1	0.312	10	82	0
124	1	279	0	1	3	0.1688	0.0879	1	1	0.371	10	82	0
124	1	280	9	1	1	0.1688	0.0879	0	1	0.332	0	82	82
124	1	281	0	1	3	0.1688	0.0879	1	1	0.367	10	82	0
124	1	282	9	2	2	0.1688	0.0879	0	1	0.443	0	0	0
124	1	283	1	2	3	0.1688	0.0879	1	1	0.526	82	82	0
124	1	284	0	2	2	0.1688	0.0879	0	1	0.402	9	82	82
124	1	285	1	2	2	0.1688	0.0879	0	1	0.440	91	0	0
124	1	286	1	1	3	0.1688	0.0879	1	1	0.339	100	0	82
124	1	287	1	2	3	0.1688	0.0879	1	1	0.421	93	82	0
124	1	288	1	1	2	0.1688	0.0879	0	1	0.393	96	0	0
124	1	289	1	1	3	0.1688	0.0879	0	1	0.339	100	0	0
124	1	290	1	2	2	0.1688	0.0879	0	0	0.522	0	0	0
124	1	291	1	2	2	0.1688	0.0879	1	1	0.368	98	82	0
124	1	292	0	1	1	0.1688	0.0879	1	1	0.369	10	82	0
124	1	293	1	2	2	0.1688	0.0879	0	1	0.308	100	0	0
124	1	294	0	2	3	0.1688	0.0879	0	1	0.420	9	82	82
124	1	295	0	1	1	0.1688	0.0879	1	1	0.399	10	82	0
124	1	296	1	2	2	0.1688	0.0879	0	1	0.299	100	0	0
124	1	297	0	2	3	0.1688	0.0879	1	0	0.315	0	0	82
124	1	298	1	1	3	0.1688	0.0879	1	1	0.345	100	0	82
124	1	299	0	1	3	0.1688	0.0879	0	0	0.387	0	82	82
124	1	300	0	2	3	0.1688	0.0879	1	0	0.505	0	0	82
124	1	301	0	2	3	0.1688	0.0879	1	1	0.557	8	0	82
124	1	302	0	1	1	0.1688	0.0879	0	1	0.329	10	82	82
124	1	303	0	2	2	0.1688	0.0879	0	1	0.381	10	82	82
124	1	304	1	2	1	0.1688	0.0879	1	1	0.318	100	82	0
124	1	305	0	1	3	0.1688	0.0879	0	1	0.388	10	82	82
124	1	306	9	1	2	0.1688	0.0879	1	1	0.364	0	0	82
124	1	307	0	2	2	0.1688	0.0879	0	1	0.264	10	82	82
124	1	308	0	2	2	0.1688	0.0879	0	1	0.371	10	82	82
124	1	309	0	2	3	0.1688	0.0879	0	1	0.357	10	82	82
124	1	310	0	2	2	0.1688	0.0879	1	0	0.409	0	0	82
124	1	311	1	2	2	0.1688	0.0879	0	1	0.408	94	0	0
124	1	312	0	2	1	0.1688	0.0879	0	1	0.437	9	82	82
124	1	313	9	2	3	0.1688	0.0879	1	1	0.379	0	82	0
124	1	314	1	2	2	0.1688	0.0879	1	1	0.399	95	82	0
124	1	315	1	2	2	0.1688	0.0879	1	1	0.353	100	82	0
124	1	316	0	1	1	0.1688	0.0879	1	0	0.611	0	82	0
124	1	317	1	1	1	0.1688	0.0879	1	1	0.405	94	0	82
124	1	318	1	1	1	0.1688	0.0879	1	1	0.360	99	0	82
124	1	319	1	2	2	0.1688	0.0879	1	1	0.468	88	82	0
124	1	320	9	1	3	0.1688	0.0879	1	1	0.285	0	0	82
124	1	321	1	1	1	0.1688	0.0879	1	1	0.330	100	0	82
124	1	322	9	2	2	0.1688	0.0879	1	1	0.306	0	0	82
124	1	323	1	2	2	0.1688	0.0879	0	1	0.372	98	0	0
124	1	324	1	2	2	0.1688	0.0879	1	1	0.376	97	82	0
124	1	325	0	2	3	0.1688	0.0879	0	1	0.340	10	82	82
124	1	326	0	1	3	0.1688	0.0879	1	1	0.379	10	82	0
124	1	327	1	1	3	0.1688	0.0879	0	1	0.324	100	0	0
124	1	328	0	1	1	0.1688	0.0879	1	1	0.294	10	82	0
124	1	329	9	2	3	0.1688	0.0879	0	1	0.283	0	0	0
124	1	330	0	1	3	0.1688	0.0879	0	1	0.182	10	82	82
124	1	331	0	1	3	0.1688	0.0879	1	1	0.414	9	82	0
124	1	332	0	2	2	0.1688	0.0879	1	1	0.283	10	0	82
124	1	333	0	1	1	0.1688	0.0879	1	0	0.351	0	82	0
124	1	334	0	2	2	0.1688	0.0879	1	0	0.453	0	0	82
124	1	335	1	2	1	0.1688	0.0879	0	0	0.274	0	0	0
124	1	336	9	2	3	0.1688	0.0879	1	0	0.365	0	0	82
124	1	337	1	2	2	0.1688	0.0879	1	1	0.345	100	82	0
124	1	338	0	2	2	0.1688	0.0879	0	1	0.442	9	82	82
124	1	339	1	1	1	0.1688	0.0879	0	1	0.344	100	0	0
124	1	340	1	2	3	0.1688	0.0879	0	1	0.458	89	0	0
124	1	341	0	1	3	0.1688	0.0879	1	0	0.468	0	82	0
124	1	342	1	1	1	0.1688	0.0879	1	1	0.392	96	0	82
124	1	343	0	2	1	0.1688	0.0879	1	0	0.436	0	0	82
124	1	344	9	1	1	0.1688	0.0879	0	0	0.347	0	0	0
124	1	345	0	1	1	0.1688	0.0879	0	1	0.278	10	82	82
124	1	346	0	1	1	0.1688	0.0879	0	1	0.381	10	82	82
124	1	347	1	2	3	0.1688	0.0879	1	1	0.405	94	82	0
124	1	348	0	1	3	0.1688	0.0879	1	1	0.469	9	82	0
124	1	349	0	2	2	0.1688	0.0879	1	0	0.446	0	0	82
124	1	350	1	2	3	0.1688	0.0879	0	1	0.336	100	0	0
124	1	351	1	1	3	0.1688	0.0879	1	1	0.317	100	0	82
124	1	352	0	2	3	0.1688	0.0879	1	0	0.433	0	0	82
124	1	353	1	2	3	0.1688	0.0879	0	0	0.456	0	0	0
124	1	354	0	2	1	0.1688	0.0879	1	0	0.409	0	0	82
124	1	355	1	2	3	0.1688	0.0879	1	1	0.375	98	82	0
124	1	356	0	2	1	0.1688	0.0879	0	1	0.366	10	82	82
124	1	357	1	1	1	0.1688	0.0879	0	0	0.331	0	0	0
124	1	358	0	2	2	0.1688	0.0879	1	0	0.501	0	0	82
124	1	359	1	2	3	0.1688	0.0879	0	1	0.429	92	0	0
124	1	360	9	1	1	0.1688	0.0879	1	1	0.650	0	82	0
124	1	361	1	1	1	0.1688	0.0879	0	1	0.502	85	0	0
124	1	362	0	2	2	0.1688	0.0879	1	1	0.628	7	0	82
124	1	363	0	1	1	0.1688	0.0879	0	1	0.416	9	82	82
124	1	364	1	2	3	0.1688	0.0879	1	1	0.294	100	82	0
124	1	365	1	1	2	0.1688	0.0879	1	0	0.345	0	0	82
124	1	366	1	2	3	0.1688	0.0879	1	1	0.365	99	82	0
124	1	367	1	2	3	0.1688	0.0879	0	1	0.372	98	0	0
124	1	368	0	1	3	0.1688	0.0879	0	1	0.360	10	82	82
124	1	369	9	2	2	0.1688	0.0879	0	0	0.490	0	82	82
124	1	370	1	1	1	0.1688	0.0879	1	0	0.418	0	0	82
124	1	371	0	2	3	0.1688	0.0879	1	0	0.422	0	0	82
124	1	372	9	2	3	0.1688	0.0879	0	1	0.376	0	0	0
124	1	373	9	1	1	0.1688	0.0879	0	1	0.303	0	82	82
124	1	374	0	1	3	0.1688	0.0879	1	1	0.699	7	82	0
124	1	375	1	1	3	0.1688	0.0879	1	1	0.307	100	0	82
124	1	376	1	1	1	0.1688	0.0879	1	1	0.427	92	0	82
124	1	377	1	2	2	0.1688	0.0879	1	1	0.476	87	82	0
124	1	378	0	1	3	0.1688	0.0879	1	1	0.595	8	82	0
124	1	379	0	2	1	0.1688	0.0879	1	0	0.650	0	0	82
124	1	380	0	2	3	0.1688	0.0879	0	0	0.549	0	82	82
124	1	381	0	1	1	0.1688	0.0879	0	1	0.516	8	82	82
124	1	382	1	2	2	0.1688	0.0879	1	1	0.441	91	82	0
124	1	383	9	1	1	0.1688	0.0879	1	1	0.399	0	0	82
124	1	384	9	1	3	0.1688	0.0879	0	1	0.411	0	82	82
124	1	385	0	2	2	0.1688	0.0879	0	1	0.412	9	82	82
124	1	386	1	1	1	0.1688	0.0879	1	1	0.383	97	0	82
124	1	387	0	1	1	0.1688	0.0879	0	1	0.512	8	82	82
124	1	388	9	2	2	0.1688	0.0879	1	1	0.823	0	0	82
124	1	389	1	1	3	0.1688	0.0879	1	1	0.419	93	0	82
124	1	390	9	2	2	0.1688	0.0879	1	1	0.419	0	82	0
124	1	391	1	2	3	0.1688	0.0879	0	1	0.370	98	0	0
124	1	392	0	1	1	0.1688	0.0879	1	1	0.432	9	82	0
124	1	393	0	2	2	0.1688	0.0879	0	1	0.313	10	82	82
124	1	394	1	1	1	0.1688	0.0879	0	1	0.385	96	0	0
124	1	395	0	2	2	0.1688	0.0879	0	1	0.430	9	82	82
124	1	396	9	2	3	0.1688	0.0879	0	1	0.441	0	0	0
124	1	397	0	2	3	0.1688	0.0879	0	0	0.593	0	82	82
124	1	398	1	2	2	0.1688	0.0879	0	1	0.280	100	0	0
124	1	399	0	1	1	0.1688	0.0879	1	0	0.476	0	82	0
124	1	400	1	2	2	0.1688	0.0879	0	1	0.291	100	0	0
124	1	401	1	1	3	0.1688	0.0879	0	1	1.278	50	0	0
124	1	402	0	1	3	0.1688	0.0879	1	1	0.463	9	82	0
124	1	403	0	2	1	0.1688	0.0879	0	1	0.313	10	82	82
124	1	404	1	1	3	0.1688	0.0879	1	1	0.302	100	0	82
124	1	405	1	2	2	0.1688	0.0879	0	1	0.341	100	0	0
124	1	406	9	1	1	0.1688	0.0879	1	1	0.289	0	0	82
124	1	407	0	1	3	0.1688	0.0879	0	1	0.363	10	82	82
124	1	408	9	1	1	0.1688	0.0879	0	1	0.321	0	0	0
124	1	409	1	1	3	0.1688	0.0879	0	1	0.408	94	0	0
124	1	410	9	1	3	0.1688	0.0879	0	1	0.706	0	82	82
124	1	411	9	1	3	0.1688	0.0879	1	1	0.363	0	0	82
124	1	412	0	2	2	0.1688	0.0879	0	1	0.379	10	82	82
124	1	413	9	2	1	0.1688	0.0879	1	1	0.299	0	0	82
124	1	414	9	2	2	0.1688	0.0879	0	1	0.457	0	82	82
124	1	415	1	1	3	0.1688	0.0879	1	1	0.545	80	0	82
124	1	416	1	1	3	0.1688	0.0879	1	1	0.423	93	0	82
124	1	417	9	1	2	0.1688	0.0879	1	1	0.342	0	0	82
124	1	418	1	2	2	0.1688	0.0879	1	1	0.425	92	82	0
124	1	419	9	2	2	0.1688	0.0879	1	0	0.395	0	0	82
124	1	420	1	2	2	0.1688	0.0879	0	1	0.539	81	0	0
124	1	421	9	2	2	0.1688	0.0879	0	1	0.392	0	0	0
124	1	422	0	2	3	0.1688	0.0879	0	1	0.397	10	82	82
124	1	423	0	1	2	0.1688	0.0879	1	0	0.303	0	82	0
124	1	424	0	1	1	0.1688	0.0879	0	1	0.406	9	82	82
124	1	425	0	1	1	0.1688	0.0879	1	1	0.560	8	82	0
124	1	426	0	2	3	0.1688	0.0879	0	1	0.518	8	82	82
124	1	427	0	2	2	0.1688	0.0879	1	0	0.393	0	0	82
124	1	428	0	1	2	0.1688	0.0879	0	1	0.434	9	82	82
124	1	429	0	2	2	0.1688	0.0879	1	0	0.564	0	0	82
124	1	430	0	2	3	0.1688	0.0879	1	1	0.589	8	0	82
124	1	431	9	1	3	0.1688	0.0879	0	1	0.433	0	0	0
124	1	432	1	1	3	0.1688	0.0879	0	1	0.294	100	0	0
124	1	433	0	1	3	0.1688	0.0879	0	1	0.299	10	82	82
124	1	434	9	1	1	0.1688	0.0879	0	1	0.251	0	82	82
124	1	435	1	2	1	0.1688	0.0879	0	1	0.263	100	0	0
124	1	436	0	2	2	0.1688	0.0879	0	1	0.388	10	82	82
124	1	437	9	2	2	0.1688	0.0879	0	1	0.243	0	0	0
124	1	438	1	1	1	0.1688	0.0879	1	1	0.390	96	0	82
124	1	439	9	2	1	0.1688	0.0879	0	1	0.447	0	0	0
124	1	440	1	1	1	0.1688	0.0879	0	1	0.354	100	0	0
124	1	441	1	2	2	0.1688	0.0879	1	0	0.347	0	82	0
124	1	442	1	2	2	0.1688	0.0879	0	1	0.252	100	0	0
124	1	443	9	2	3	0.1688	0.0879	1	0	0.387	0	0	82
124	1	444	1	2	3	0.1688	0.0879	1	1	0.387	96	82	0
124	1	445	1	2	2	0.1688	0.0879	1	1	0.391	96	82	0
124	1	446	1	2	2	0.1688	0.0879	1	1	0.322	100	82	0
124	1	447	1	1	3	0.1688	0.0879	0	1	0.336	100	0	0
124	1	448	0	2	3	0.1688	0.0879	1	0	0.418	0	0	82
124	1	449	1	1	2	0.1688	0.0879	1	1	0.389	96	0	82
124	1	450	0	1	1	0.1688	0.0879	1	0	0.502	0	82	0
124	1	451	0	1	3	0.1688	0.0879	0	1	0.311	10	82	82
124	1	452	1	1	1	0.1688	0.0879	0	1	0.411	94	0	0
124	1	453	1	2	1	0.1688	0.0879	0	0	0.463	0	0	0
124	1	454	1	1	1	0.1688	0.0879	1	1	0.395	95	0	82
124	1	455	9	2	3	0.1688	0.0879	1	0	0.434	0	0	82
124	1	456	1	2	3	0.1688	0.0879	1	1	0.345	100	82	0
124	1	457	1	2	2	0.1688	0.0879	1	1	0.395	96	82	0
124	1	458	0	2	3	0.1688	0.0879	0	1	0.351	10	82	82
124	1	459	1	2	3	0.1688	0.0879	0	1	0.438	91	0	0
124	1	460	0	2	1	0.1688	0.0879	0	1	0.398	10	82	82
124	1	461	0	1	1	0.1688	0.0879	1	1	0.583	8	82	0
124	1	462	1	1	3	0.1688	0.0879	0	1	0.318	100	0	0
124	1	463	1	1	3	0.1688	0.0879	0	1	0.326	100	0	0
124	1	464	1	1	1	0.1688	0.0879	0	1	0.296	100	0	0
124	1	465	0	2	2	0.1688	0.0879	0	1	0.388	10	82	82
124	1	466	9	2	3	0.1688	0.0879	1	1	0.446	0	0	82
124	1	467	1	2	3	0.1688	0.0879	1	1	0.614	74	82	0
124	1	468	1	2	3	0.1688	0.0879	1	1	0.513	84	82	0
124	1	469	1	2	1	0.1688	0.0879	1	1	0.435	92	82	0
124	1	470	1	2	3	0.1688	0.0879	1	1	0.385	97	82	0
124	1	471	0	2	3	0.1688	0.0879	0	1	0.507	8	82	82
124	1	472	1	2	3	0.1688	0.0879	0	1	0.429	92	0	0
124	1	473	1	2	3	0.1688	0.0879	1	1	0.513	84	82	0
124	1	474	1	1	2	0.1688	0.0879	0	1	0.326	100	0	0
124	1	475	0	2	2	0.1688	0.0879	1	1	0.452	9	0	82
124	1	476	0	2	2	0.1688	0.0879	1	0	0.415	0	0	82
124	1	477	0	2	2	0.1688	0.0879	1	1	0.424	9	0	82
124	1	478	9	1	3	0.1688	0.0879	0	1	0.346	0	0	0
124	1	479	0	2	3	0.1688	0.0879	1	0	0.422	0	0	82
124	1	480	1	2	3	0.1688	0.0879	0	1	0.484	87	0	0
124	1	481	1	2	3	0.1688	0.0879	1	1	0.410	94	82	0
124	1	482	1	1	2	0.1688	0.0879	0	1	0.258	100	0	0
124	1	483	0	1	3	0.1688	0.0879	0	1	0.376	10	82	82
124	1	484	0	2	3	0.1688	0.0879	1	0	0.445	0	0	82
124	1	485	9	2	2	0.1688	0.0879	1	1	0.644	0	0	82
124	1	486	0	2	3	0.1688	0.0879	0	0	0.417	0	82	82
124	1	487	0	2	2	0.1688	0.0879	1	1	0.620	7	0	82
124	1	488	1	1	3	0.1688	0.0879	1	1	0.346	100	0	82
124	1	489	1	1	1	0.1688	0.0879	0	0	0.566	0	0	0
124	1	490	0	1	1	0.1688	0.0879	0	1	0.394	10	82	82
124	1	491	0	2	3	0.1688	0.0879	1	1	0.644	7	0	82
124	1	492	1	2	1	0.1688	0.0879	1	1	0.453	90	82	0
124	1	493	1	1	3	0.1688	0.0879	1	1	0.337	100	0	82
124	1	494	9	1	1	0.1688	0.0879	1	1	0.576	0	82	0
124	1	495	0	2	1	0.1688	0.0879	1	1	0.354	10	0	82
124	1	496	9	2	3	0.1688	0.0879	1	1	0.286	0	82	0
124	1	497	9	1	2	0.1688	0.0879	0	0	0.317	0	0	0
124	1	498	9	1	3	0.1688	0.0879	1	0	0.446	0	82	0
124	1	499	1	1	3	0.1688	0.0879	1	1	0.280	100	0	82
124	1	500	0	1	1	0.1688	0.0879	1	1	0.485	9	82	0
124	1	501	0	1	3	0.1688	0.0879	1	1	0.623	7	82	0
124	1	502	1	2	3	0.1688	0.0879	1	1	0.464	89	82	0
124	1	503	0	1	1	0.1688	0.0879	1	1	0.429	9	82	0
124	1	504	9	1	1	0.1688	0.0879	1	1	0.486	0	82	0
124	1	505	1	1	3	0.1688	0.0879	0	0	0.439	0	0	0
124	1	506	9	1	3	0.1688	0.0879	0	1	0.289	0	0	0
124	1	507	0	1	3	0.1688	0.0879	1	1	0.483	9	82	0
124	1	508	9	2	2	0.1688	0.0879	0	0	0.421	0	0	0
124	1	509	0	1	1	0.1688	0.0879	1	1	0.480	9	82	0
124	1	510	1	1	1	0.1688	0.0879	1	0	0.298	0	0	82
124	1	511	9	2	3	0.1688	0.0879	0	1	0.686	0	82	82
124	1	512	1	2	2	0.1688	0.0879	0	1	0.273	100	0	0
124	1	513	0	2	2	0.1688	0.0879	1	1	0.318	10	0	82
124	1	514	0	1	3	0.1688	0.0879	1	1	0.276	10	82	0
124	1	515	0	2	1	0.1688	0.0879	1	1	0.347	10	0	82
124	1	516	9	1	3	0.1688	0.0879	0	1	0.283	0	82	82
124	1	517	1	2	3	0.1688	0.0879	0	0	0.299	0	0	0
124	1	518	0	2	3	0.1688	0.0879	0	1	0.759	6	82	82
124	1	519	1	2	2	0.1688	0.0879	0	1	0.196	100	0	0
124	1	520	0	2	2	0.1688	0.0879	1	0	0.282	0	0	82
124	1	521	0	1	1	0.1688	0.0879	0	0	0.376	0	82	82
124	1	522	1	2	3	0.1688	0.0879	1	1	0.390	96	82	0
124	1	523	0	2	2	0.1688	0.0879	1	1	0.487	9	0	82
124	1	524	0	1	3	0.1688	0.0879	1	1	0.500	8	82	0
124	1	525	1	1	3	0.1688	0.0879	1	1	0.351	100	0	82
124	1	526	1	1	3	0.1688	0.0879	0	1	0.389	96	0	0
124	1	527	0	2	3	0.1688	0.0879	1	1	0.486	9	0	82
124	1	528	9	2	3	0.1688	0.0879	0	0	0.465	0	82	82
124	1	529	1	1	1	0.1688	0.0879	1	1	0.428	92	0	82
124	1	530	0	1	2	0.1688	0.0879	1	0	0.360	0	82	0
124	1	531	0	2	3	0.1688	0.0879	1	0	0.588	0	0	82
124	1	532	0	1	1	0.1688	0.0879	0	0	0.400	0	82	82
124	1	533	1	1	1	0.1688	0.0879	0	1	0.263	100	0	0
124	1	534	0	1	3	0.1688	0.0879	0	0	0.451	0	82	82
124	1	535	1	1	3	0.1688	0.0879	1	1	0.376	97	0	82
124	1	536	0	2	2	0.1688	0.0879	0	0	0.388	0	82	82
124	1	537	9	2	3	0.1688	0.0879	0	1	0.348	0	0	0
124	1	538	0	2	2	0.1688	0.0879	1	0	0.396	0	0	82
124	1	539	1	1	3	0.1688	0.0879	1	1	0.341	100	0	82
124	1	540	0	1	1	0.1688	0.0879	0	1	0.569	8	82	82
124	1	541	0	2	2	0.1688	0.0879	1	1	0.475	9	0	82
124	1	542	0	2	3	0.1688	0.0879	1	0	0.438	0	0	82
124	1	543	1	2	2	0.1688	0.0879	1	1	0.308	100	82	0
124	1	544	0	2	3	0.1688	0.0879	0	0	0.392	0	82	82
124	1	545	1	1	3	0.1688	0.0879	1	1	0.362	99	0	82
124	1	546	0	1	1	0.1688	0.0879	1	1	0.538	8	82	0
124	1	547	0	2	3	0.1688	0.0879	1	1	0.578	8	0	82
124	1	548	1	2	2	0.1688	0.0879	1	1	0.480	87	82	0
124	1	549	1	2	3	0.1688	0.0879	0	0	0.493	0	0	0
124	1	550	1	1	1	0.1688	0.0879	0	1	0.385	97	0	0
124	1	551	1	1	1	0.1688	0.0879	1	1	0.418	93	0	82
124	1	552	9	2	3	0.1688	0.0879	0	1	0.423	0	82	82
124	1	553	1	1	2	0.1688	0.0879	1	1	0.284	100	0	82
124	1	554	9	1	3	0.1688	0.0879	0	1	0.347	0	0	0
124	1	555	1	1	1	0.1688	0.0879	0	1	0.425	93	0	0
124	1	556	0	2	3	0.1688	0.0879	1	1	0.576	8	0	82
124	1	557	0	1	3	0.1688	0.0879	0	1	0.485	9	82	82
124	1	558	0	1	2	0.1688	0.0879	0	1	0.540	8	82	82
124	1	559	9	2	3	0.1688	0.0879	0	0	0.468	0	82	82
124	1	560	0	1	1	0.1688	0.0879	1	1	0.539	8	82	0
124	1	561	1	2	3	0.1688	0.0879	0	1	0.593	76	0	0
124	1	562	9	2	3	0.1688	0.0879	1	1	0.409	0	82	0
124	1	563	1	1	3	0.1688	0.0879	0	1	0.357	99	0	0
124	1	564	0	1	3	0.1688	0.0879	1	1	0.473	9	82	0
124	1	565	1	2	2	0.1688	0.0879	0	1	0.453	90	0	0
124	1	566	1	2	3	0.1688	0.0879	1	1	0.472	88	82	0
124	1	567	1	2	1	0.1688	0.0879	0	1	0.499	85	0	0
124	1	568	0	1	3	0.1688	0.0879	0	1	0.518	8	82	82
124	1	569	0	2	3	0.1688	0.0879	1	1	0.512	8	0	82
124	1	570	9	2	2	0.1688	0.0879	0	1	0.397	0	82	82
124	1	571	1	2	2	0.1688	0.0879	1	1	0.546	80	82	0
124	1	572	1	2	3	0.1688	0.0879	0	0	0.437	0	0	0
124	1	573	9	1	1	0.1688	0.0879	0	1	0.375	0	0	0
124	1	574	0	1	1	0.1688	0.0879	0	0	0.420	0	82	82
124	1	575	1	2	2	0.1688	0.0879	1	1	0.431	92	82	0
124	1	576	9	1	1	0.1688	0.0879	1	1	0.483	0	0	82
124	1	577	1	1	1	0.1688	0.0879	1	1	0.590	76	0	82
124	1	578	1	1	1	0.1688	0.0879	0	1	0.508	84	0	0
124	1	579	0	2	2	0.1688	0.0879	1	0	0.555	0	0	82
124	1	580	0	1	3	0.1688	0.0879	1	1	0.733	6	82	0
124	1	581	0	1	3	0.1688	0.0879	1	1	0.432	9	82	0
124	1	582	9	2	3	0.1688	0.0879	0	1	0.477	0	0	0
124	1	583	9	1	3	0.1688	0.0879	1	1	0.463	0	82	0
124	1	584	0	1	1	0.1688	0.0879	1	1	0.443	9	82	0
124	1	585	0	1	3	0.1688	0.0879	0	1	0.448	9	82	82
124	1	586	1	2	3	0.1688	0.0879	0	1	0.529	82	0	0
124	1	587	9	2	2	0.1688	0.0879	1	1	0.737	0	82	0
124	1	588	1	2	3	0.1688	0.0879	0	1	0.438	91	0	0
124	1	589	1	2	3	0.1688	0.0879	1	1	0.434	92	82	0
124	1	590	0	1	3	0.1688	0.0879	0	1	0.447	9	82	82
124	1	591	1	2	3	0.1688	0.0879	0	1	0.491	86	0	0
124	1	592	1	1	1	0.1688	0.0879	0	1	0.391	96	0	0
124	1	593	1	1	2	0.1688	0.0879	1	1	0.410	94	0	82
124	1	594	1	1	1	0.1688	0.0879	1	1	0.419	93	0	82
124	1	595	9	2	2	0.1688	0.0879	0	1	0.394	0	82	82
124	1	596	0	1	1	0.1688	0.0879	0	1	0.526	8	82	82
124	1	597	0	1	2	0.1688	0.0879	0	1	0.431	9	82	82
124	1	598	0	2	3	0.1688	0.0879	1	1	0.632	7	0	82
124	1	599	0	2	3	0.1688	0.0879	0	1	0.459	9	82	82
124	1	600	1	1	3	0.1688	0.0879	0	1	0.326	100	0	0
124	1	601	1	1	1	0.1688	0.0879	1	1	0.836	51	0	82
124	1	602	0	1	3	0.1688	0.0879	1	1	0.476	9	82	0
124	1	603	0	1	1	0.1688	0.0879	0	1	0.590	8	82	82
124	1	604	0	1	3	0.1688	0.0879	0	1	0.335	10	82	82
124	1	605	0	2	3	0.1688	0.0879	1	0	0.555	0	0	82
124	1	606	1	2	2	0.1688	0.0879	0	1	0.366	98	0	0
124	1	607	1	2	2	0.1688	0.0879	0	1	0.394	96	0	0
124	1	608	9	1	1	0.1688	0.0879	1	1	0.660	0	82	0
124	1	609	9	1	3	0.1688	0.0879	1	0	0.547	0	82	0
124	1	610	0	1	3	0.1688	0.0879	1	1	0.495	9	82	0
124	1	611	9	1	3	0.1688	0.0879	1	1	0.415	0	0	82
124	1	612	1	2	2	0.1688	0.0879	1	0	0.622	0	82	0
124	1	613	0	2	3	0.1688	0.0879	0	1	0.316	10	82	82
124	1	614	1	1	3	0.1688	0.0879	1	1	0.278	100	0	82
124	1	615	0	2	2	0.1688	0.0879	1	0	0.420	0	0	82
124	1	616	9	2	2	0.1688	0.0879	1	1	0.316	0	82	0
124	1	617	0	2	2	0.1688	0.0879	1	0	0.552	0	0	82
124	1	618	1	1	3	0.1688	0.0879	0	1	0.290	100	0	0
124	1	619	0	2	3	0.1688	0.0879	1	1	0.430	9	0	82
124	1	620	9	1	3	0.1688	0.0879	1	1	0.372	0	0	82
124	1	621	1	1	3	0.1688	0.0879	1	1	0.318	100	0	82
124	1	622	0	2	2	0.1688	0.0879	0	0	0.481	0	82	82
124	1	623	1	1	1	0.1688	0.0879	0	0	0.363	0	0	0
124	1	624	9	2	2	0.1688	0.0879	0	0	0.471	0	0	0
124	1	625	1	2	3	0.1688	0.0879	0	1	0.334	100	0	0
124	1	626	9	1	1	0.1688	0.0879	0	0	0.411	0	0	0
124	1	627	0	1	3	0.1688	0.0879	0	1	0.382	10	82	82
124	1	628	0	2	2	0.1688	0.0879	0	1	0.410	9	82	82
124	1	629	1	2	3	0.1688	0.0879	0	1	0.369	98	0	0
124	1	630	1	2	1	0.1688	0.0879	1	1	0.371	98	82	0
124	1	631	1	2	2	0.1688	0.0879	0	1	0.327	100	0	0
124	1	632	1	2	3	0.1688	0.0879	0	1	0.310	100	0	0
124	1	633	1	1	3	0.1688	0.0879	0	1	0.337	100	0	0
124	1	634	1	2	2	0.1688	0.0879	0	1	0.383	97	0	0
124	1	635	0	1	3	0.1688	0.0879	0	1	0.531	8	82	82
124	1	636	1	1	1	0.1688	0.0879	0	1	0.291	100	0	0
124	1	637	9	1	3	0.1688	0.0879	0	1	0.322	0	82	82
124	1	638	0	1	1	0.1688	0.0879	1	1	0.500	8	82	0
124	1	639	0	1	2	0.1688	0.0879	0	1	0.308	10	82	82
124	1	640	1	2	3	0.1688	0.0879	0	1	0.475	87	0	0
124	1	641	1	2	2	0.1688	0.0879	0	1	0.348	100	0	0
124	1	642	1	1	1	0.1688	0.0879	0	1	0.327	100	0	0
124	1	643	1	1	1	0.1688	0.0879	1	1	0.403	95	0	82
124	1	644	0	2	2	0.1688	0.0879	1	0	0.510	0	0	82
124	1	645	0	1	3	0.1688	0.0879	1	1	0.526	8	82	0
124	1	646	0	2	3	0.1688	0.0879	0	1	0.391	10	82	82
124	1	647	0	2	1	0.1688	0.0879	1	1	0.556	8	0	82
124	1	648	1	1	1	0.1688	0.0879	1	1	0.341	100	0	82
124	1	649	9	2	2	0.1688	0.0879	1	1	0.323	0	82	0
124	1	650	1	2	3	0.1688	0.0879	1	1	0.384	97	82	0
124	1	651	0	1	2	0.1688	0.0879	1	1	0.486	9	82	0
124	1	652	0	1	1	0.1688	0.0879	1	1	0.406	9	82	0
124	1	653	0	2	3	0.1688	0.0879	0	1	0.491	9	82	82
124	1	654	0	2	1	0.1688	0.0879	0	1	0.463	9	82	82
124	1	655	0	2	2	0.1688	0.0879	0	1	0.336	10	82	82
124	1	656	9	1	3	0.1688	0.0879	1	1	0.459	0	82	0
124	1	657	1	1	3	0.1688	0.0879	0	1	0.445	90	0	0
124	1	658	1	1	2	0.1688	0.0879	0	1	0.369	98	0	0
124	1	659	0	2	3	0.1688	0.0879	1	1	0.431	9	0	82
124	1	660	9	1	1	0.1688	0.0879	0	1	0.479	0	82	82
124	1	661	9	1	1	0.1688	0.0879	1	1	0.422	0	0	82
124	1	662	0	1	1	0.1688	0.0879	0	0	0.387	0	82	82
124	1	663	1	1	1	0.1688	0.0879	1	1	0.371	98	0	82
124	1	664	1	1	2	0.1688	0.0879	0	1	0.423	93	0	0
124	1	665	9	2	3	0.1688	0.0879	1	1	0.617	0	0	82
124	1	666	1	1	1	0.1688	0.0879	1	0	0.987	0	0	82
124	1	667	9	2	3	0.1688	0.0879	1	1	0.426	0	82	0
124	1	668	0	2	2	0.1688	0.0879	0	1	0.401	9	82	82
124	1	669	1	2	2	0.1688	0.0879	0	1	0.456	89	0	0
124	1	670	9	2	3	0.1688	0.0879	1	1	0.327	0	82	0
124	1	671	0	2	2	0.1688	0.0879	0	1	0.350	10	82	82
124	1	672	0	1	1	0.1688	0.0879	0	1	0.344	10	82	82
124	1	673	0	2	3	0.1688	0.0879	0	1	0.598	8	82	82
124	1	674	0	2	3	0.1688	0.0879	0	1	0.447	9	82	82
124	1	675	0	1	1	0.1688	0.0879	1	1	0.475	9	82	0
124	1	676	0	1	3	0.1688	0.0879	0	1	0.354	10	82	82
124	1	677	0	1	1	0.1688	0.0879	1	1	0.449	9	82	0
124	1	678	1	1	3	0.1688	0.0879	0	1	0.382	97	0	0
124	1	679	0	1	1	0.1688	0.0879	0	1	0.409	9	82	82
124	1	680	1	2	2	0.1688	0.0879	1	1	0.397	95	82	0
124	1	681	1	2	1	0.1688	0.0879	1	1	0.352	100	82	0
124	1	682	9	2	1	0.1688	0.0879	1	1	0.338	0	82	0
124	1	683	0	1	1	0.1688	0.0879	0	1	0.457	9	82	82
124	1	684	1	2	2	0.1688	0.0879	1	0	0.979	0	82	0
124	1	685	1	1	3	0.1688	0.0879	1	1	0.291	100	0	82
124	1	686	9	1	2	0.1688	0.0879	0	1	0.523	0	82	82
124	1	687	0	1	3	0.1688	0.0879	1	1	0.549	8	82	0
124	1	688	1	2	3	0.1688	0.0879	1	0	0.462	0	82	0
124	1	689	9	2	2	0.1688	0.0879	1	1	0.640	0	0	82
124	1	690	1	1	3	0.1688	0.0879	0	0	0.435	0	0	0
124	1	691	9	1	1	0.1688	0.0879	0	1	0.387	0	0	0
124	1	692	1	1	1	0.1688	0.0879	0	1	0.370	98	0	0
124	1	693	0	1	3	0.1688	0.0879	1	1	0.419	9	82	0
124	1	694	0	1	3	0.1688	0.0879	0	1	0.413	9	82	82
124	1	695	1	1	1	0.1688	0.0879	1	1	0.423	93	0	82
124	1	696	0	1	1	0.1688	0.0879	1	1	0.562	8	82	0
124	1	697	0	1	1	0.1688	0.0879	0	1	0.392	10	82	82
124	1	698	9	1	3	0.1688	0.0879	1	0	0.407	0	0	82
124	1	699	9	2	1	0.1688	0.0879	0	0	0.549	0	82	82
124	1	700	9	1	1	0.1688	0.0879	0	1	0.348	0	82	82
124	1	701	0	2	2	0.1688	0.0879	0	1	0.754	6	82	82
124	1	702	9	1	1	0.1688	0.0879	1	1	0.608	0	82	0
124	1	703	1	1	1	0.1688	0.0879	0	1	0.302	100	0	0
124	1	704	0	1	3	0.1688	0.0879	1	1	0.366	10	82	0
124	1	705	1	2	1	0.1688	0.0879	0	0	0.449	0	0	0
124	1	706	1	2	2	0.1688	0.0879	0	1	0.394	96	0	0
124	1	707	1	2	2	0.1688	0.0879	1	1	0.470	88	82	0
124	1	708	1	2	3	0.1688	0.0879	1	1	0.506	84	82	0
124	1	709	0	2	2	0.1688	0.0879	0	1	0.342	10	82	82
124	1	710	1	2	2	0.1688	0.0879	1	1	0.417	93	82	0
124	1	711	1	2	2	0.1688	0.0879	0	0	0.458	0	0	0
124	1	712	0	2	3	0.1688	0.0879	0	1	0.449	9	82	82
124	1	713	9	1	2	0.1688	0.0879	1	1	0.473	0	82	0
124	1	714	0	2	1	0.1688	0.0879	0	1	0.479	9	82	82
124	1	715	1	1	3	0.1688	0.0879	1	1	0.290	100	0	82
124	1	716	1	1	3	0.1688	0.0879	0	1	0.282	100	0	0
124	1	717	0	2	2	0.1688	0.0879	0	1	0.336	10	82	82
124	1	718	0	1	3	0.1688	0.0879	0	1	0.297	10	82	82
124	1	719	0	2	2	0.1688	0.0879	0	1	0.514	8	82	82
124	1	720	0	1	2	0.1688	0.0879	1	1	0.386	10	82	0
