sub	sess	t	rew	loc	cue	co1	co2	or	resp	rt	rew_tot	left_col	right_col
52	1	1	9	2	3	0.0500	0.1100	1	0	1.061	0	82	0
52	1	2	9	2	3	0.0500	0.1100	1	1	0.893	0	0	82
52	1	3	1	1	3	0.0500	0.1100	1	1	0.648	70	0	82
52	1	4	0	2	2	0.0500	0.1100	0	1	0.681	7	82	82
52	1	5	0	2	3	0.0500	0.1100	1	1	1.025	5	0	82
52	1	6	1	2	3	0.0500	0.1100	0	1	0.809	54	0	0
52	1	7	1	2	1	0.0500	0.1100	1	1	0.776	57	82	0
52	1	8	9	1	1	0.0500	0.1100	0	1	0.714	0	0	0
52	1	9	0	2	3	0.0500	0.1100	0	1	0.725	6	82	82
52	1	10	0	2	3	0.0500	0.1100	0	1	0.753	6	82	82
52	1	11	1	2	2	0.0500	0.1100	0	1	0.995	50	0	0
52	1	12	1	1	1	0.0500	0.1100	0	1	0.812	54	0	0
52	1	13	9	2	3	0.0500	0.1100	1	1	0.740	0	0	82
52	1	14	0	2	2	0.0500	0.1100	0	1	0.575	8	82	82
52	1	15	9	1	1	0.0500	0.1100	0	1	0.607	0	0	0
52	1	16	1	1	3	0.0500	0.1100	1	1	0.642	71	0	82
52	1	17	1	1	1	0.0500	0.1100	0	1	0.529	82	0	0
52	1	18	1	2	2	0.0500	0.1100	1	1	0.455	90	82	0
52	1	19	9	2	3	0.0500	0.1100	0	1	0.695	0	82	82
52	1	20	9	1	2	0.0500	0.1100	1	1	1.109	0	0	82
52	1	21	1	1	3	0.0500	0.1100	0	1	0.496	85	0	0
52	1	22	0	1	3	0.0500	0.1100	0	1	0.588	8	82	82
52	1	23	0	2	3	0.0500	0.1100	0	1	0.685	7	82	82
52	1	24	9	2	2	0.0500	0.1100	0	1	0.397	0	82	82
52	1	25	9	1	3	0.0500	0.1100	1	1	0.869	0	0	82
52	1	26	1	1	3	0.0500	0.1100	1	1	0.539	81	0	82
52	1	27	0	2	3	0.0500	0.1100	0	1	0.869	5	82	82
52	1	28	1	1	3	0.0500	0.1100	0	0	0.586	0	0	0
52	1	29	0	1	3	0.0500	0.1100	0	1	0.741	6	82	82
52	1	30	1	1	3	0.0500	0.1100	0	1	0.592	76	0	0
52	1	31	9	2	1	0.0500	0.1100	1	1	0.739	0	0	82
52	1	32	1	1	2	0.0500	0.1100	0	1	0.976	50	0	0
52	1	33	1	1	3	0.0500	0.1100	0	1	0.466	88	0	0
52	1	34	0	2	2	0.0500	0.1100	1	0	0.840	0	0	82
52	1	35	1	1	1	0.0500	0.1100	1	1	0.719	63	0	82
52	1	36	1	2	3	0.0500	0.1100	0	1	0.885	50	0	0
52	1	37	1	2	2	0.0500	0.1100	1	1	0.553	80	82	0
52	1	38	9	2	2	0.0500	0.1100	0	1	0.445	0	0	0
52	1	39	9	1	2	0.0500	0.1100	0	1	0.900	0	0	0
52	1	40	1	2	2	0.0500	0.1100	1	1	0.536	81	82	0
52	1	41	9	1	1	0.0500	0.1100	1	1	0.651	0	82	0
52	1	42	0	2	3	0.0500	0.1100	1	1	0.780	6	0	82
52	1	43	1	1	3	0.0500	0.1100	0	1	0.477	87	0	0
52	1	44	1	2	2	0.0500	0.1100	1	1	0.410	94	82	0
52	1	45	0	1	1	0.0500	0.1100	1	0	0.333	0	82	0
52	1	46	1	2	3	0.0500	0.1100	1	1	0.665	68	82	0
52	1	47	9	1	2	0.0500	0.1100	1	1	0.776	0	82	0
52	1	48	1	1	3	0.0500	0.1100	1	1	0.617	73	0	82
52	1	49	0	1	1	0.0500	0.1100	0	1	0.840	5	82	82
52	1	50	0	1	1	0.0500	0.1100	0	1	0.538	8	82	82
52	1	51	0	2	2	0.0500	0.1100	1	1	0.584	8	0	82
52	1	52	1	2	3	0.0500	0.1100	0	0	1.563	0	0	0
52	1	53	0	1	2	0.0500	0.1100	0	1	0.727	6	82	82
52	1	54	9	2	3	0.0500	0.1100	0	1	0.642	0	82	82
52	1	55	0	1	3	0.0500	0.1100	0	1	0.682	7	82	82
52	1	56	1	1	3	0.0500	0.1100	0	1	0.753	60	0	0
52	1	57	9	1	1	0.0500	0.1100	1	1	0.646	0	82	0
52	1	58	1	1	1	0.0500	0.1100	0	1	0.503	85	0	0
52	1	59	1	1	1	0.0500	0.1100	1	1	0.563	79	0	82
52	1	60	1	1	3	0.0500	0.1100	1	1	0.493	86	0	82
52	1	61	1	2	1	0.0500	0.1100	1	1	0.784	57	82	0
52	1	62	0	2	3	0.0500	0.1100	1	1	0.851	5	0	82
52	1	63	0	1	1	0.0500	0.1100	1	1	0.498	9	82	0
52	1	64	0	1	1	0.0500	0.1100	0	0	0.615	0	82	82
52	1	65	1	2	3	0.0500	0.1100	1	1	0.640	71	82	0
52	1	66	0	1	1	0.0500	0.1100	0	1	0.432	9	82	82
52	1	67	0	1	1	0.0500	0.1100	0	1	0.585	8	82	82
52	1	68	1	2	2	0.0500	0.1100	1	1	0.549	80	82	0
52	1	69	0	2	2	0.0500	0.1100	0	0	0.649	0	82	82
52	1	70	1	1	3	0.0500	0.1100	1	1	0.680	67	0	82
52	1	71	0	2	3	0.0500	0.1100	0	1	0.526	8	82	82
52	1	72	1	2	3	0.0500	0.1100	1	1	0.682	67	82	0
52	1	73	0	1	1	0.0500	0.1100	1	1	0.562	8	82	0
52	1	74	1	2	2	0.0500	0.1100	1	1	0.443	91	82	0
52	1	75	0	2	2	0.0500	0.1100	1	1	0.465	9	0	82
52	1	76	1	1	1	0.0500	0.1100	1	1	0.711	64	0	82
52	1	77	1	2	2	0.0500	0.1100	0	1	0.556	79	0	0
52	1	78	0	1	1	0.0500	0.1100	1	1	0.496	9	82	0
52	1	79	0	2	2	0.0500	0.1100	1	1	0.502	8	0	82
52	1	80	1	2	3	0.0500	0.1100	1	1	0.564	79	82	0
52	1	81	0	1	3	0.0500	0.1100	1	1	0.929	5	82	0
52	1	82	0	2	1	0.0500	0.1100	0	1	0.726	6	82	82
52	1	83	9	1	3	0.0500	0.1100	0	1	0.578	0	82	82
52	1	84	1	1	3	0.0500	0.1100	1	1	0.588	76	0	82
52	1	85	1	2	2	0.0500	0.1100	1	1	0.646	70	82	0
52	1	86	0	2	2	0.0500	0.1100	1	1	0.502	8	0	82
52	1	87	1	1	1	0.0500	0.1100	1	1	0.458	89	0	82
52	1	88	1	1	1	0.0500	0.1100	1	1	0.416	93	0	82
52	1	89	9	1	1	0.0500	0.1100	1	1	0.507	0	0	82
52	1	90	0	1	1	0.0500	0.1100	0	1	0.591	8	82	82
52	1	91	1	2	2	0.0500	0.1100	0	1	0.639	71	0	0
52	1	92	9	2	2	0.0500	0.1100	1	1	0.513	0	82	0
52	1	93	1	2	3	0.0500	0.1100	1	1	0.485	87	82	0
52	1	94	1	1	1	0.0500	0.1100	0	1	0.417	93	0	0
52	1	95	0	1	2	0.0500	0.1100	1	1	0.443	9	82	0
52	1	96	9	2	2	0.0500	0.1100	1	1	0.444	0	0	82
52	1	97	0	2	2	0.0500	0.1100	1	1	0.474	9	0	82
52	1	98	9	2	3	0.0500	0.1100	1	1	0.650	0	0	82
52	1	99	9	2	1	0.0500	0.1100	0	1	0.738	0	0	0
52	1	100	0	1	3	0.0500	0.1100	0	1	0.615	7	82	82
52	1	101	1	1	3	0.0500	0.1100	1	1	0.499	85	0	82
52	1	102	0	2	2	0.0500	0.1100	0	0	0.306	0	82	82
52	1	103	0	2	2	0.0500	0.1100	0	1	0.503	8	82	82
52	1	104	1	2	2	0.0500	0.1100	0	1	0.539	81	0	0
52	1	105	0	2	2	0.0500	0.1100	0	1	0.479	9	82	82
52	1	106	0	1	3	0.0500	0.1100	0	1	0.653	7	82	82
52	1	107	0	1	3	0.0500	0.1100	1	1	1.010	5	82	0
52	1	108	9	2	3	0.0500	0.1100	0	1	0.771	0	0	0
52	1	109	1	1	1	0.0500	0.1100	0	1	0.652	70	0	0
52	1	110	0	1	3	0.0500	0.1100	0	1	0.635	7	82	82
52	1	111	1	2	1	0.0500	0.1100	0	1	0.723	63	0	0
52	1	112	0	2	1	0.0500	0.1100	0	1	0.511	8	82	82
52	1	113	1	2	2	0.0500	0.1100	1	1	0.563	79	82	0
52	1	114	0	1	3	0.0500	0.1100	0	0	0.599	0	82	82
52	1	115	9	1	3	0.0500	0.1100	0	0	0.641	0	82	82
52	1	116	1	2	2	0.0500	0.1100	0	1	0.456	89	0	0
52	1	117	1	1	1	0.0500	0.1100	1	1	0.550	80	0	82
52	1	118	9	2	2	0.0500	0.1100	1	1	0.336	0	82	0
52	1	119	9	1	1	0.0500	0.1100	1	1	0.539	0	82	0
52	1	120	0	2	3	0.0500	0.1100	1	1	0.656	7	0	82
52	1	121	0	2	3	0.0500	0.1100	1	1	0.611	7	0	82
52	1	122	0	2	3	0.0500	0.1100	1	1	0.651	7	0	82
52	1	123	0	1	2	0.0500	0.1100	0	0	0.588	0	82	82
52	1	124	9	1	1	0.0500	0.1100	1	1	1.028	0	0	82
52	1	125	0	1	3	0.0500	0.1100	1	1	0.555	8	82	0
52	1	126	1	2	3	0.0500	0.1100	0	0	0.696	0	0	0
52	1	127	1	1	1	0.0500	0.1100	0	1	0.616	73	0	0
52	1	128	9	1	1	0.0500	0.1100	0	1	0.552	0	82	82
52	1	129	0	1	3	0.0500	0.1100	0	1	0.492	9	82	82
52	1	130	9	1	1	0.0500	0.1100	0	1	0.539	0	82	82
52	1	131	1	2	3	0.0500	0.1100	1	1	0.505	84	82	0
52	1	132	9	2	3	0.0500	0.1100	0	1	1.093	0	0	0
52	1	133	9	2	3	0.0500	0.1100	1	1	0.483	0	82	0
52	1	134	1	2	3	0.0500	0.1100	1	1	0.529	82	82	0
52	1	135	9	2	2	0.0500	0.1100	1	1	0.430	0	0	82
52	1	136	1	2	1	0.0500	0.1100	1	0	0.925	0	82	0
52	1	137	1	1	2	0.0500	0.1100	1	0	0.839	0	0	82
52	1	138	9	2	3	0.0500	0.1100	0	1	0.887	0	82	82
52	1	139	0	1	2	0.0500	0.1100	0	0	0.662	0	82	82
52	1	140	0	1	3	0.0500	0.1100	1	0	0.637	0	82	0
52	1	141	0	2	3	0.0500	0.1100	1	1	1.508	5	0	82
52	1	142	0	2	3	0.0500	0.1100	1	0	0.802	0	0	82
52	1	143	1	1	1	0.0500	0.1100	0	1	0.723	63	0	0
52	1	144	0	1	1	0.0500	0.1100	1	1	0.473	9	82	0
52	1	145	0	1	3	0.0500	0.1100	1	1	0.825	5	82	0
52	1	146	0	2	1	0.0500	0.1100	1	1	0.762	6	0	82
52	1	147	1	2	2	0.0500	0.1100	0	1	0.452	90	0	0
52	1	148	0	2	2	0.0500	0.1100	1	1	0.413	9	0	82
52	1	149	0	1	1	0.0500	0.1100	0	1	0.392	10	82	82
52	1	150	0	2	3	0.0500	0.1100	1	1	0.538	8	0	82
52	1	151	1	1	2	0.0500	0.1100	1	1	0.645	70	0	82
52	1	152	1	1	3	0.0500	0.1100	0	1	0.555	80	0	0
52	1	153	9	1	3	0.0500	0.1100	1	1	0.512	0	0	82
52	1	154	0	2	1	0.0500	0.1100	1	0	0.493	0	0	82
52	1	155	1	1	2	0.0500	0.1100	1	1	0.466	88	0	82
52	1	156	9	1	1	0.0500	0.1100	0	1	0.538	0	0	0
52	1	157	0	1	3	0.0500	0.1100	0	1	0.556	8	82	82
52	1	158	0	1	1	0.0500	0.1100	0	1	0.448	9	82	82
52	1	159	1	1	2	0.0500	0.1100	0	1	0.726	62	0	0
52	1	160	1	2	3	0.0500	0.1100	0	1	0.576	77	0	0
52	1	161	0	1	3	0.0500	0.1100	1	1	0.944	5	82	0
52	1	162	1	2	3	0.0500	0.1100	0	1	0.619	73	0	0
52	1	163	1	1	1	0.0500	0.1100	0	1	0.541	81	0	0
52	1	164	1	1	2	0.0500	0.1100	0	1	0.778	57	0	0
52	1	165	9	2	1	0.0500	0.1100	0	0	0.780	0	82	82
52	1	166	0	1	3	0.0500	0.1100	0	1	0.773	6	82	82
52	1	167	0	2	2	0.0500	0.1100	0	1	0.440	9	82	82
52	1	168	0	1	3	0.0500	0.1100	0	1	0.425	9	82	82
52	1	169	0	1	1	0.0500	0.1100	0	1	0.377	10	82	82
52	1	170	0	1	3	0.0500	0.1100	1	0	0.557	0	82	0
52	1	171	9	2	3	0.0500	0.1100	1	1	0.487	0	82	0
52	1	172	0	2	2	0.0500	0.1100	0	1	0.428	9	82	82
52	1	173	1	1	3	0.0500	0.1100	1	1	0.507	84	0	82
52	1	174	9	2	2	0.0500	0.1100	0	1	0.473	0	0	0
52	1	175	0	1	3	0.0500	0.1100	0	1	0.665	7	82	82
52	1	176	1	2	3	0.0500	0.1100	0	1	0.503	85	0	0
52	1	177	0	2	3	0.0500	0.1100	1	1	0.742	6	0	82
52	1	178	1	2	2	0.0500	0.1100	1	1	0.553	80	82	0
52	1	179	0	2	3	0.0500	0.1100	0	1	0.749	6	82	82
52	1	180	0	1	1	0.0500	0.1100	1	1	0.895	5	82	0
52	1	181	1	2	1	0.0500	0.1100	0	1	0.579	77	0	0
52	1	182	1	2	3	0.0500	0.1100	1	1	0.603	75	82	0
52	1	183	1	2	2	0.0500	0.1100	0	1	0.485	86	0	0
52	1	184	0	1	3	0.0500	0.1100	1	1	0.579	8	82	0
52	1	185	0	2	2	0.0500	0.1100	0	1	0.334	10	82	82
52	1	186	9	1	3	0.0500	0.1100	1	1	0.434	0	82	0
52	1	187	0	2	2	0.0500	0.1100	0	1	0.460	9	82	82
52	1	188	1	2	3	0.0500	0.1100	1	1	0.449	90	82	0
52	1	189	0	2	1	0.0500	0.1100	1	1	0.728	6	0	82
52	1	190	0	1	3	0.0500	0.1100	1	1	0.643	7	82	0
52	1	191	0	2	3	0.0500	0.1100	0	1	0.499	9	82	82
52	1	192	0	2	1	0.0500	0.1100	0	1	0.568	8	82	82
52	1	193	1	1	3	0.0500	0.1100	0	1	1.458	50	0	0
52	1	194	9	1	1	0.0500	0.1100	1	1	0.562	0	0	82
52	1	195	1	1	1	0.0500	0.1100	0	1	0.587	76	0	0
52	1	196	0	2	2	0.0500	0.1100	0	1	0.550	8	82	82
52	1	197	0	2	2	0.0500	0.1100	0	1	0.330	10	82	82
52	1	198	0	1	3	0.0500	0.1100	1	1	0.573	8	82	0
52	1	199	0	1	3	0.0500	0.1100	1	1	0.464	9	82	0
52	1	200	0	1	3	0.0500	0.1100	0	1	0.439	9	82	82
52	1	201	1	1	3	0.0500	0.1100	1	1	1.023	50	0	82
52	1	202	0	1	1	0.0500	0.1100	0	1	0.439	9	82	82
52	1	203	0	1	1	0.0500	0.1100	1	1	0.673	7	82	0
52	1	204	0	2	3	0.0500	0.1100	1	0	0.737	0	0	82
52	1	205	1	2	3	0.0500	0.1100	0	1	0.533	82	0	0
52	1	206	1	1	3	0.0500	0.1100	0	0	0.490	0	0	0
52	1	207	1	1	1	0.0500	0.1100	0	1	0.335	100	0	0
52	1	208	9	2	3	0.0500	0.1100	0	1	0.540	0	0	0
52	1	209	9	1	1	0.0500	0.1100	0	1	0.457	0	82	82
52	1	210	0	1	2	0.0500	0.1100	0	1	0.642	7	82	82
52	1	211	0	2	2	0.0500	0.1100	1	0	0.674	0	0	82
52	1	212	1	2	2	0.0500	0.1100	1	1	0.458	89	82	0
52	1	213	1	2	3	0.0500	0.1100	0	1	0.802	55	0	0
52	1	214	9	2	2	0.0500	0.1100	1	1	0.467	0	0	82
52	1	215	1	2	2	0.0500	0.1100	1	1	0.451	90	82	0
52	1	216	1	1	1	0.0500	0.1100	1	1	0.634	72	0	82
52	1	217	1	1	3	0.0500	0.1100	0	1	0.595	75	0	0
52	1	218	1	1	3	0.0500	0.1100	1	1	0.532	82	0	82
52	1	219	0	1	3	0.0500	0.1100	1	1	0.505	8	82	0
52	1	220	0	2	3	0.0500	0.1100	1	0	0.472	0	0	82
52	1	221	9	1	1	0.0500	0.1100	0	1	0.453	0	82	82
52	1	222	9	1	3	0.0500	0.1100	0	1	0.573	0	0	0
52	1	223	9	1	3	0.0500	0.1100	0	1	0.673	0	0	0
52	1	224	0	2	2	0.0500	0.1100	1	1	0.686	7	0	82
52	1	225	9	2	1	0.0500	0.1100	1	0	1.044	0	82	0
52	1	226	9	1	3	0.0500	0.1100	0	1	0.530	0	0	0
52	1	227	1	1	1	0.0500	0.1100	0	1	0.509	84	0	0
52	1	228	1	1	3	0.0500	0.1100	1	1	0.465	89	0	82
52	1	229	0	2	2	0.0500	0.1100	1	1	0.439	9	0	82
52	1	230	0	1	3	0.0500	0.1100	1	1	0.439	9	82	0
52	1	231	1	1	3	0.0500	0.1100	0	1	0.488	86	0	0
52	1	232	0	2	1	0.0500	0.1100	1	1	0.638	7	0	82
52	1	233	1	1	1	0.0500	0.1100	1	1	0.528	82	0	82
52	1	234	1	2	2	0.0500	0.1100	0	0	0.380	0	0	0
52	1	235	9	2	2	0.0500	0.1100	1	1	0.446	0	82	0
52	1	236	9	2	2	0.0500	0.1100	0	1	0.420	0	82	82
52	1	237	0	2	2	0.0500	0.1100	0	1	0.454	9	82	82
52	1	238	0	2	2	0.0500	0.1100	1	1	0.453	9	0	82
52	1	239	9	1	3	0.0500	0.1100	0	1	0.922	0	82	82
52	1	240	0	2	2	0.0500	0.1100	1	1	0.486	9	0	82
52	1	241	0	1	1	0.0500	0.1100	1	1	0.599	8	82	0
52	1	242	1	1	3	0.0500	0.1100	0	1	0.479	87	0	0
52	1	243	1	1	1	0.0500	0.1100	0	1	0.380	97	0	0
52	1	244	0	2	3	0.0500	0.1100	0	1	0.477	9	82	82
52	1	245	0	1	1	0.0500	0.1100	1	1	0.429	9	82	0
52	1	246	1	1	1	0.0500	0.1100	1	1	0.567	78	0	82
52	1	247	9	1	3	0.0500	0.1100	1	1	0.433	0	82	0
52	1	248	1	2	3	0.0500	0.1100	0	1	0.481	87	0	0
52	1	249	9	2	2	0.0500	0.1100	0	1	0.430	0	82	82
52	1	250	0	1	1	0.0500	0.1100	1	1	0.541	8	82	0
52	1	251	1	2	3	0.0500	0.1100	0	1	0.432	92	0	0
52	1	252	1	2	2	0.0500	0.1100	0	1	0.586	76	0	0
52	1	253	1	2	3	0.0500	0.1100	1	1	0.508	84	82	0
52	1	254	1	2	3	0.0500	0.1100	1	0	0.472	0	82	0
52	1	255	9	1	3	0.0500	0.1100	1	1	0.504	0	82	0
52	1	256	9	2	2	0.0500	0.1100	0	1	0.548	0	82	82
52	1	257	0	2	3	0.0500	0.1100	0	1	0.425	9	82	82
52	1	258	1	1	1	0.0500	0.1100	0	1	0.338	100	0	0
52	1	259	1	1	1	0.0500	0.1100	0	1	0.342	100	0	0
52	1	260	0	2	1	0.0500	0.1100	0	0	0.570	0	82	82
52	1	261	0	2	2	0.0500	0.1100	1	1	0.473	9	0	82
52	1	262	0	2	3	0.0500	0.1100	0	1	0.448	9	82	82
52	1	263	0	2	3	0.0500	0.1100	0	1	0.472	9	82	82
52	1	264	1	2	3	0.0500	0.1100	0	1	0.464	89	0	0
52	1	265	9	2	3	0.0500	0.1100	0	1	0.470	0	82	82
52	1	266	1	2	3	0.0500	0.1100	0	1	0.508	84	0	0
52	1	267	1	1	1	0.0500	0.1100	1	0	0.600	0	0	82
52	1	268	0	2	2	0.0500	0.1100	1	1	0.450	9	0	82
52	1	269	0	2	3	0.0500	0.1100	0	1	0.465	9	82	82
52	1	270	1	1	1	0.0500	0.1100	1	1	0.578	77	0	82
52	1	271	1	1	1	0.0500	0.1100	1	1	0.692	66	0	82
52	1	272	9	1	3	0.0500	0.1100	0	1	0.827	0	0	0
52	1	273	0	1	1	0.0500	0.1100	0	1	0.458	9	82	82
52	1	274	0	1	1	0.0500	0.1100	1	1	0.514	8	82	0
52	1	275	0	2	3	0.0500	0.1100	0	1	0.390	10	82	82
52	1	276	1	1	3	0.0500	0.1100	0	1	0.585	76	0	0
52	1	277	1	2	3	0.0500	0.1100	0	1	0.669	68	0	0
52	1	278	0	1	3	0.0500	0.1100	1	0	0.586	0	82	0
52	1	279	1	1	1	0.0500	0.1100	1	1	0.564	79	0	82
52	1	280	1	2	3	0.0500	0.1100	0	1	0.421	93	0	0
52	1	281	0	2	3	0.0500	0.1100	1	0	0.649	0	0	82
52	1	282	1	1	1	0.0500	0.1100	1	1	0.440	91	0	82
52	1	283	9	2	2	0.0500	0.1100	1	1	0.398	0	82	0
52	1	284	0	2	2	0.0500	0.1100	1	1	0.447	9	0	82
52	1	285	1	2	2	0.0500	0.1100	0	1	0.399	95	0	0
52	1	286	1	1	2	0.0500	0.1100	1	1	0.649	70	0	82
52	1	287	1	1	2	0.0500	0.1100	0	0	0.718	0	0	0
52	1	288	0	2	2	0.0500	0.1100	0	1	0.517	8	82	82
52	1	289	1	2	2	0.0500	0.1100	0	1	0.360	99	0	0
52	1	290	0	1	1	0.0500	0.1100	1	1	0.490	9	82	0
52	1	291	1	2	3	0.0500	0.1100	1	1	0.464	89	82	0
52	1	292	1	1	3	0.0500	0.1100	0	1	0.527	82	0	0
52	1	293	1	1	1	0.0500	0.1100	0	1	0.340	100	0	0
52	1	294	9	1	3	0.0500	0.1100	1	1	0.423	0	0	82
52	1	295	1	2	3	0.0500	0.1100	1	0	0.501	0	82	0
52	1	296	1	1	3	0.0500	0.1100	1	1	0.578	77	0	82
52	1	297	9	1	1	0.0500	0.1100	1	1	0.574	0	0	82
52	1	298	0	2	3	0.0500	0.1100	0	1	0.474	9	82	82
52	1	299	1	1	3	0.0500	0.1100	1	1	0.465	88	0	82
52	1	300	1	2	2	0.0500	0.1100	0	1	0.439	91	0	0
52	1	301	0	1	3	0.0500	0.1100	1	1	0.643	7	82	0
52	1	302	9	1	3	0.0500	0.1100	1	1	0.433	0	82	0
52	1	303	0	2	3	0.0500	0.1100	0	1	0.448	9	82	82
52	1	304	9	1	3	0.0500	0.1100	1	1	0.424	0	0	82
52	1	305	9	2	2	0.0500	0.1100	1	0	0.546	0	0	82
52	1	306	9	1	2	0.0500	0.1100	0	1	0.635	0	82	82
52	1	307	0	1	3	0.0500	0.1100	0	1	0.563	8	82	82
52	1	308	9	2	3	0.0500	0.1100	0	1	0.720	0	0	0
52	1	309	0	1	3	0.0500	0.1100	0	1	0.671	7	82	82
52	1	310	1	2	1	0.0500	0.1100	0	1	0.614	74	0	0
52	1	311	9	2	2	0.0500	0.1100	0	1	0.685	0	0	0
52	1	312	1	1	3	0.0500	0.1100	1	1	0.730	62	0	82
52	1	313	0	1	1	0.0500	0.1100	0	1	0.510	8	82	82
52	1	314	0	1	1	0.0500	0.1100	1	1	0.611	7	82	0
52	1	315	1	2	2	0.0500	0.1100	1	1	0.373	98	82	0
52	1	316	0	1	3	0.0500	0.1100	0	0	0.584	0	82	82
52	1	317	0	1	1	0.0500	0.1100	1	0	0.299	0	82	0
52	1	318	0	1	1	0.0500	0.1100	1	1	0.585	8	82	0
52	1	319	1	1	1	0.0500	0.1100	1	1	0.499	85	0	82
52	1	320	1	2	3	0.0500	0.1100	1	1	0.648	70	82	0
52	1	321	1	2	1	0.0500	0.1100	0	1	0.572	78	0	0
52	1	322	1	1	3	0.0500	0.1100	0	0	0.493	0	0	0
52	1	323	0	1	2	0.0500	0.1100	1	1	0.633	7	82	0
52	1	324	0	2	2	0.0500	0.1100	0	1	0.407	9	82	82
52	1	325	0	2	2	0.0500	0.1100	1	1	0.778	6	0	82
52	1	326	1	1	1	0.0500	0.1100	1	1	0.445	90	0	82
52	1	327	1	2	2	0.0500	0.1100	1	1	0.494	86	82	0
52	1	328	1	2	1	0.0500	0.1100	1	0	0.436	0	82	0
52	1	329	9	2	2	0.0500	0.1100	0	1	0.493	0	0	0
52	1	330	0	2	2	0.0500	0.1100	0	1	0.401	9	82	82
52	1	331	1	2	2	0.0500	0.1100	0	1	0.316	100	0	0
52	1	332	9	1	1	0.0500	0.1100	1	1	0.601	0	82	0
52	1	333	0	1	1	0.0500	0.1100	0	1	0.548	8	82	82
52	1	334	1	2	2	0.0500	0.1100	1	1	0.454	90	82	0
52	1	335	0	2	3	0.0500	0.1100	0	1	0.532	8	82	82
52	1	336	1	1	1	0.0500	0.1100	0	1	0.322	100	0	0
52	1	337	0	1	2	0.0500	0.1100	1	1	0.534	8	82	0
52	1	338	1	1	3	0.0500	0.1100	0	1	0.498	85	0	0
52	1	339	9	2	3	0.0500	0.1100	1	1	0.677	0	0	82
52	1	340	0	1	1	0.0500	0.1100	0	1	0.653	7	82	82
52	1	341	0	2	3	0.0500	0.1100	1	1	0.781	6	0	82
52	1	342	0	2	3	0.0500	0.1100	1	1	0.599	8	0	82
52	1	343	0	1	1	0.0500	0.1100	1	0	0.290	0	82	0
52	1	344	1	2	2	0.0500	0.1100	0	1	0.434	92	0	0
52	1	345	1	2	2	0.0500	0.1100	0	1	0.497	85	0	0
52	1	346	9	1	3	0.0500	0.1100	0	1	0.510	0	82	82
52	1	347	1	1	3	0.0500	0.1100	1	1	0.523	83	0	82
52	1	348	0	1	3	0.0500	0.1100	1	1	0.486	9	82	0
52	1	349	1	2	2	0.0500	0.1100	1	1	0.451	90	82	0
52	1	350	1	2	2	0.0500	0.1100	0	1	0.402	95	0	0
52	1	351	1	2	3	0.0500	0.1100	0	1	0.493	86	0	0
52	1	352	1	2	3	0.0500	0.1100	1	1	0.500	85	82	0
52	1	353	0	1	1	0.0500	0.1100	0	1	0.361	10	82	82
52	1	354	1	2	2	0.0500	0.1100	1	1	0.396	95	82	0
52	1	355	9	1	1	0.0500	0.1100	0	1	0.269	0	0	0
52	1	356	0	1	1	0.0500	0.1100	0	0	0.418	0	82	82
52	1	357	1	2	3	0.0500	0.1100	1	1	0.377	97	82	0
52	1	358	0	2	3	0.0500	0.1100	1	0	0.436	0	0	82
52	1	359	0	1	2	0.0500	0.1100	1	0	0.426	0	82	0
52	1	360	9	2	3	0.0500	0.1100	1	1	0.594	0	82	0
52	1	361	1	2	3	0.0500	0.1100	1	1	0.473	88	82	0
52	1	362	0	2	3	0.0500	0.1100	0	1	0.464	9	82	82
52	1	363	9	1	1	0.0500	0.1100	0	1	0.269	0	0	0
52	1	364	1	2	3	0.0500	0.1100	0	1	0.493	86	0	0
52	1	365	1	2	1	0.0500	0.1100	0	1	0.401	95	0	0
52	1	366	1	1	1	0.0500	0.1100	1	0	0.331	0	0	82
52	1	367	0	2	2	0.0500	0.1100	0	1	0.439	9	82	82
52	1	368	0	1	1	0.0500	0.1100	1	1	0.558	8	82	0
52	1	369	1	2	3	0.0500	0.1100	0	1	0.418	93	0	0
52	1	370	9	2	1	0.0500	0.1100	0	1	0.849	0	82	82
52	1	371	0	1	1	0.0500	0.1100	1	0	0.784	0	82	0
52	1	372	1	2	2	0.0500	0.1100	0	1	0.409	94	0	0
52	1	373	1	1	3	0.0500	0.1100	1	1	0.480	87	0	82
52	1	374	9	2	3	0.0500	0.1100	0	1	0.422	0	0	0
52	1	375	9	2	3	0.0500	0.1100	0	1	0.432	0	82	82
52	1	376	1	1	3	0.0500	0.1100	1	1	0.398	95	0	82
52	1	377	1	1	2	0.0500	0.1100	0	0	0.647	0	0	0
52	1	378	1	1	1	0.0500	0.1100	0	1	0.423	93	0	0
52	1	379	9	1	3	0.0500	0.1100	1	1	0.466	0	0	82
52	1	380	0	2	3	0.0500	0.1100	1	0	0.591	0	0	82
52	1	381	1	1	1	0.0500	0.1100	1	1	0.494	86	0	82
52	1	382	0	2	1	0.0500	0.1100	0	1	0.436	9	82	82
52	1	383	9	2	3	0.0500	0.1100	1	0	0.492	0	0	82
52	1	384	9	2	3	0.0500	0.1100	1	1	0.570	0	0	82
52	1	385	9	1	2	0.0500	0.1100	1	1	0.637	0	82	0
52	1	386	9	2	2	0.0500	0.1100	1	1	0.445	0	82	0
52	1	387	0	1	3	0.0500	0.1100	1	1	0.549	8	82	0
52	1	388	9	1	1	0.0500	0.1100	0	1	0.455	0	82	82
52	1	389	1	1	1	0.0500	0.1100	1	1	0.462	89	0	82
52	1	390	0	2	2	0.0500	0.1100	0	1	0.478	9	82	82
52	1	391	9	1	3	0.0500	0.1100	0	1	0.573	0	82	82
52	1	392	0	2	2	0.0500	0.1100	1	1	0.478	9	0	82
52	1	393	1	1	3	0.0500	0.1100	0	1	0.454	90	0	0
52	1	394	1	2	1	0.0500	0.1100	1	0	0.495	0	82	0
52	1	395	0	2	3	0.0500	0.1100	0	1	0.581	8	82	82
52	1	396	0	1	3	0.0500	0.1100	1	1	0.607	7	82	0
52	1	397	0	2	3	0.0500	0.1100	0	1	0.457	9	82	82
52	1	398	0	2	2	0.0500	0.1100	0	1	0.401	9	82	82
52	1	399	0	2	2	0.0500	0.1100	0	1	0.363	10	82	82
52	1	400	0	1	1	0.0500	0.1100	1	0	0.350	0	82	0
52	1	401	1	1	3	0.0500	0.1100	1	1	0.769	58	0	82
52	1	402	1	1	1	0.0500	0.1100	0	1	0.284	100	0	0
52	1	403	1	2	2	0.0500	0.1100	0	1	0.339	100	0	0
52	1	404	0	2	2	0.0500	0.1100	1	1	0.480	9	0	82
52	1	405	0	1	1	0.0500	0.1100	1	0	0.366	0	82	0
52	1	406	1	2	3	0.0500	0.1100	0	1	0.647	70	0	0
52	1	407	0	2	3	0.0500	0.1100	0	1	0.516	8	82	82
52	1	408	0	2	2	0.0500	0.1100	1	0	0.370	0	0	82
52	1	409	0	2	2	0.0500	0.1100	0	1	0.341	10	82	82
52	1	410	0	2	2	0.0500	0.1100	1	1	0.408	9	0	82
52	1	411	9	1	1	0.0500	0.1100	0	1	0.289	0	0	0
52	1	412	0	2	3	0.0500	0.1100	0	1	0.414	9	82	82
52	1	413	9	1	1	0.0500	0.1100	1	0	0.328	0	0	82
52	1	414	9	2	2	0.0500	0.1100	0	1	0.422	0	0	0
52	1	415	0	2	3	0.0500	0.1100	0	1	0.342	10	82	82
52	1	416	9	1	1	0.0500	0.1100	1	0	0.353	0	82	0
52	1	417	0	2	3	0.0500	0.1100	1	1	0.765	6	0	82
52	1	418	0	2	3	0.0500	0.1100	1	1	0.634	7	0	82
52	1	419	0	2	3	0.0500	0.1100	1	1	0.593	8	0	82
52	1	420	9	2	3	0.0500	0.1100	1	1	0.524	0	82	0
52	1	421	0	1	1	0.0500	0.1100	1	1	0.565	8	82	0
52	1	422	9	1	1	0.0500	0.1100	0	0	0.710	0	0	0
52	1	423	9	2	3	0.0500	0.1100	1	0	0.884	0	0	82
52	1	424	1	2	2	0.0500	0.1100	0	1	0.507	84	0	0
52	1	425	0	1	3	0.0500	0.1100	0	0	1.127	0	82	82
52	1	426	9	1	3	0.0500	0.1100	0	1	0.669	0	82	82
52	1	427	0	2	3	0.0500	0.1100	1	0	0.897	0	0	82
52	1	428	0	1	1	0.0500	0.1100	0	1	0.360	10	82	82
52	1	429	0	1	3	0.0500	0.1100	1	1	1.075	5	82	0
52	1	430	1	1	3	0.0500	0.1100	0	1	0.722	63	0	0
52	1	431	1	1	2	0.0500	0.1100	0	1	0.694	66	0	0
52	1	432	9	1	2	0.0500	0.1100	0	1	0.557	0	0	0
52	1	433	1	2	2	0.0500	0.1100	1	1	0.552	80	82	0
52	1	434	0	2	3	0.0500	0.1100	1	0	0.555	0	0	82
52	1	435	1	2	2	0.0500	0.1100	1	1	0.614	74	82	0
52	1	436	0	1	1	0.0500	0.1100	1	0	0.616	0	82	0
52	1	437	1	1	3	0.0500	0.1100	0	1	0.553	80	0	0
52	1	438	1	2	3	0.0500	0.1100	1	1	0.638	71	82	0
52	1	439	1	1	3	0.0500	0.1100	1	1	0.654	70	0	82
52	1	440	1	2	3	0.0500	0.1100	0	1	0.743	61	0	0
52	1	441	0	1	1	0.0500	0.1100	1	0	0.304	0	82	0
52	1	442	1	1	1	0.0500	0.1100	0	1	0.485	86	0	0
52	1	443	9	1	1	0.0500	0.1100	1	1	0.579	0	0	82
52	1	444	0	2	1	0.0500	0.1100	1	1	0.694	7	0	82
52	1	445	9	2	2	0.0500	0.1100	0	1	0.476	0	0	0
52	1	446	9	1	1	0.0500	0.1100	1	0	0.856	0	82	0
52	1	447	0	1	3	0.0500	0.1100	0	1	0.599	8	82	82
52	1	448	9	1	3	0.0500	0.1100	0	1	0.758	0	82	82
52	1	449	9	2	3	0.0500	0.1100	0	0	1.475	0	0	0
52	1	450	0	1	2	0.0500	0.1100	0	1	0.544	8	82	82
52	1	451	9	2	3	0.0500	0.1100	0	0	0.627	0	0	0
52	1	452	0	2	2	0.0500	0.1100	0	1	0.458	9	82	82
52	1	453	1	1	1	0.0500	0.1100	0	1	0.273	100	0	0
52	1	454	1	2	1	0.0500	0.1100	0	1	0.273	100	0	0
52	1	455	1	1	1	0.0500	0.1100	0	1	0.311	100	0	0
52	1	456	1	1	2	0.0500	0.1100	1	1	0.458	89	0	82
52	1	457	0	2	2	0.0500	0.1100	1	0	0.287	0	0	82
52	1	458	0	1	2	0.0500	0.1100	1	1	0.508	8	82	0
52	1	459	1	2	3	0.0500	0.1100	1	1	0.586	76	82	0
52	1	460	1	1	3	0.0500	0.1100	1	1	0.555	79	0	82
52	1	461	1	2	2	0.0500	0.1100	1	1	0.398	95	82	0
52	1	462	0	2	2	0.0500	0.1100	1	1	0.841	5	0	82
52	1	463	9	2	2	0.0500	0.1100	1	1	0.681	0	0	82
52	1	464	9	2	2	0.0500	0.1100	0	0	0.951	0	0	0
52	1	465	9	1	3	0.0500	0.1100	0	1	0.643	0	0	0
52	1	466	0	1	3	0.0500	0.1100	0	1	0.594	8	82	82
52	1	467	0	1	1	0.0500	0.1100	1	1	0.699	7	82	0
52	1	468	1	1	1	0.0500	0.1100	1	1	0.610	74	0	82
52	1	469	1	2	3	0.0500	0.1100	1	1	0.595	76	82	0
52	1	470	0	1	1	0.0500	0.1100	0	1	0.413	9	82	82
52	1	471	0	2	2	0.0500	0.1100	0	1	0.333	10	82	82
52	1	472	0	1	3	0.0500	0.1100	0	1	0.651	7	82	82
52	1	473	0	2	2	0.0500	0.1100	1	1	0.810	5	0	82
52	1	474	1	2	3	0.0500	0.1100	1	1	0.905	50	82	0
52	1	475	1	2	1	0.0500	0.1100	0	1	0.935	50	0	0
52	1	476	1	1	1	0.0500	0.1100	1	0	0.644	0	0	82
52	1	477	1	1	1	0.0500	0.1100	0	1	0.516	83	0	0
52	1	478	1	2	2	0.0500	0.1100	0	1	0.475	88	0	0
52	1	479	1	2	2	0.0500	0.1100	0	1	0.392	96	0	0
52	1	480	9	1	1	0.0500	0.1100	1	1	0.577	0	82	0
52	1	481	0	1	1	0.0500	0.1100	0	1	0.578	8	82	82
52	1	482	1	2	3	0.0500	0.1100	1	1	0.579	77	82	0
52	1	483	0	1	3	0.0500	0.1100	1	1	0.532	8	82	0
52	1	484	9	2	2	0.0500	0.1100	1	1	0.359	0	0	82
52	1	485	0	1	1	0.0500	0.1100	0	1	0.441	9	82	82
52	1	486	9	2	3	0.0500	0.1100	0	1	0.495	0	82	82
52	1	487	9	2	3	0.0500	0.1100	1	0	0.917	0	0	82
52	1	488	9	1	1	0.0500	0.1100	0	1	0.240	0	82	82
52	1	489	0	2	2	0.0500	0.1100	0	1	0.514	8	82	82
52	1	490	1	1	3	0.0500	0.1100	1	1	0.452	90	0	82
52	1	491	9	2	2	0.0500	0.1100	0	1	0.308	0	82	82
52	1	492	0	2	2	0.0500	0.1100	1	1	0.442	9	0	82
52	1	493	1	2	2	0.0500	0.1100	0	1	0.369	98	0	0
52	1	494	1	1	1	0.0500	0.1100	1	0	0.243	0	0	82
52	1	495	0	2	3	0.0500	0.1100	0	1	0.468	9	82	82
52	1	496	9	2	3	0.0500	0.1100	0	1	0.435	0	82	82
52	1	497	0	2	3	0.0500	0.1100	1	0	0.572	0	0	82
52	1	498	1	2	3	0.0500	0.1100	0	1	0.414	94	0	0
52	1	499	1	1	3	0.0500	0.1100	0	1	0.549	80	0	0
52	1	500	0	1	2	0.0500	0.1100	1	1	0.562	8	82	0
52	1	501	1	1	3	0.0500	0.1100	0	1	0.525	83	0	0
52	1	502	1	1	3	0.0500	0.1100	0	1	0.370	98	0	0
52	1	503	1	1	2	0.0500	0.1100	1	1	0.509	84	0	82
52	1	504	0	2	3	0.0500	0.1100	1	0	0.978	0	0	82
52	1	505	1	1	3	0.0500	0.1100	1	1	0.482	87	0	82
52	1	506	1	2	3	0.0500	0.1100	1	1	0.466	88	82	0
52	1	507	9	1	1	0.0500	0.1100	1	0	0.330	0	0	82
52	1	508	0	2	3	0.0500	0.1100	1	1	0.788	6	0	82
52	1	509	1	2	2	0.0500	0.1100	1	1	0.391	96	82	0
52	1	510	9	2	2	0.0500	0.1100	0	0	0.375	0	82	82
52	1	511	0	2	1	0.0500	0.1100	0	1	0.648	7	82	82
52	1	512	0	1	1	0.0500	0.1100	1	1	0.789	6	82	0
52	1	513	1	1	1	0.0500	0.1100	0	1	0.517	83	0	0
52	1	514	1	2	3	0.0500	0.1100	1	0	0.842	0	82	0
52	1	515	0	2	2	0.0500	0.1100	1	0	0.841	0	0	82
52	1	516	0	2	2	0.0500	0.1100	0	1	0.594	8	82	82
52	1	517	0	2	2	0.0500	0.1100	0	1	0.619	7	82	82
52	1	518	9	2	2	0.0500	0.1100	0	1	0.499	0	82	82
52	1	519	1	1	1	0.0500	0.1100	1	1	0.560	79	0	82
52	1	520	1	2	2	0.0500	0.1100	1	1	0.515	83	82	0
52	1	521	0	2	3	0.0500	0.1100	1	1	1.074	5	0	82
52	1	522	0	2	1	0.0500	0.1100	0	1	0.698	7	82	82
52	1	523	9	2	1	0.0500	0.1100	1	1	0.680	0	0	82
52	1	524	0	1	3	0.0500	0.1100	1	1	0.910	5	82	0
52	1	525	1	2	3	0.0500	0.1100	0	1	0.641	71	0	0
52	1	526	0	1	3	0.0500	0.1100	1	1	0.769	6	82	0
52	1	527	0	2	2	0.0500	0.1100	0	1	0.515	8	82	82
52	1	528	0	1	1	0.0500	0.1100	1	1	0.537	8	82	0
52	1	529	1	1	3	0.0500	0.1100	0	1	0.430	92	0	0
52	1	530	9	2	2	0.0500	0.1100	0	1	0.536	0	82	82
52	1	531	1	2	1	0.0500	0.1100	1	1	0.654	70	82	0
52	1	532	1	1	3	0.0500	0.1100	0	1	0.486	86	0	0
52	1	533	1	2	2	0.0500	0.1100	1	1	0.403	95	82	0
52	1	534	1	2	2	0.0500	0.1100	0	0	0.343	0	0	0
52	1	535	9	2	2	0.0500	0.1100	1	1	0.404	0	82	0
52	1	536	9	1	3	0.0500	0.1100	1	0	0.566	0	82	0
52	1	537	9	1	1	0.0500	0.1100	0	1	0.586	0	0	0
52	1	538	1	1	3	0.0500	0.1100	1	1	0.435	91	0	82
52	1	539	0	1	3	0.0500	0.1100	1	1	0.540	8	82	0
52	1	540	0	1	1	0.0500	0.1100	1	1	0.480	9	82	0
52	1	541	1	2	2	0.0500	0.1100	1	1	0.574	78	82	0
52	1	542	0	2	2	0.0500	0.1100	1	1	0.554	8	0	82
52	1	543	1	1	3	0.0500	0.1100	0	1	0.495	85	0	0
52	1	544	1	2	3	0.0500	0.1100	0	0	0.780	0	0	0
52	1	545	0	2	3	0.0500	0.1100	1	1	0.590	8	0	82
52	1	546	1	1	1	0.0500	0.1100	0	1	0.423	93	0	0
52	1	547	9	1	1	0.0500	0.1100	1	1	0.456	0	0	82
52	1	548	0	2	3	0.0500	0.1100	1	0	0.470	0	0	82
52	1	549	1	1	2	0.0500	0.1100	1	1	0.525	83	0	82
52	1	550	0	1	1	0.0500	0.1100	0	1	0.303	10	82	82
52	1	551	1	1	1	0.0500	0.1100	1	1	0.492	86	0	82
52	1	552	1	1	3	0.0500	0.1100	1	1	0.577	77	0	82
52	1	553	0	1	3	0.0500	0.1100	0	1	0.427	9	82	82
52	1	554	1	1	1	0.0500	0.1100	0	1	0.340	100	0	0
52	1	555	9	1	3	0.0500	0.1100	1	1	0.458	0	0	82
52	1	556	1	1	3	0.0500	0.1100	1	1	0.593	76	0	82
52	1	557	0	2	3	0.0500	0.1100	1	0	0.777	0	0	82
52	1	558	1	2	2	0.0500	0.1100	0	1	0.595	75	0	0
52	1	559	0	1	2	0.0500	0.1100	0	0	0.461	0	82	82
52	1	560	1	1	1	0.0500	0.1100	1	0	0.301	0	0	82
52	1	561	0	1	3	0.0500	0.1100	0	1	0.612	7	82	82
52	1	562	1	2	2	0.0500	0.1100	0	1	0.677	67	0	0
52	1	563	1	2	2	0.0500	0.1100	1	1	0.433	92	82	0
52	1	564	0	1	3	0.0500	0.1100	0	1	0.464	9	82	82
52	1	565	9	1	3	0.0500	0.1100	1	1	0.421	0	0	82
52	1	566	0	1	1	0.0500	0.1100	0	1	0.325	10	82	82
52	1	567	0	2	3	0.0500	0.1100	1	0	0.523	0	0	82
52	1	568	1	2	3	0.0500	0.1100	0	1	0.616	73	0	0
52	1	569	0	2	1	0.0500	0.1100	1	0	0.496	0	0	82
52	1	570	1	2	3	0.0500	0.1100	1	1	0.544	81	82	0
52	1	571	1	2	2	0.0500	0.1100	0	1	0.476	87	0	0
52	1	572	0	2	3	0.0500	0.1100	0	0	0.712	0	82	82
52	1	573	1	2	3	0.0500	0.1100	0	1	0.444	91	0	0
52	1	574	1	1	3	0.0500	0.1100	0	1	0.539	81	0	0
52	1	575	9	1	1	0.0500	0.1100	1	0	0.295	0	82	0
52	1	576	0	2	3	0.0500	0.1100	0	1	0.574	8	82	82
52	1	577	0	2	3	0.0500	0.1100	0	1	0.418	9	82	82
52	1	578	0	2	3	0.0500	0.1100	1	1	0.505	8	0	82
52	1	579	0	1	2	0.0500	0.1100	1	1	0.374	10	82	0
52	1	580	9	1	3	0.0500	0.1100	1	1	0.449	0	82	0
52	1	581	1	2	2	0.0500	0.1100	0	1	0.385	97	0	0
52	1	582	1	1	1	0.0500	0.1100	0	0	0.531	0	0	0
52	1	583	1	1	3	0.0500	0.1100	0	1	0.464	89	0	0
52	1	584	0	1	3	0.0500	0.1100	1	0	0.520	0	82	0
52	1	585	9	1	3	0.0500	0.1100	0	1	0.372	0	82	82
52	1	586	0	2	2	0.0500	0.1100	0	1	0.353	10	82	82
52	1	587	0	2	2	0.0500	0.1100	1	0	0.445	0	0	82
52	1	588	1	1	1	0.0500	0.1100	0	1	0.531	82	0	0
52	1	589	9	2	2	0.0500	0.1100	1	1	0.529	0	82	0
52	1	590	1	1	3	0.0500	0.1100	0	1	0.607	74	0	0
52	1	591	0	1	3	0.0500	0.1100	1	1	0.791	6	82	0
52	1	592	9	1	1	0.0500	0.1100	0	1	0.417	0	82	82
52	1	593	0	1	1	0.0500	0.1100	0	1	0.410	9	82	82
52	1	594	9	1	2	0.0500	0.1100	0	1	0.520	0	82	82
52	1	595	1	2	2	0.0500	0.1100	1	1	0.484	87	82	0
52	1	596	1	1	1	0.0500	0.1100	1	1	0.634	72	0	82
52	1	597	1	2	3	0.0500	0.1100	1	1	0.467	88	82	0
52	1	598	1	1	3	0.0500	0.1100	0	1	0.442	91	0	0
52	1	599	1	2	2	0.0500	0.1100	0	1	0.490	86	0	0
52	1	600	0	1	1	0.0500	0.1100	0	1	0.616	7	82	82
52	1	601	1	1	1	0.0500	0.1100	1	1	0.520	83	0	82
52	1	602	9	2	2	0.0500	0.1100	1	1	0.468	0	0	82
52	1	603	1	1	1	0.0500	0.1100	1	1	0.573	78	0	82
52	1	604	0	1	3	0.0500	0.1100	1	1	0.537	8	82	0
52	1	605	1	2	2	0.0500	0.1100	0	1	0.397	95	0	0
52	1	606	0	2	3	0.0500	0.1100	0	1	0.446	9	82	82
52	1	607	0	1	3	0.0500	0.1100	1	1	0.509	8	82	0
52	1	608	1	1	1	0.0500	0.1100	1	1	0.587	76	0	82
52	1	609	1	1	3	0.0500	0.1100	1	1	0.509	84	0	82
52	1	610	1	1	1	0.0500	0.1100	0	1	0.668	68	0	0
52	1	611	1	2	3	0.0500	0.1100	0	1	0.451	90	0	0
52	1	612	0	2	2	0.0500	0.1100	1	1	0.523	8	0	82
52	1	613	1	1	3	0.0500	0.1100	0	1	0.472	88	0	0
52	1	614	1	1	1	0.0500	0.1100	0	1	0.408	94	0	0
52	1	615	1	1	3	0.0500	0.1100	1	1	0.528	82	0	82
52	1	616	9	2	1	0.0500	0.1100	1	1	0.498	0	82	0
52	1	617	1	1	1	0.0500	0.1100	0	1	0.400	95	0	0
52	1	618	0	1	1	0.0500	0.1100	0	1	0.528	8	82	82
52	1	619	0	1	3	0.0500	0.1100	1	0	0.668	0	82	0
52	1	620	1	1	3	0.0500	0.1100	0	1	0.425	92	0	0
52	1	621	1	2	2	0.0500	0.1100	1	1	0.469	88	82	0
52	1	622	1	2	2	0.0500	0.1100	1	1	0.460	89	82	0
52	1	623	0	1	3	0.0500	0.1100	1	1	0.500	9	82	0
52	1	624	0	1	3	0.0500	0.1100	0	0	3.520	0	82	82
52	1	625	0	1	1	0.0500	0.1100	1	1	0.524	8	82	0
52	1	626	1	2	1	0.0500	0.1100	1	1	0.567	78	82	0
52	1	627	0	1	3	0.0500	0.1100	0	1	0.490	9	82	82
52	1	628	0	1	1	0.0500	0.1100	1	0	1.272	0	82	0
52	1	629	1	2	3	0.0500	0.1100	0	1	0.616	73	0	0
52	1	630	0	2	1	0.0500	0.1100	0	1	0.426	9	82	82
52	1	631	1	2	2	0.0500	0.1100	1	0	0.330	0	82	0
52	1	632	9	1	3	0.0500	0.1100	1	1	0.582	0	0	82
52	1	633	0	1	1	0.0500	0.1100	1	0	0.673	0	82	0
52	1	634	0	1	3	0.0500	0.1100	0	1	0.697	7	82	82
52	1	635	1	1	3	0.0500	0.1100	1	1	0.617	73	0	82
52	1	636	1	2	3	0.0500	0.1100	1	1	0.474	88	82	0
52	1	637	1	2	3	0.0500	0.1100	1	1	0.410	94	82	0
52	1	638	1	2	2	0.0500	0.1100	1	1	0.348	100	82	0
52	1	639	0	1	1	0.0500	0.1100	0	1	0.361	10	82	82
52	1	640	0	2	3	0.0500	0.1100	0	1	0.651	7	82	82
52	1	641	0	1	3	0.0500	0.1100	1	0	0.690	0	82	0
52	1	642	0	1	3	0.0500	0.1100	0	1	0.434	9	82	82
52	1	643	0	2	3	0.0500	0.1100	0	1	0.545	8	82	82
52	1	644	9	2	3	0.0500	0.1100	1	1	0.595	0	82	0
52	1	645	0	2	3	0.0500	0.1100	1	0	0.523	0	0	82
52	1	646	9	2	2	0.0500	0.1100	1	1	0.448	0	0	82
52	1	647	0	1	2	0.0500	0.1100	0	0	0.742	0	82	82
52	1	648	1	1	2	0.0500	0.1100	1	0	0.754	0	0	82
52	1	649	1	1	1	0.0500	0.1100	0	1	0.445	90	0	0
52	1	650	1	1	1	0.0500	0.1100	0	1	0.445	90	0	0
52	1	651	1	1	3	0.0500	0.1100	1	1	0.597	75	0	82
52	1	652	1	1	2	0.0500	0.1100	0	1	0.783	57	0	0
52	1	653	9	1	3	0.0500	0.1100	1	1	0.738	0	82	0
52	1	654	1	1	3	0.0500	0.1100	1	0	1.518	0	0	82
52	1	655	0	1	3	0.0500	0.1100	0	1	0.548	8	82	82
52	1	656	0	1	1	0.0500	0.1100	1	1	0.657	7	82	0
52	1	657	1	2	1	0.0500	0.1100	1	1	0.814	54	82	0
52	1	658	1	2	3	0.0500	0.1100	0	1	0.768	58	0	0
52	1	659	0	2	1	0.0500	0.1100	1	1	0.691	7	0	82
52	1	660	0	1	1	0.0500	0.1100	0	1	0.511	8	82	82
52	1	661	9	1	3	0.0500	0.1100	0	1	0.542	0	0	0
52	1	662	1	2	3	0.0500	0.1100	0	1	0.532	82	0	0
52	1	663	0	1	3	0.0500	0.1100	0	1	0.382	10	82	82
52	1	664	0	1	3	0.0500	0.1100	0	1	0.433	9	82	82
52	1	665	1	1	1	0.0500	0.1100	1	0	0.563	0	0	82
52	1	666	1	2	2	0.0500	0.1100	1	0	0.415	0	82	0
52	1	667	1	2	3	0.0500	0.1100	1	1	0.513	84	82	0
52	1	668	1	1	2	0.0500	0.1100	0	1	0.631	72	0	0
52	1	669	1	2	3	0.0500	0.1100	0	1	0.663	69	0	0
52	1	670	0	1	1	0.0500	0.1100	1	0	0.702	0	82	0
52	1	671	0	1	1	0.0500	0.1100	0	1	0.546	8	82	82
52	1	672	0	2	3	0.0500	0.1100	0	1	0.576	8	82	82
52	1	673	0	1	1	0.0500	0.1100	0	1	0.451	9	82	82
52	1	674	0	2	1	0.0500	0.1100	1	0	0.331	0	0	82
52	1	675	1	2	2	0.0500	0.1100	1	1	0.511	84	82	0
52	1	676	1	2	2	0.0500	0.1100	0	1	0.317	100	0	0
52	1	677	0	1	2	0.0500	0.1100	1	1	0.826	5	82	0
52	1	678	9	2	3	0.0500	0.1100	0	1	0.435	0	82	82
52	1	679	1	2	3	0.0500	0.1100	1	0	0.612	0	82	0
52	1	680	0	1	1	0.0500	0.1100	0	1	0.463	9	82	82
52	1	681	9	2	2	0.0500	0.1100	1	1	0.455	0	82	0
52	1	682	9	2	3	0.0500	0.1100	1	1	0.488	0	82	0
52	1	683	0	1	1	0.0500	0.1100	0	1	0.340	10	82	82
52	1	684	1	1	1	0.0500	0.1100	1	0	0.296	0	0	82
52	1	685	0	1	2	0.0500	0.1100	0	1	0.623	7	82	82
52	1	686	1	2	2	0.0500	0.1100	0	1	0.431	92	0	0
52	1	687	0	2	3	0.0500	0.1100	0	1	0.416	9	82	82
52	1	688	1	2	1	0.0500	0.1100	0	1	0.513	84	0	0
52	1	689	9	2	2	0.0500	0.1100	0	1	0.431	0	0	0
52	1	690	1	1	1	0.0500	0.1100	1	1	0.525	82	0	82
52	1	691	0	1	3	0.0500	0.1100	1	0	0.626	0	82	0
52	1	692	1	2	3	0.0500	0.1100	0	1	0.544	81	0	0
52	1	693	0	1	3	0.0500	0.1100	0	1	0.429	9	82	82
52	1	694	1	1	3	0.0500	0.1100	1	1	0.564	79	0	82
52	1	695	0	2	2	0.0500	0.1100	1	1	0.455	9	0	82
52	1	696	0	1	1	0.0500	0.1100	0	1	0.359	10	82	82
52	1	697	0	1	3	0.0500	0.1100	0	1	0.563	8	82	82
52	1	698	0	2	2	0.0500	0.1100	0	1	0.430	9	82	82
52	1	699	0	2	2	0.0500	0.1100	1	1	0.477	9	0	82
52	1	700	9	1	2	0.0500	0.1100	1	1	0.819	0	0	82
52	1	701	0	2	2	0.0500	0.1100	0	1	0.429	9	82	82
52	1	702	0	1	3	0.0500	0.1100	1	1	0.612	7	82	0
52	1	703	1	2	2	0.0500	0.1100	1	1	0.525	82	82	0
52	1	704	1	2	3	0.0500	0.1100	1	1	0.432	92	82	0
52	1	705	9	1	3	0.0500	0.1100	0	1	0.648	0	0	0
52	1	706	9	2	1	0.0500	0.1100	0	1	0.568	0	0	0
52	1	707	0	2	3	0.0500	0.1100	0	0	0.609	0	82	82
52	1	708	1	2	3	0.0500	0.1100	1	1	0.586	76	82	0
52	1	709	0	2	2	0.0500	0.1100	1	1	0.486	9	0	82
52	1	710	0	2	2	0.0500	0.1100	0	1	0.356	10	82	82
52	1	711	1	2	3	0.0500	0.1100	0	1	0.430	92	0	0
52	1	712	9	1	3	0.0500	0.1100	1	0	0.647	0	82	0
52	1	713	9	1	3	0.0500	0.1100	0	1	0.685	0	0	0
52	1	714	9	2	3	0.0500	0.1100	1	1	0.509	0	82	0
52	1	715	9	2	3	0.0500	0.1100	0	1	0.511	0	0	0
52	1	716	1	2	2	0.0500	0.1100	0	1	0.540	81	0	0
52	1	717	1	1	3	0.0500	0.1100	0	1	0.584	77	0	0
52	1	718	0	2	2	0.0500	0.1100	0	1	0.404	9	82	82
52	1	719	0	2	2	0.0500	0.1100	1	1	0.716	6	0	82
52	1	720	9	1	1	0.0500	0.1100	0	1	0.657	0	82	82
