sub	sess	t	rew	loc	cue	co1	co2	or	resp	rt	rew_tot	left_col	right_col
119	1	1	0	1	2	0.0877	0.0500	0	1	0.818	5	0	0
119	1	2	0	1	3	0.0877	0.0500	0	0	0.425	0	0	0
119	1	3	1	2	1	0.0877	0.0500	0	1	0.496	85	82	82
119	1	4	0	1	3	0.0877	0.0500	0	1	0.600	7	0	0
119	1	5	0	2	2	0.0877	0.0500	0	1	0.455	9	0	0
119	1	6	0	1	3	0.0877	0.0500	1	1	0.468	9	0	82
119	1	7	0	2	2	0.0877	0.0500	0	1	0.609	7	0	0
119	1	8	9	2	3	0.0877	0.0500	1	1	0.544	0	0	82
119	1	9	0	1	1	0.0877	0.0500	0	1	0.568	8	0	0
119	1	10	0	1	3	0.0877	0.0500	0	1	0.534	8	0	0
119	1	11	1	1	1	0.0877	0.0500	1	0	0.725	0	82	0
119	1	12	0	1	2	0.0877	0.0500	0	1	0.619	7	0	0
119	1	13	1	1	3	0.0877	0.0500	0	1	0.569	78	82	82
119	1	14	1	1	1	0.0877	0.0500	0	1	0.466	88	82	82
119	1	15	1	2	2	0.0877	0.0500	1	1	0.481	87	0	82
119	1	16	0	2	3	0.0877	0.0500	1	1	0.622	7	82	0
119	1	17	1	1	3	0.0877	0.0500	1	1	0.572	78	82	0
119	1	18	0	2	2	0.0877	0.0500	0	1	0.650	7	0	0
119	1	19	1	1	3	0.0877	0.0500	1	0	0.645	0	82	0
119	1	20	0	2	3	0.0877	0.0500	1	1	0.508	8	82	0
119	1	21	0	1	1	0.0877	0.0500	1	0	0.659	0	0	82
119	1	22	1	2	1	0.0877	0.0500	1	1	0.510	84	0	82
119	1	23	9	2	3	0.0877	0.0500	0	1	0.528	0	0	0
119	1	24	0	1	1	0.0877	0.0500	0	1	0.483	9	0	0
119	1	25	1	1	3	0.0877	0.0500	1	1	0.614	74	82	0
119	1	26	1	1	3	0.0877	0.0500	0	0	0.568	0	82	82
119	1	27	1	2	2	0.0877	0.0500	0	0	0.562	0	82	82
119	1	28	1	1	3	0.0877	0.0500	1	0	0.752	0	82	0
119	1	29	0	1	3	0.0877	0.0500	0	1	0.532	8	0	0
119	1	30	1	1	3	0.0877	0.0500	0	1	0.658	69	82	82
119	1	31	1	1	1	0.0877	0.0500	1	1	0.847	50	82	0
119	1	32	9	2	3	0.0877	0.0500	1	1	0.610	0	0	82
119	1	33	0	2	2	0.0877	0.0500	0	1	0.510	8	0	0
119	1	34	1	1	3	0.0877	0.0500	0	1	0.787	56	82	82
119	1	35	0	2	3	0.0877	0.0500	1	0	0.648	0	82	0
119	1	36	1	2	3	0.0877	0.0500	1	1	0.637	71	0	82
119	1	37	0	1	2	0.0877	0.0500	0	1	0.706	6	0	0
119	1	38	9	1	3	0.0877	0.0500	0	1	0.819	0	0	0
119	1	39	9	2	2	0.0877	0.0500	1	1	0.758	0	82	0
119	1	40	1	1	1	0.0877	0.0500	1	1	0.677	67	82	0
119	1	41	1	1	3	0.0877	0.0500	0	1	0.678	67	82	82
119	1	42	1	2	1	0.0877	0.0500	0	1	0.506	84	82	82
119	1	43	1	1	1	0.0877	0.0500	1	1	0.536	81	82	0
119	1	44	1	1	3	0.0877	0.0500	0	0	0.583	0	82	82
119	1	45	0	2	2	0.0877	0.0500	0	1	0.460	9	0	0
119	1	46	9	1	3	0.0877	0.0500	0	1	0.628	0	82	82
119	1	47	0	1	3	0.0877	0.0500	0	1	0.574	8	0	0
119	1	48	0	1	1	0.0877	0.0500	1	1	0.486	9	0	82
119	1	49	0	1	3	0.0877	0.0500	0	1	0.526	8	0	0
119	1	50	1	1	1	0.0877	0.0500	1	1	0.507	84	82	0
119	1	51	1	2	3	0.0877	0.0500	1	1	0.551	80	0	82
119	1	52	9	2	2	0.0877	0.0500	1	1	0.701	0	82	0
119	1	53	1	1	1	0.0877	0.0500	1	1	0.529	82	82	0
119	1	54	1	1	1	0.0877	0.0500	0	1	0.621	73	82	82
119	1	55	1	2	2	0.0877	0.0500	1	1	0.718	63	0	82
119	1	56	9	2	2	0.0877	0.0500	1	1	0.646	0	0	82
119	1	57	0	1	3	0.0877	0.0500	1	1	0.540	8	0	82
119	1	58	1	2	3	0.0877	0.0500	1	1	0.691	66	0	82
119	1	59	0	2	3	0.0877	0.0500	1	1	0.731	6	82	0
119	1	60	0	2	1	0.0877	0.0500	1	1	0.586	8	82	0
119	1	61	1	2	2	0.0877	0.0500	1	1	0.699	65	0	82
119	1	62	1	2	3	0.0877	0.0500	0	1	0.546	80	82	82
119	1	63	1	1	1	0.0877	0.0500	0	1	0.638	71	82	82
119	1	64	9	1	1	0.0877	0.0500	1	1	0.700	0	82	0
119	1	65	1	1	1	0.0877	0.0500	0	1	0.630	72	82	82
119	1	66	0	2	3	0.0877	0.0500	0	1	0.563	8	0	0
119	1	67	0	2	2	0.0877	0.0500	0	1	0.534	8	0	0
119	1	68	1	2	2	0.0877	0.0500	0	1	0.604	75	82	82
119	1	69	0	2	3	0.0877	0.0500	1	1	0.521	8	82	0
119	1	70	0	1	1	0.0877	0.0500	1	0	0.646	0	0	82
119	1	71	0	1	1	0.0877	0.0500	0	1	0.586	8	0	0
119	1	72	1	2	2	0.0877	0.0500	0	1	0.471	88	82	82
119	1	73	1	2	3	0.0877	0.0500	1	1	0.441	91	0	82
119	1	74	1	2	2	0.0877	0.0500	0	1	0.539	81	82	82
119	1	75	1	2	2	0.0877	0.0500	1	0	0.566	0	0	82
119	1	76	1	2	3	0.0877	0.0500	1	1	0.671	68	0	82
119	1	77	0	1	3	0.0877	0.0500	0	1	0.529	8	0	0
119	1	78	0	2	2	0.0877	0.0500	0	1	0.497	9	0	0
119	1	79	0	1	3	0.0877	0.0500	1	0	0.508	0	0	82
119	1	80	9	1	3	0.0877	0.0500	1	1	0.722	0	0	82
119	1	81	1	1	3	0.0877	0.0500	1	1	0.505	85	82	0
119	1	82	1	1	3	0.0877	0.0500	0	1	0.579	77	82	82
119	1	83	9	1	1	0.0877	0.0500	1	1	0.418	0	82	0
119	1	84	0	2	3	0.0877	0.0500	0	1	0.596	8	0	0
119	1	85	0	1	3	0.0877	0.0500	0	1	0.564	8	0	0
119	1	86	0	1	2	0.0877	0.0500	0	1	0.517	8	0	0
119	1	87	1	2	3	0.0877	0.0500	0	1	0.482	87	82	82
119	1	88	9	2	3	0.0877	0.0500	1	0	0.651	0	0	82
119	1	89	9	2	1	0.0877	0.0500	0	1	0.495	0	82	82
119	1	90	0	1	3	0.0877	0.0500	0	0	0.570	0	0	0
119	1	91	0	2	2	0.0877	0.0500	1	1	0.542	8	82	0
119	1	92	9	1	3	0.0877	0.0500	1	1	0.651	0	0	82
119	1	93	0	1	1	0.0877	0.0500	1	1	0.640	7	0	82
119	1	94	1	2	1	0.0877	0.0500	1	1	0.543	81	0	82
119	1	95	1	1	1	0.0877	0.0500	1	1	0.591	76	82	0
119	1	96	1	1	3	0.0877	0.0500	0	1	0.470	88	82	82
119	1	97	1	2	3	0.0877	0.0500	0	1	0.454	90	82	82
119	1	98	0	2	2	0.0877	0.0500	1	1	0.455	9	82	0
119	1	99	0	1	1	0.0877	0.0500	0	1	0.562	8	0	0
119	1	100	1	2	3	0.0877	0.0500	0	1	0.447	90	82	82
119	1	101	0	1	1	0.0877	0.0500	0	1	0.491	9	0	0
119	1	102	0	2	3	0.0877	0.0500	1	0	0.694	0	82	0
119	1	103	0	2	3	0.0877	0.0500	0	1	0.519	8	0	0
119	1	104	0	2	2	0.0877	0.0500	0	1	0.495	9	0	0
119	1	105	1	1	1	0.0877	0.0500	0	1	0.834	52	82	82
119	1	106	9	1	1	0.0877	0.0500	1	0	0.742	0	0	82
119	1	107	1	2	3	0.0877	0.0500	0	1	0.431	92	82	82
119	1	108	9	1	1	0.0877	0.0500	1	0	0.445	0	0	82
119	1	109	1	2	3	0.0877	0.0500	0	1	0.388	96	82	82
119	1	110	1	2	2	0.0877	0.0500	0	1	0.458	89	82	82
119	1	111	0	2	3	0.0877	0.0500	0	1	0.356	10	0	0
119	1	112	0	1	1	0.0877	0.0500	0	1	0.638	7	0	0
119	1	113	1	2	2	0.0877	0.0500	0	1	0.523	83	82	82
119	1	114	0	2	3	0.0877	0.0500	1	1	0.536	8	82	0
119	1	115	0	2	2	0.0877	0.0500	1	1	0.690	7	82	0
119	1	116	0	2	1	0.0877	0.0500	0	0	0.556	0	0	0
119	1	117	9	2	3	0.0877	0.0500	0	1	0.617	0	0	0
119	1	118	9	1	1	0.0877	0.0500	1	1	0.755	0	82	0
119	1	119	9	1	3	0.0877	0.0500	1	0	0.504	0	0	82
119	1	120	0	2	3	0.0877	0.0500	0	0	0.614	0	0	0
119	1	121	9	2	2	0.0877	0.0500	1	1	0.491	0	82	0
119	1	122	0	1	1	0.0877	0.0500	0	1	0.501	8	0	0
119	1	123	1	1	3	0.0877	0.0500	1	1	0.479	87	82	0
119	1	124	0	2	2	0.0877	0.0500	1	0	0.681	0	82	0
119	1	125	1	2	2	0.0877	0.0500	1	1	0.619	73	0	82
119	1	126	9	2	3	0.0877	0.0500	1	1	0.483	0	82	0
119	1	127	1	2	2	0.0877	0.0500	1	1	0.424	93	0	82
119	1	128	0	1	1	0.0877	0.0500	0	1	0.511	8	0	0
119	1	129	9	1	3	0.0877	0.0500	1	1	0.522	0	0	82
119	1	130	9	1	1	0.0877	0.0500	0	1	0.705	0	0	0
119	1	131	0	1	3	0.0877	0.0500	1	1	0.479	9	0	82
119	1	132	1	1	3	0.0877	0.0500	1	1	0.646	70	82	0
119	1	133	0	2	1	0.0877	0.0500	1	0	0.982	0	82	0
119	1	134	1	2	3	0.0877	0.0500	1	1	0.503	85	0	82
119	1	135	0	1	3	0.0877	0.0500	1	1	0.776	6	0	82
119	1	136	1	1	1	0.0877	0.0500	0	1	0.479	87	82	82
119	1	137	0	1	1	0.0877	0.0500	0	1	0.488	9	0	0
119	1	138	0	2	3	0.0877	0.0500	0	1	0.556	8	0	0
119	1	139	1	2	2	0.0877	0.0500	1	1	0.425	93	0	82
119	1	140	9	2	3	0.0877	0.0500	0	1	0.549	0	82	82
119	1	141	0	1	3	0.0877	0.0500	0	0	0.579	0	0	0
119	1	142	1	1	2	0.0877	0.0500	0	1	0.598	75	82	82
119	1	143	0	1	1	0.0877	0.0500	1	1	0.567	8	0	82
119	1	144	9	1	3	0.0877	0.0500	0	1	0.504	0	82	82
119	1	145	1	2	1	0.0877	0.0500	0	1	0.521	83	82	82
119	1	146	0	2	3	0.0877	0.0500	1	0	0.516	0	82	0
119	1	147	0	1	1	0.0877	0.0500	1	1	0.647	7	0	82
119	1	148	1	2	3	0.0877	0.0500	0	1	0.416	93	82	82
119	1	149	1	1	2	0.0877	0.0500	0	1	0.608	74	82	82
119	1	150	9	2	3	0.0877	0.0500	1	1	0.375	0	0	82
119	1	151	9	1	1	0.0877	0.0500	0	1	0.399	0	82	82
119	1	152	0	2	3	0.0877	0.0500	1	1	0.484	9	82	0
119	1	153	1	2	3	0.0877	0.0500	0	1	0.403	95	82	82
119	1	154	1	2	2	0.0877	0.0500	0	1	0.427	92	82	82
119	1	155	9	1	3	0.0877	0.0500	1	1	0.433	0	82	0
119	1	156	9	1	1	0.0877	0.0500	1	1	0.428	0	0	82
119	1	157	1	1	3	0.0877	0.0500	0	1	0.466	88	82	82
119	1	158	1	1	2	0.0877	0.0500	1	1	0.494	86	82	0
119	1	159	0	1	1	0.0877	0.0500	0	1	0.618	7	0	0
119	1	160	0	1	1	0.0877	0.0500	1	1	0.537	8	0	82
119	1	161	1	1	3	0.0877	0.0500	1	1	0.479	87	82	0
119	1	162	0	1	3	0.0877	0.0500	1	1	0.514	8	0	82
119	1	163	0	1	1	0.0877	0.0500	0	1	0.466	9	0	0
119	1	164	9	2	1	0.0877	0.0500	0	1	0.472	0	0	0
119	1	165	0	1	1	0.0877	0.0500	1	1	0.499	9	0	82
119	1	166	1	1	3	0.0877	0.0500	1	0	0.520	0	82	0
119	1	167	1	2	3	0.0877	0.0500	0	1	0.554	80	82	82
119	1	168	1	1	3	0.0877	0.0500	1	1	0.601	75	82	0
119	1	169	1	2	2	0.0877	0.0500	1	0	0.751	0	0	82
119	1	170	1	1	1	0.0877	0.0500	1	0	1.020	0	82	0
119	1	171	9	2	2	0.0877	0.0500	1	1	0.532	0	82	0
119	1	172	0	1	3	0.0877	0.0500	1	1	0.553	8	0	82
119	1	173	0	1	2	0.0877	0.0500	1	1	0.446	9	0	82
119	1	174	1	1	1	0.0877	0.0500	1	1	0.485	87	82	0
119	1	175	0	1	3	0.0877	0.0500	1	1	0.362	10	0	82
119	1	176	9	2	3	0.0877	0.0500	0	1	0.482	0	0	0
119	1	177	1	1	1	0.0877	0.0500	1	1	0.402	95	82	0
119	1	178	0	1	2	0.0877	0.0500	1	1	0.458	9	0	82
119	1	179	1	2	2	0.0877	0.0500	0	1	0.552	80	82	82
119	1	180	9	1	3	0.0877	0.0500	0	0	0.442	0	0	0
119	1	181	0	1	3	0.0877	0.0500	0	1	0.459	9	0	0
119	1	182	1	2	2	0.0877	0.0500	1	0	0.611	0	0	82
119	1	183	1	1	1	0.0877	0.0500	0	1	0.509	84	82	82
119	1	184	1	2	2	0.0877	0.0500	1	1	0.472	88	0	82
119	1	185	1	2	2	0.0877	0.0500	0	1	0.565	78	82	82
119	1	186	9	2	3	0.0877	0.0500	1	1	0.542	0	82	0
119	1	187	9	2	3	0.0877	0.0500	1	1	0.573	0	82	0
119	1	188	1	1	2	0.0877	0.0500	1	1	0.516	83	82	0
119	1	189	0	2	2	0.0877	0.0500	0	1	0.478	9	0	0
119	1	190	1	1	3	0.0877	0.0500	1	1	0.448	90	82	0
119	1	191	1	1	1	0.0877	0.0500	1	1	0.451	90	82	0
119	1	192	1	2	2	0.0877	0.0500	0	1	0.443	91	82	82
119	1	193	9	2	2	0.0877	0.0500	1	0	0.458	0	0	82
119	1	194	1	1	1	0.0877	0.0500	0	1	0.460	89	82	82
119	1	195	1	1	3	0.0877	0.0500	0	1	0.458	89	82	82
119	1	196	0	2	2	0.0877	0.0500	0	1	0.510	8	0	0
119	1	197	0	2	1	0.0877	0.0500	1	1	0.474	9	82	0
119	1	198	9	2	3	0.0877	0.0500	0	1	0.483	0	0	0
119	1	199	1	1	1	0.0877	0.0500	0	1	0.413	94	82	82
119	1	200	9	1	1	0.0877	0.0500	0	0	0.522	0	0	0
119	1	201	0	1	1	0.0877	0.0500	0	1	0.459	9	0	0
119	1	202	1	1	1	0.0877	0.0500	1	0	0.378	0	82	0
119	1	203	1	2	3	0.0877	0.0500	1	1	0.464	89	0	82
119	1	204	9	1	1	0.0877	0.0500	1	1	0.479	0	0	82
119	1	205	9	1	3	0.0877	0.0500	1	0	0.576	0	82	0
119	1	206	1	2	1	0.0877	0.0500	1	1	0.605	74	0	82
119	1	207	1	2	2	0.0877	0.0500	1	0	0.453	0	0	82
119	1	208	9	1	1	0.0877	0.0500	1	0	0.503	0	82	0
119	1	209	0	2	2	0.0877	0.0500	1	0	0.518	0	82	0
119	1	210	0	1	3	0.0877	0.0500	1	1	0.410	9	0	82
119	1	211	1	1	3	0.0877	0.0500	0	1	0.441	91	82	82
119	1	212	9	1	2	0.0877	0.0500	0	0	0.473	0	0	0
119	1	213	0	2	1	0.0877	0.0500	1	0	0.550	0	82	0
119	1	214	0	1	1	0.0877	0.0500	1	0	0.483	0	0	82
119	1	215	0	2	2	0.0877	0.0500	1	1	0.679	7	82	0
119	1	216	9	2	2	0.0877	0.0500	0	1	0.658	0	82	82
119	1	217	0	2	3	0.0877	0.0500	0	1	0.474	9	0	0
119	1	218	1	2	2	0.0877	0.0500	0	1	0.508	84	82	82
119	1	219	1	1	1	0.0877	0.0500	1	0	0.665	0	82	0
119	1	220	1	2	3	0.0877	0.0500	0	1	0.500	85	82	82
119	1	221	0	1	2	0.0877	0.0500	1	0	0.583	0	0	82
119	1	222	0	1	1	0.0877	0.0500	0	1	0.715	6	0	0
119	1	223	9	2	2	0.0877	0.0500	1	1	0.525	0	0	82
119	1	224	1	1	3	0.0877	0.0500	1	0	0.622	0	82	0
119	1	225	0	1	2	0.0877	0.0500	1	1	0.549	8	0	82
119	1	226	9	1	3	0.0877	0.0500	0	1	0.514	0	82	82
119	1	227	0	2	3	0.0877	0.0500	0	1	0.534	8	0	0
119	1	228	1	2	2	0.0877	0.0500	1	1	0.620	73	0	82
119	1	229	0	2	3	0.0877	0.0500	0	1	0.489	9	0	0
119	1	230	1	1	2	0.0877	0.0500	0	1	0.520	83	82	82
119	1	231	9	1	3	0.0877	0.0500	0	1	0.522	0	0	0
119	1	232	0	2	2	0.0877	0.0500	1	1	0.536	8	82	0
119	1	233	1	2	2	0.0877	0.0500	1	1	0.398	95	0	82
119	1	234	0	2	3	0.0877	0.0500	1	1	0.604	7	82	0
119	1	235	1	2	3	0.0877	0.0500	1	1	0.523	83	0	82
119	1	236	0	2	3	0.0877	0.0500	0	1	0.762	6	0	0
119	1	237	0	2	2	0.0877	0.0500	1	1	0.413	9	82	0
119	1	238	0	2	3	0.0877	0.0500	0	0	0.492	0	0	0
119	1	239	1	2	3	0.0877	0.0500	1	1	0.552	80	0	82
119	1	240	1	2	3	0.0877	0.0500	0	1	0.474	88	82	82
119	1	241	0	1	1	0.0877	0.0500	0	1	0.501	8	0	0
119	1	242	1	2	2	0.0877	0.0500	1	1	0.546	80	0	82
119	1	243	0	2	2	0.0877	0.0500	1	1	0.442	9	82	0
119	1	244	0	2	3	0.0877	0.0500	0	1	0.446	9	0	0
119	1	245	9	2	2	0.0877	0.0500	0	1	0.654	0	0	0
119	1	246	1	2	3	0.0877	0.0500	1	0	0.579	0	0	82
119	1	247	1	1	3	0.0877	0.0500	0	1	0.587	76	82	82
119	1	248	1	1	3	0.0877	0.0500	1	1	0.546	80	82	0
119	1	249	1	2	3	0.0877	0.0500	1	1	0.501	85	0	82
119	1	250	0	2	3	0.0877	0.0500	0	1	0.423	9	0	0
119	1	251	0	1	3	0.0877	0.0500	1	1	0.487	9	0	82
119	1	252	1	2	1	0.0877	0.0500	1	0	0.712	0	0	82
119	1	253	9	2	1	0.0877	0.0500	1	1	0.586	0	82	0
119	1	254	0	2	2	0.0877	0.0500	1	1	0.471	9	82	0
119	1	255	0	2	2	0.0877	0.0500	1	1	0.534	8	82	0
119	1	256	1	2	2	0.0877	0.0500	0	1	0.592	76	82	82
119	1	257	9	1	1	0.0877	0.0500	0	1	0.538	0	0	0
119	1	258	0	1	1	0.0877	0.0500	1	1	0.601	7	0	82
119	1	259	0	2	3	0.0877	0.0500	1	1	0.521	8	82	0
119	1	260	9	1	1	0.0877	0.0500	0	1	0.670	0	82	82
119	1	261	0	2	2	0.0877	0.0500	1	1	0.436	9	82	0
119	1	262	1	2	3	0.0877	0.0500	1	1	0.863	50	0	82
119	1	263	9	1	2	0.0877	0.0500	0	1	0.441	0	82	82
119	1	264	0	1	3	0.0877	0.0500	0	1	0.501	8	0	0
119	1	265	0	2	3	0.0877	0.0500	1	1	0.487	9	82	0
119	1	266	1	2	3	0.0877	0.0500	1	1	0.472	88	0	82
119	1	267	1	2	3	0.0877	0.0500	1	1	0.611	74	0	82
119	1	268	1	2	1	0.0877	0.0500	0	1	0.526	82	82	82
119	1	269	0	1	3	0.0877	0.0500	0	1	0.687	7	0	0
119	1	270	0	1	3	0.0877	0.0500	1	0	0.737	0	0	82
119	1	271	1	1	1	0.0877	0.0500	0	1	0.537	81	82	82
119	1	272	0	1	1	0.0877	0.0500	1	0	0.572	0	0	82
119	1	273	9	2	3	0.0877	0.0500	0	1	0.553	0	82	82
119	1	274	0	1	3	0.0877	0.0500	1	1	0.712	6	0	82
119	1	275	9	1	3	0.0877	0.0500	0	1	0.676	0	0	0
119	1	276	0	2	3	0.0877	0.0500	1	1	0.503	8	82	0
119	1	277	1	1	3	0.0877	0.0500	1	1	0.536	81	82	0
119	1	278	0	2	3	0.0877	0.0500	0	1	0.516	8	0	0
119	1	279	0	2	2	0.0877	0.0500	0	1	0.494	9	0	0
119	1	280	0	2	2	0.0877	0.0500	1	1	0.386	10	82	0
119	1	281	1	1	1	0.0877	0.0500	0	1	0.412	94	82	82
119	1	282	1	2	3	0.0877	0.0500	0	1	0.448	90	82	82
119	1	283	1	1	1	0.0877	0.0500	0	1	0.456	89	82	82
119	1	284	9	1	2	0.0877	0.0500	1	1	0.464	0	0	82
119	1	285	0	2	2	0.0877	0.0500	0	1	0.396	10	0	0
119	1	286	1	1	2	0.0877	0.0500	1	1	0.435	92	82	0
119	1	287	1	2	3	0.0877	0.0500	1	0	0.443	0	0	82
119	1	288	0	2	2	0.0877	0.0500	0	1	0.480	9	0	0
119	1	289	9	1	3	0.0877	0.0500	1	1	0.975	0	82	0
119	1	290	1	2	3	0.0877	0.0500	0	1	0.489	86	82	82
119	1	291	1	2	3	0.0877	0.0500	1	1	0.462	89	0	82
119	1	292	9	2	2	0.0877	0.0500	0	1	0.663	0	0	0
119	1	293	0	1	1	0.0877	0.0500	1	0	0.650	0	0	82
119	1	294	0	1	1	0.0877	0.0500	1	1	1.168	5	0	82
119	1	295	1	1	3	0.0877	0.0500	1	1	0.850	50	82	0
119	1	296	9	1	3	0.0877	0.0500	1	1	0.469	0	82	0
119	1	297	0	2	1	0.0877	0.0500	0	1	0.449	9	0	0
119	1	298	0	2	1	0.0877	0.0500	0	1	0.481	9	0	0
119	1	299	0	1	1	0.0877	0.0500	0	1	0.424	9	0	0
119	1	300	1	1	1	0.0877	0.0500	1	1	0.399	95	82	0
119	1	301	0	2	2	0.0877	0.0500	0	1	0.417	9	0	0
119	1	302	1	2	2	0.0877	0.0500	0	1	0.435	92	82	82
119	1	303	9	1	3	0.0877	0.0500	0	1	0.511	0	82	82
119	1	304	9	2	3	0.0877	0.0500	1	1	0.488	0	82	0
119	1	305	1	2	2	0.0877	0.0500	1	0	0.747	0	0	82
119	1	306	9	1	1	0.0877	0.0500	0	1	0.709	0	82	82
119	1	307	9	1	2	0.0877	0.0500	1	0	0.551	0	82	0
119	1	308	1	1	1	0.0877	0.0500	1	1	0.612	74	82	0
119	1	309	0	2	2	0.0877	0.0500	1	1	0.620	7	82	0
119	1	310	1	2	3	0.0877	0.0500	0	1	0.483	87	82	82
119	1	311	0	2	3	0.0877	0.0500	1	1	0.503	8	82	0
119	1	312	0	1	1	0.0877	0.0500	1	1	0.481	9	0	82
119	1	313	1	1	1	0.0877	0.0500	0	1	0.623	73	82	82
119	1	314	0	1	3	0.0877	0.0500	0	1	0.415	9	0	0
119	1	315	1	1	2	0.0877	0.0500	0	1	0.490	86	82	82
119	1	316	1	2	2	0.0877	0.0500	0	1	0.554	80	82	82
119	1	317	1	1	3	0.0877	0.0500	1	1	0.456	89	82	0
119	1	318	0	1	3	0.0877	0.0500	0	1	0.431	9	0	0
119	1	319	0	1	1	0.0877	0.0500	1	1	0.460	9	0	82
119	1	320	1	1	2	0.0877	0.0500	1	1	0.583	77	82	0
119	1	321	0	2	2	0.0877	0.0500	0	1	0.391	10	0	0
119	1	322	0	2	2	0.0877	0.0500	1	1	0.423	9	82	0
119	1	323	9	2	2	0.0877	0.0500	0	1	0.581	0	0	0
119	1	324	1	1	3	0.0877	0.0500	0	1	0.752	60	82	82
119	1	325	0	1	1	0.0877	0.0500	1	1	0.480	9	0	82
119	1	326	0	1	3	0.0877	0.0500	0	1	0.513	8	0	0
119	1	327	0	1	3	0.0877	0.0500	1	1	0.497	9	0	82
119	1	328	1	1	3	0.0877	0.0500	0	0	0.532	0	82	82
119	1	329	1	1	1	0.0877	0.0500	1	0	0.774	0	82	0
119	1	330	0	1	3	0.0877	0.0500	1	1	0.516	8	0	82
119	1	331	0	1	3	0.0877	0.0500	1	1	0.493	9	0	82
119	1	332	1	1	1	0.0877	0.0500	0	1	0.555	79	82	82
119	1	333	1	1	3	0.0877	0.0500	0	1	0.429	92	82	82
119	1	334	9	2	3	0.0877	0.0500	0	1	0.570	0	82	82
119	1	335	0	2	3	0.0877	0.0500	1	1	0.419	9	82	0
119	1	336	9	2	2	0.0877	0.0500	0	1	0.411	0	82	82
119	1	337	9	2	2	0.0877	0.0500	0	1	0.562	0	82	82
119	1	338	0	2	2	0.0877	0.0500	0	1	0.510	8	0	0
119	1	339	9	1	1	0.0877	0.0500	0	0	0.548	0	82	82
119	1	340	9	2	1	0.0877	0.0500	1	1	0.470	0	0	82
119	1	341	1	2	2	0.0877	0.0500	0	1	0.471	88	82	82
119	1	342	0	2	3	0.0877	0.0500	0	1	0.467	9	0	0
119	1	343	0	1	1	0.0877	0.0500	0	1	0.473	9	0	0
119	1	344	1	2	3	0.0877	0.0500	0	1	0.439	91	82	82
119	1	345	9	2	2	0.0877	0.0500	0	1	0.364	0	82	82
119	1	346	1	1	3	0.0877	0.0500	0	0	0.507	0	82	82
119	1	347	1	2	2	0.0877	0.0500	0	1	0.388	96	82	82
119	1	348	1	2	2	0.0877	0.0500	1	1	0.659	69	0	82
119	1	349	1	2	3	0.0877	0.0500	0	1	0.459	89	82	82
119	1	350	0	2	3	0.0877	0.0500	0	1	0.457	9	0	0
119	1	351	1	1	1	0.0877	0.0500	0	1	0.439	91	82	82
119	1	352	9	2	3	0.0877	0.0500	0	1	0.346	0	82	82
119	1	353	9	2	2	0.0877	0.0500	1	0	0.483	0	0	82
119	1	354	0	1	3	0.0877	0.0500	1	1	0.597	8	0	82
119	1	355	0	2	1	0.0877	0.0500	0	1	0.506	8	0	0
119	1	356	1	1	1	0.0877	0.0500	0	1	0.593	76	82	82
119	1	357	0	2	2	0.0877	0.0500	1	1	0.443	9	82	0
119	1	358	9	1	1	0.0877	0.0500	0	1	0.545	0	0	0
119	1	359	0	2	3	0.0877	0.0500	1	1	0.482	9	82	0
119	1	360	9	2	2	0.0877	0.0500	0	1	0.489	0	0	0
119	1	361	0	2	2	0.0877	0.0500	1	1	0.430	9	82	0
119	1	362	9	2	2	0.0877	0.0500	1	1	0.423	0	82	0
119	1	363	1	1	3	0.0877	0.0500	1	1	0.492	86	82	0
119	1	364	9	2	2	0.0877	0.0500	0	0	0.546	0	82	82
119	1	365	1	1	1	0.0877	0.0500	0	1	0.448	90	82	82
119	1	366	0	2	1	0.0877	0.0500	0	1	0.492	9	0	0
119	1	367	0	2	3	0.0877	0.0500	0	1	0.435	9	0	0
119	1	368	9	1	1	0.0877	0.0500	1	1	0.470	0	82	0
119	1	369	9	1	1	0.0877	0.0500	0	1	0.467	0	82	82
119	1	370	0	2	2	0.0877	0.0500	1	1	0.593	8	82	0
119	1	371	1	2	2	0.0877	0.0500	1	0	0.542	0	0	82
119	1	372	1	2	3	0.0877	0.0500	0	0	0.547	0	82	82
119	1	373	0	1	2	0.0877	0.0500	0	1	0.463	9	0	0
119	1	374	0	2	2	0.0877	0.0500	1	1	0.427	9	82	0
119	1	375	0	2	3	0.0877	0.0500	1	1	0.437	9	82	0
119	1	376	9	2	3	0.0877	0.0500	1	1	0.552	0	0	82
119	1	377	1	2	2	0.0877	0.0500	0	1	0.599	75	82	82
119	1	378	0	1	1	0.0877	0.0500	0	1	0.659	7	0	0
119	1	379	0	1	3	0.0877	0.0500	0	1	0.507	8	0	0
119	1	380	9	2	3	0.0877	0.0500	1	1	0.508	0	82	0
119	1	381	0	1	3	0.0877	0.0500	0	1	0.453	9	0	0
119	1	382	0	2	2	0.0877	0.0500	0	1	0.444	9	0	0
119	1	383	1	1	1	0.0877	0.0500	0	1	0.448	90	82	82
119	1	384	1	1	1	0.0877	0.0500	0	0	0.646	0	82	82
119	1	385	0	1	3	0.0877	0.0500	1	1	0.490	9	0	82
119	1	386	0	1	3	0.0877	0.0500	1	1	0.445	9	0	82
119	1	387	9	1	3	0.0877	0.0500	0	0	0.592	0	82	82
119	1	388	9	2	3	0.0877	0.0500	0	1	0.574	0	0	0
119	1	389	1	2	1	0.0877	0.0500	1	1	0.426	92	0	82
119	1	390	1	1	3	0.0877	0.0500	1	1	0.491	86	82	0
119	1	391	9	1	3	0.0877	0.0500	1	1	0.434	0	0	82
119	1	392	0	2	3	0.0877	0.0500	1	1	0.462	9	82	0
119	1	393	0	2	2	0.0877	0.0500	0	1	0.647	7	0	0
119	1	394	0	2	2	0.0877	0.0500	0	1	0.429	9	0	0
119	1	395	1	2	3	0.0877	0.0500	0	1	0.350	100	82	82
119	1	396	0	2	3	0.0877	0.0500	0	1	0.356	10	0	0
119	1	397	0	2	2	0.0877	0.0500	1	1	0.419	9	82	0
119	1	398	0	1	2	0.0877	0.0500	0	1	0.506	8	0	0
119	1	399	0	1	1	0.0877	0.0500	1	1	0.429	9	0	82
119	1	400	1	2	2	0.0877	0.0500	1	1	0.442	91	0	82
119	1	401	9	1	3	0.0877	0.0500	0	1	0.456	0	82	82
119	1	402	1	1	1	0.0877	0.0500	1	1	0.553	80	82	0
119	1	403	0	1	1	0.0877	0.0500	1	1	0.443	9	0	82
119	1	404	1	1	3	0.0877	0.0500	1	1	0.486	86	82	0
119	1	405	9	1	3	0.0877	0.0500	1	1	0.421	0	82	0
119	1	406	1	2	2	0.0877	0.0500	1	0	0.530	0	0	82
119	1	407	1	1	2	0.0877	0.0500	0	1	0.631	72	82	82
119	1	408	1	1	2	0.0877	0.0500	0	1	0.425	93	82	82
119	1	409	9	2	2	0.0877	0.0500	0	1	0.477	0	0	0
119	1	410	1	1	3	0.0877	0.0500	0	1	0.397	95	82	82
119	1	411	9	1	1	0.0877	0.0500	1	1	0.557	0	0	82
119	1	412	0	1	1	0.0877	0.0500	0	1	0.454	9	0	0
119	1	413	0	1	2	0.0877	0.0500	1	1	0.410	9	0	82
119	1	414	0	2	2	0.0877	0.0500	1	1	0.440	9	82	0
119	1	415	9	2	3	0.0877	0.0500	1	1	0.401	0	0	82
119	1	416	9	1	3	0.0877	0.0500	0	1	0.496	0	82	82
119	1	417	1	1	1	0.0877	0.0500	0	1	0.527	82	82	82
119	1	418	0	1	3	0.0877	0.0500	1	1	0.519	8	0	82
119	1	419	1	1	1	0.0877	0.0500	0	1	0.512	84	82	82
119	1	420	0	1	3	0.0877	0.0500	0	1	0.417	9	0	0
119	1	421	0	2	2	0.0877	0.0500	1	1	0.379	10	82	0
119	1	422	0	2	1	0.0877	0.0500	0	1	0.389	10	0	0
119	1	423	0	1	1	0.0877	0.0500	0	1	0.395	10	0	0
119	1	424	1	1	1	0.0877	0.0500	0	1	0.414	94	82	82
119	1	425	1	1	2	0.0877	0.0500	1	1	0.430	92	82	0
119	1	426	1	1	3	0.0877	0.0500	1	1	0.423	93	82	0
119	1	427	0	1	2	0.0877	0.0500	0	1	0.623	7	0	0
119	1	428	9	1	3	0.0877	0.0500	1	1	0.417	0	82	0
119	1	429	0	2	2	0.0877	0.0500	0	1	0.540	8	0	0
119	1	430	1	2	3	0.0877	0.0500	1	0	0.508	0	0	82
119	1	431	9	1	1	0.0877	0.0500	0	0	0.407	0	82	82
119	1	432	0	1	1	0.0877	0.0500	1	1	0.430	9	0	82
119	1	433	1	2	2	0.0877	0.0500	0	0	0.552	0	82	82
119	1	434	0	2	2	0.0877	0.0500	0	1	0.507	8	0	0
119	1	435	1	2	1	0.0877	0.0500	1	1	0.476	87	0	82
119	1	436	1	2	2	0.0877	0.0500	1	1	0.472	88	0	82
119	1	437	0	2	3	0.0877	0.0500	1	1	0.462	9	82	0
119	1	438	1	2	3	0.0877	0.0500	1	1	0.348	100	0	82
119	1	439	1	2	2	0.0877	0.0500	0	1	0.446	90	82	82
119	1	440	9	2	3	0.0877	0.0500	0	1	0.494	0	82	82
119	1	441	1	2	1	0.0877	0.0500	0	1	0.415	94	82	82
119	1	442	0	2	3	0.0877	0.0500	0	1	0.397	10	0	0
119	1	443	1	1	1	0.0877	0.0500	1	0	0.404	0	82	0
119	1	444	0	2	3	0.0877	0.0500	1	1	0.517	8	82	0
119	1	445	1	1	2	0.0877	0.0500	0	1	0.488	86	82	82
119	1	446	1	2	2	0.0877	0.0500	0	0	0.687	0	82	82
119	1	447	0	1	3	0.0877	0.0500	0	1	1.369	5	0	0
119	1	448	1	2	2	0.0877	0.0500	0	0	0.765	0	82	82
119	1	449	0	2	3	0.0877	0.0500	0	1	0.910	5	0	0
119	1	450	9	2	2	0.0877	0.0500	0	0	0.559	0	0	0
119	1	451	0	1	1	0.0877	0.0500	0	0	0.893	0	0	0
119	1	452	9	1	1	0.0877	0.0500	0	1	0.537	0	0	0
119	1	453	0	1	3	0.0877	0.0500	1	1	0.480	9	0	82
119	1	454	0	2	2	0.0877	0.0500	0	1	0.601	7	0	0
119	1	455	1	2	2	0.0877	0.0500	1	1	0.393	96	0	82
119	1	456	0	1	1	0.0877	0.0500	1	1	0.719	6	0	82
119	1	457	0	2	2	0.0877	0.0500	0	1	0.356	10	0	0
119	1	458	1	1	3	0.0877	0.0500	0	1	0.528	82	82	82
119	1	459	1	1	3	0.0877	0.0500	1	0	0.627	0	82	0
119	1	460	9	1	3	0.0877	0.0500	1	1	0.490	0	0	82
119	1	461	1	1	1	0.0877	0.0500	0	1	0.380	97	82	82
119	1	462	9	2	2	0.0877	0.0500	0	1	0.406	0	82	82
119	1	463	0	2	3	0.0877	0.0500	1	1	0.420	9	82	0
119	1	464	1	2	2	0.0877	0.0500	1	1	0.491	86	0	82
119	1	465	1	1	1	0.0877	0.0500	1	1	0.492	86	82	0
119	1	466	1	2	3	0.0877	0.0500	0	1	0.380	97	82	82
119	1	467	1	1	3	0.0877	0.0500	1	1	0.465	89	82	0
119	1	468	1	2	1	0.0877	0.0500	0	1	0.420	93	82	82
119	1	469	1	2	2	0.0877	0.0500	1	1	0.432	92	0	82
119	1	470	0	2	1	0.0877	0.0500	0	1	0.467	9	0	0
119	1	471	9	2	2	0.0877	0.0500	1	1	0.379	0	0	82
119	1	472	9	2	3	0.0877	0.0500	0	1	0.427	0	0	0
119	1	473	1	1	1	0.0877	0.0500	1	0	0.545	0	82	0
119	1	474	9	2	3	0.0877	0.0500	1	1	0.397	0	82	0
119	1	475	1	1	3	0.0877	0.0500	1	0	0.464	0	82	0
119	1	476	0	2	2	0.0877	0.0500	0	1	0.610	7	0	0
119	1	477	1	1	1	0.0877	0.0500	1	1	0.479	87	82	0
119	1	478	0	2	2	0.0877	0.0500	1	1	0.442	9	82	0
119	1	479	9	2	2	0.0877	0.0500	0	1	0.492	0	0	0
119	1	480	1	2	2	0.0877	0.0500	0	1	0.453	90	82	82
119	1	481	0	1	3	0.0877	0.0500	0	0	0.484	0	0	0
119	1	482	9	1	1	0.0877	0.0500	0	1	0.463	0	82	82
119	1	483	9	2	1	0.0877	0.0500	0	1	0.444	0	0	0
119	1	484	1	2	3	0.0877	0.0500	1	0	0.401	0	0	82
119	1	485	0	1	1	0.0877	0.0500	1	1	0.458	9	0	82
119	1	486	1	2	2	0.0877	0.0500	0	1	0.468	88	82	82
119	1	487	0	1	1	0.0877	0.0500	0	0	0.423	0	0	0
119	1	488	0	1	3	0.0877	0.0500	1	1	0.403	9	0	82
119	1	489	0	1	3	0.0877	0.0500	0	0	0.493	0	0	0
119	1	490	0	2	3	0.0877	0.0500	0	1	0.481	9	0	0
119	1	491	9	2	1	0.0877	0.0500	1	1	0.465	0	82	0
119	1	492	1	2	3	0.0877	0.0500	1	1	0.523	83	0	82
119	1	493	0	1	3	0.0877	0.0500	1	1	0.587	8	0	82
119	1	494	1	1	3	0.0877	0.0500	1	1	0.522	83	82	0
119	1	495	1	1	1	0.0877	0.0500	0	0	0.585	0	82	82
119	1	496	0	2	3	0.0877	0.0500	1	1	0.533	8	82	0
119	1	497	0	1	2	0.0877	0.0500	1	1	0.486	9	0	82
119	1	498	0	2	3	0.0877	0.0500	1	1	0.538	8	82	0
119	1	499	0	1	3	0.0877	0.0500	0	0	0.534	0	0	0
119	1	500	1	2	3	0.0877	0.0500	0	1	0.420	93	82	82
119	1	501	0	2	2	0.0877	0.0500	0	1	0.468	9	0	0
119	1	502	1	1	1	0.0877	0.0500	1	1	0.485	87	82	0
119	1	503	1	2	3	0.0877	0.0500	0	1	0.418	93	82	82
119	1	504	9	2	3	0.0877	0.0500	0	1	0.418	0	82	82
119	1	505	1	1	1	0.0877	0.0500	0	1	0.396	95	82	82
119	1	506	0	2	3	0.0877	0.0500	1	1	0.410	9	82	0
119	1	507	0	1	1	0.0877	0.0500	1	1	0.429	9	0	82
119	1	508	1	2	3	0.0877	0.0500	0	1	0.324	100	82	82
119	1	509	9	2	2	0.0877	0.0500	1	1	0.416	0	82	0
119	1	510	1	2	3	0.0877	0.0500	1	1	0.394	96	0	82
119	1	511	0	2	1	0.0877	0.0500	1	1	0.494	9	82	0
119	1	512	1	1	1	0.0877	0.0500	1	0	0.502	0	82	0
119	1	513	9	1	1	0.0877	0.0500	1	1	0.473	0	0	82
119	1	514	9	2	2	0.0877	0.0500	0	1	0.410	0	82	82
119	1	515	1	1	1	0.0877	0.0500	1	1	0.428	92	82	0
119	1	516	0	2	3	0.0877	0.0500	1	1	0.501	8	82	0
119	1	517	1	2	2	0.0877	0.0500	1	1	0.571	78	0	82
119	1	518	9	2	1	0.0877	0.0500	0	1	0.457	0	82	82
119	1	519	1	2	2	0.0877	0.0500	1	1	0.413	94	0	82
119	1	520	0	1	1	0.0877	0.0500	0	0	0.494	0	0	0
119	1	521	9	1	1	0.0877	0.0500	1	1	0.501	0	82	0
119	1	522	0	1	3	0.0877	0.0500	1	1	0.520	8	0	82
119	1	523	0	2	3	0.0877	0.0500	1	0	0.388	0	82	0
119	1	524	1	1	3	0.0877	0.0500	1	1	0.415	94	82	0
119	1	525	0	2	3	0.0877	0.0500	0	1	0.454	9	0	0
119	1	526	9	1	1	0.0877	0.0500	1	1	0.419	0	0	82
119	1	527	9	1	3	0.0877	0.0500	0	1	0.471	0	82	82
119	1	528	1	2	3	0.0877	0.0500	1	0	0.642	0	0	82
119	1	529	1	1	1	0.0877	0.0500	1	1	0.471	88	82	0
119	1	530	9	2	3	0.0877	0.0500	0	1	0.404	0	0	0
119	1	531	0	1	1	0.0877	0.0500	1	1	0.490	9	0	82
119	1	532	1	1	1	0.0877	0.0500	1	1	0.418	93	82	0
119	1	533	9	2	2	0.0877	0.0500	0	1	0.401	0	0	0
119	1	534	0	1	3	0.0877	0.0500	0	1	0.361	10	0	0
119	1	535	9	1	2	0.0877	0.0500	0	1	0.376	0	0	0
119	1	536	1	1	2	0.0877	0.0500	1	1	0.426	92	82	0
119	1	537	9	1	3	0.0877	0.0500	0	1	0.448	0	0	0
119	1	538	1	1	3	0.0877	0.0500	1	1	0.427	92	82	0
119	1	539	0	2	2	0.0877	0.0500	0	1	0.471	9	0	0
119	1	540	0	1	1	0.0877	0.0500	1	1	0.331	10	0	82
119	1	541	0	1	3	0.0877	0.0500	0	1	0.434	9	0	0
119	1	542	1	2	3	0.0877	0.0500	0	1	0.438	91	82	82
119	1	543	1	1	1	0.0877	0.0500	1	1	0.370	98	82	0
119	1	544	9	1	1	0.0877	0.0500	0	1	0.615	0	0	0
119	1	545	0	1	1	0.0877	0.0500	0	1	0.433	9	0	0
119	1	546	1	2	3	0.0877	0.0500	1	1	0.440	91	0	82
119	1	547	0	1	2	0.0877	0.0500	1	1	0.382	10	0	82
119	1	548	0	2	2	0.0877	0.0500	1	1	0.352	10	82	0
119	1	549	1	1	1	0.0877	0.0500	0	1	0.425	93	82	82
119	1	550	1	2	3	0.0877	0.0500	1	1	0.386	96	0	82
119	1	551	0	2	3	0.0877	0.0500	0	1	0.385	10	0	0
119	1	552	1	2	3	0.0877	0.0500	0	1	0.410	94	82	82
119	1	553	1	2	3	0.0877	0.0500	1	1	0.478	87	0	82
119	1	554	1	1	2	0.0877	0.0500	1	1	0.463	89	82	0
119	1	555	0	2	1	0.0877	0.0500	0	1	0.365	10	0	0
119	1	556	9	2	3	0.0877	0.0500	1	1	0.496	0	82	0
119	1	557	1	2	2	0.0877	0.0500	1	1	0.379	97	0	82
119	1	558	0	2	2	0.0877	0.0500	1	1	0.486	9	82	0
119	1	559	1	2	2	0.0877	0.0500	0	1	0.479	87	82	82
119	1	560	1	2	2	0.0877	0.0500	1	1	0.341	100	0	82
119	1	561	1	2	2	0.0877	0.0500	0	1	8.263	50	82	82
119	1	562	0	2	3	0.0877	0.0500	1	1	0.415	9	82	0
119	1	563	9	1	1	0.0877	0.0500	1	1	0.605	0	82	0
119	1	564	9	1	1	0.0877	0.0500	0	1	0.391	0	82	82
119	1	565	9	2	2	0.0877	0.0500	0	1	0.351	0	82	82
119	1	566	0	1	2	0.0877	0.0500	0	1	0.321	10	0	0
119	1	567	0	2	2	0.0877	0.0500	0	1	0.323	10	0	0
119	1	568	9	1	2	0.0877	0.0500	0	1	0.348	0	82	82
119	1	569	0	2	3	0.0877	0.0500	0	1	0.327	10	0	0
119	1	570	9	2	3	0.0877	0.0500	0	1	0.361	0	82	82
119	1	571	1	1	3	0.0877	0.0500	1	1	0.342	100	82	0
119	1	572	1	1	1	0.0877	0.0500	1	0	0.349	0	82	0
119	1	573	1	2	3	0.0877	0.0500	0	1	0.422	93	82	82
119	1	574	0	1	1	0.0877	0.0500	0	1	0.466	9	0	0
119	1	575	0	1	3	0.0877	0.0500	1	1	0.325	10	0	82
119	1	576	0	1	1	0.0877	0.0500	0	1	0.430	9	0	0
119	1	577	1	1	3	0.0877	0.0500	0	1	0.290	100	82	82
119	1	578	9	2	2	0.0877	0.0500	1	1	0.473	0	82	0
119	1	579	1	2	1	0.0877	0.0500	1	1	0.408	94	0	82
119	1	580	1	2	3	0.0877	0.0500	0	1	0.393	96	82	82
119	1	581	1	2	2	0.0877	0.0500	0	1	0.426	92	82	82
119	1	582	9	2	2	0.0877	0.0500	1	1	0.409	0	0	82
119	1	583	1	2	3	0.0877	0.0500	1	0	0.514	0	0	82
119	1	584	1	1	1	0.0877	0.0500	0	1	0.391	96	82	82
119	1	585	0	1	1	0.0877	0.0500	0	1	0.370	10	0	0
119	1	586	0	2	2	0.0877	0.0500	0	1	0.371	10	0	0
119	1	587	1	1	3	0.0877	0.0500	0	1	0.421	93	82	82
119	1	588	0	1	3	0.0877	0.0500	0	1	0.485	9	0	0
119	1	589	1	1	1	0.0877	0.0500	0	1	0.387	96	82	82
119	1	590	0	2	3	0.0877	0.0500	1	1	0.391	10	82	0
119	1	591	1	1	3	0.0877	0.0500	0	1	0.379	97	82	82
119	1	592	1	2	2	0.0877	0.0500	0	1	0.485	86	82	82
119	1	593	0	2	3	0.0877	0.0500	0	1	0.356	10	0	0
119	1	594	0	1	1	0.0877	0.0500	0	1	0.469	9	0	0
119	1	595	1	1	1	0.0877	0.0500	1	1	0.423	93	82	0
119	1	596	0	2	3	0.0877	0.0500	0	1	0.449	9	0	0
119	1	597	1	2	3	0.0877	0.0500	0	1	0.320	100	82	82
119	1	598	1	2	3	0.0877	0.0500	0	1	0.425	92	82	82
119	1	599	0	1	3	0.0877	0.0500	0	1	0.359	10	0	0
119	1	600	0	1	1	0.0877	0.0500	1	1	0.373	10	0	82
119	1	601	1	2	2	0.0877	0.0500	0	1	0.429	92	82	82
119	1	602	0	1	1	0.0877	0.0500	0	1	0.406	9	0	0
119	1	603	1	2	3	0.0877	0.0500	0	1	0.296	100	82	82
119	1	604	1	2	3	0.0877	0.0500	1	0	0.393	0	0	82
119	1	605	1	2	3	0.0877	0.0500	1	1	0.520	83	0	82
119	1	606	0	1	1	0.0877	0.0500	0	1	0.422	9	0	0
119	1	607	1	1	2	0.0877	0.0500	1	1	0.405	94	82	0
119	1	608	0	2	2	0.0877	0.0500	1	1	0.428	9	82	0
119	1	609	0	2	2	0.0877	0.0500	1	1	0.492	9	82	0
119	1	610	9	1	2	0.0877	0.0500	1	1	0.460	0	0	82
119	1	611	0	2	3	0.0877	0.0500	1	1	0.475	9	82	0
119	1	612	0	2	2	0.0877	0.0500	1	1	0.461	9	82	0
119	1	613	9	2	2	0.0877	0.0500	1	1	0.455	0	0	82
119	1	614	0	2	3	0.0877	0.0500	1	1	0.412	9	82	0
119	1	615	0	1	3	0.0877	0.0500	0	1	0.437	9	0	0
119	1	616	0	2	2	0.0877	0.0500	0	1	0.402	9	0	0
119	1	617	1	1	1	0.0877	0.0500	1	1	0.360	99	82	0
119	1	618	9	2	2	0.0877	0.0500	1	0	0.638	0	82	0
119	1	619	0	1	2	0.0877	0.0500	1	0	0.503	0	0	82
119	1	620	1	1	3	0.0877	0.0500	1	1	0.508	84	82	0
119	1	621	9	1	2	0.0877	0.0500	1	1	0.449	0	82	0
119	1	622	1	1	1	0.0877	0.0500	0	1	0.383	97	82	82
119	1	623	1	1	3	0.0877	0.0500	0	1	0.399	95	82	82
119	1	624	0	2	3	0.0877	0.0500	1	1	0.400	10	82	0
119	1	625	0	1	3	0.0877	0.0500	0	1	0.442	9	0	0
119	1	626	0	2	1	0.0877	0.0500	1	1	0.558	8	82	0
119	1	627	0	1	3	0.0877	0.0500	1	0	0.504	0	0	82
119	1	628	0	1	1	0.0877	0.0500	1	1	0.352	10	0	82
119	1	629	0	1	1	0.0877	0.0500	0	1	0.417	9	0	0
119	1	630	0	2	2	0.0877	0.0500	0	1	0.306	10	0	0
119	1	631	1	2	2	0.0877	0.0500	1	1	0.475	88	0	82
119	1	632	1	2	1	0.0877	0.0500	1	1	0.421	93	0	82
119	1	633	0	1	1	0.0877	0.0500	0	1	0.316	10	0	0
119	1	634	1	1	3	0.0877	0.0500	0	1	0.412	94	82	82
119	1	635	0	2	3	0.0877	0.0500	0	1	0.321	10	0	0
119	1	636	1	2	3	0.0877	0.0500	0	1	0.328	100	82	82
119	1	637	9	1	3	0.0877	0.0500	1	1	0.348	0	82	0
119	1	638	1	1	3	0.0877	0.0500	0	1	0.444	91	82	82
119	1	639	1	2	2	0.0877	0.0500	0	0	0.318	0	82	82
119	1	640	1	1	1	0.0877	0.0500	0	1	0.474	88	82	82
119	1	641	0	1	3	0.0877	0.0500	1	0	0.339	0	0	82
119	1	642	0	1	1	0.0877	0.0500	1	1	0.441	9	0	82
119	1	643	9	2	3	0.0877	0.0500	1	1	0.468	0	82	0
119	1	644	1	2	2	0.0877	0.0500	0	1	0.400	95	82	82
119	1	645	0	1	1	0.0877	0.0500	1	1	0.404	9	0	82
119	1	646	1	2	1	0.0877	0.0500	0	1	0.375	97	82	82
119	1	647	9	1	3	0.0877	0.0500	0	1	0.322	0	0	0
119	1	648	1	1	3	0.0877	0.0500	0	1	0.380	97	82	82
119	1	649	1	2	2	0.0877	0.0500	1	1	0.503	85	0	82
119	1	650	0	2	2	0.0877	0.0500	1	0	0.285	0	82	0
119	1	651	1	2	2	0.0877	0.0500	0	1	0.466	88	82	82
119	1	652	0	1	1	0.0877	0.0500	0	1	0.494	9	0	0
119	1	653	0	2	1	0.0877	0.0500	1	1	0.389	10	82	0
119	1	654	1	2	2	0.0877	0.0500	0	1	0.448	90	82	82
119	1	655	9	2	2	0.0877	0.0500	1	1	0.710	0	0	82
119	1	656	0	2	3	0.0877	0.0500	0	1	0.381	10	0	0
119	1	657	0	2	3	0.0877	0.0500	1	1	0.448	9	82	0
119	1	658	9	1	1	0.0877	0.0500	1	0	0.338	0	82	0
119	1	659	9	1	3	0.0877	0.0500	1	0	0.509	0	82	0
119	1	660	0	1	1	0.0877	0.0500	1	1	0.535	8	0	82
119	1	661	1	2	3	0.0877	0.0500	0	1	0.359	99	82	82
119	1	662	1	1	3	0.0877	0.0500	1	1	0.527	82	82	0
119	1	663	0	1	3	0.0877	0.0500	0	1	0.451	9	0	0
119	1	664	9	1	1	0.0877	0.0500	0	1	0.463	0	0	0
119	1	665	0	2	3	0.0877	0.0500	0	1	0.330	10	0	0
119	1	666	9	2	3	0.0877	0.0500	0	1	0.358	0	0	0
119	1	667	1	1	1	0.0877	0.0500	0	1	0.485	87	82	82
119	1	668	0	1	3	0.0877	0.0500	1	0	0.729	0	0	82
119	1	669	1	1	3	0.0877	0.0500	0	1	0.412	94	82	82
119	1	670	9	1	1	0.0877	0.0500	0	1	0.395	0	0	0
119	1	671	0	2	3	0.0877	0.0500	0	1	0.428	9	0	0
119	1	672	1	1	2	0.0877	0.0500	0	1	0.623	73	82	82
119	1	673	9	2	1	0.0877	0.0500	1	1	0.499	0	0	82
119	1	674	0	2	2	0.0877	0.0500	0	0	0.562	0	0	0
119	1	675	1	2	3	0.0877	0.0500	1	0	0.410	0	0	82
119	1	676	0	1	3	0.0877	0.0500	0	1	0.436	9	0	0
119	1	677	0	1	3	0.0877	0.0500	1	1	0.455	9	0	82
119	1	678	1	1	3	0.0877	0.0500	1	0	0.539	0	82	0
119	1	679	0	2	2	0.0877	0.0500	1	1	0.412	9	82	0
119	1	680	9	1	3	0.0877	0.0500	0	1	0.445	0	0	0
119	1	681	0	1	1	0.0877	0.0500	1	1	0.453	9	0	82
119	1	682	9	1	1	0.0877	0.0500	1	1	0.447	0	0	82
119	1	683	1	2	2	0.0877	0.0500	1	1	0.498	85	0	82
119	1	684	1	2	1	0.0877	0.0500	0	1	0.750	60	82	82
119	1	685	1	1	3	0.0877	0.0500	0	1	0.535	81	82	82
119	1	686	0	1	3	0.0877	0.0500	1	0	0.427	0	0	82
119	1	687	1	2	2	0.0877	0.0500	1	1	0.471	88	0	82
119	1	688	0	1	1	0.0877	0.0500	1	1	0.455	9	0	82
119	1	689	0	1	3	0.0877	0.0500	1	1	0.396	10	0	82
119	1	690	0	1	3	0.0877	0.0500	1	0	0.426	0	0	82
119	1	691	1	1	1	0.0877	0.0500	1	1	0.396	95	82	0
119	1	692	0	2	3	0.0877	0.0500	0	1	0.474	9	0	0
119	1	693	1	1	3	0.0877	0.0500	1	1	0.434	92	82	0
119	1	694	1	1	3	0.0877	0.0500	0	1	0.567	78	82	82
119	1	695	1	1	3	0.0877	0.0500	0	1	0.389	96	82	82
119	1	696	1	2	2	0.0877	0.0500	1	1	0.422	93	0	82
119	1	697	1	1	3	0.0877	0.0500	1	1	0.492	86	82	0
119	1	698	0	2	2	0.0877	0.0500	1	1	0.452	9	82	0
119	1	699	1	1	3	0.0877	0.0500	0	1	0.348	100	82	82
119	1	700	1	1	3	0.0877	0.0500	0	1	0.417	93	82	82
119	1	701	9	1	3	0.0877	0.0500	1	1	0.643	0	0	82
119	1	702	0	1	1	0.0877	0.0500	1	0	0.474	0	0	82
119	1	703	0	2	2	0.0877	0.0500	0	1	0.388	10	0	0
119	1	704	1	2	3	0.0877	0.0500	1	1	0.422	93	0	82
119	1	705	1	2	3	0.0877	0.0500	1	1	0.407	94	0	82
119	1	706	0	1	3	0.0877	0.0500	1	1	0.628	7	0	82
119	1	707	0	1	3	0.0877	0.0500	0	1	0.429	9	0	0
119	1	708	1	1	1	0.0877	0.0500	0	1	0.410	94	82	82
119	1	709	0	2	2	0.0877	0.0500	1	1	0.391	10	82	0
119	1	710	1	1	3	0.0877	0.0500	0	1	0.429	92	82	82
119	1	711	0	2	3	0.0877	0.0500	0	1	0.403	9	0	0
119	1	712	1	1	1	0.0877	0.0500	1	1	0.451	90	82	0
119	1	713	1	2	3	0.0877	0.0500	0	1	0.302	100	82	82
119	1	714	0	2	1	0.0877	0.0500	1	1	0.361	10	82	0
119	1	715	9	1	3	0.0877	0.0500	0	0	0.496	0	0	0
119	1	716	9	2	3	0.0877	0.0500	0	1	0.428	0	82	82
119	1	717	1	2	3	0.0877	0.0500	1	1	0.404	95	0	82
119	1	718	9	1	3	0.0877	0.0500	1	1	0.407	0	0	82
119	1	719	9	2	3	0.0877	0.0500	1	1	0.360	0	0	82
119	1	720	9	2	3	0.0877	0.0500	1	1	0.443	0	0	82
