sub	sess	t	loc	cue	co1	co2	or	resp	rt
119	1	1	1	2	0.0877	0.0500	0	1	2.986
119	1	2	2	3	0.0877	0.0500	1	1	0.872
119	1	3	1	1	0.0877	0.0500	1	1	0.808
119	1	4	1	3	0.0877	0.0500	0	1	0.664
119	1	5	2	2	0.0877	0.0500	0	1	0.923
119	1	6	2	3	0.0877	0.0500	0	1	0.774
119	1	7	2	3	0.0877	0.0500	1	1	0.615
119	1	8	1	1	0.0877	0.0500	1	1	0.868
119	1	9	1	1	0.0877	0.0500	0	1	0.526
119	1	10	2	2	0.0877	0.0500	1	1	0.754
119	1	11	2	2	0.0877	0.0500	0	1	0.857
119	1	12	2	1	0.0877	0.0500	0	1	0.690
119	1	13	2	2	0.0877	0.0500	0	1	0.679
119	1	14	1	3	0.0877	0.0500	1	1	0.675
119	1	15	1	1	0.0877	0.0500	0	1	0.753
119	1	16	2	1	0.0877	0.0500	0	1	0.709
119	1	17	1	2	0.0877	0.0500	0	1	0.819
119	1	18	2	3	0.0877	0.0500	1	1	0.495
119	1	19	2	3	0.0877	0.0500	0	1	0.620
119	1	20	1	1	0.0877	0.0500	1	1	0.542
119	1	21	2	3	0.0877	0.0500	1	1	0.634
119	1	22	1	1	0.0877	0.0500	0	1	0.548
119	1	23	2	3	0.0877	0.0500	0	1	0.747
119	1	24	1	1	0.0877	0.0500	0	0	0.669
119	1	25	1	1	0.0877	0.0500	0	1	0.682
119	1	26	1	2	0.0877	0.0500	1	1	0.581
119	1	27	2	2	0.0877	0.0500	0	1	0.744
119	1	28	2	3	0.0877	0.0500	0	1	0.465
119	1	29	2	1	0.0877	0.0500	1	1	0.510
119	1	30	1	3	0.0877	0.0500	1	1	0.688
119	1	31	1	3	0.0877	0.0500	1	1	0.487
119	1	32	2	2	0.0877	0.0500	0	1	0.527
119	1	33	1	1	0.0877	0.0500	1	1	0.495
119	1	34	1	3	0.0877	0.0500	0	1	0.593
119	1	35	2	2	0.0877	0.0500	0	1	0.547
119	1	36	1	1	0.0877	0.0500	1	1	0.528
119	1	37	2	2	0.0877	0.0500	1	1	0.489
119	1	38	1	1	0.0877	0.0500	1	1	0.534
119	1	39	2	2	0.0877	0.0500	1	1	0.507
119	1	40	2	2	0.0877	0.0500	1	1	0.473
119	1	41	1	3	0.0877	0.0500	1	1	0.488
119	1	42	1	1	0.0877	0.0500	1	1	0.467
119	1	43	2	2	0.0877	0.0500	0	1	0.630
119	1	44	2	2	0.0877	0.0500	1	1	0.452
119	1	45	1	3	0.0877	0.0500	0	1	0.585
119	1	46	2	2	0.0877	0.0500	1	1	0.473
119	1	47	1	1	0.0877	0.0500	0	1	0.495
119	1	48	1	1	0.0877	0.0500	1	1	0.508
119	1	49	1	1	0.0877	0.0500	0	1	0.439
119	1	50	2	2	0.0877	0.0500	1	1	0.452
119	1	51	2	2	0.0877	0.0500	0	1	0.666
119	1	52	1	2	0.0877	0.0500	1	1	0.436
119	1	53	1	3	0.0877	0.0500	0	1	0.478
119	1	54	1	1	0.0877	0.0500	0	1	0.584
119	1	55	2	2	0.0877	0.0500	1	0	0.650
119	1	56	2	1	0.0877	0.0500	1	1	0.452
119	1	57	2	3	0.0877	0.0500	0	1	0.617
119	1	58	1	1	0.0877	0.0500	1	1	0.519
119	1	59	2	1	0.0877	0.0500	1	1	0.467
119	1	60	1	1	0.0877	0.0500	1	1	0.586
119	1	61	2	2	0.0877	0.0500	1	1	0.504
119	1	62	1	2	0.0877	0.0500	1	1	0.476
119	1	63	2	3	0.0877	0.0500	1	1	0.704
119	1	64	1	1	0.0877	0.0500	0	1	0.526
119	1	65	2	2	0.0877	0.0500	1	1	0.673
119	1	66	1	3	0.0877	0.0500	0	1	0.494
119	1	67	1	1	0.0877	0.0500	1	1	0.489
119	1	68	1	1	0.0877	0.0500	0	1	0.515
119	1	69	2	2	0.0877	0.0500	1	1	0.449
119	1	70	2	3	0.0877	0.0500	1	1	0.436
119	1	71	2	3	0.0877	0.0500	1	1	0.426
119	1	72	1	1	0.0877	0.0500	0	1	0.636
119	1	73	2	2	0.0877	0.0500	1	1	0.579
119	1	74	2	2	0.0877	0.0500	0	0	0.514
119	1	75	2	2	0.0877	0.0500	0	1	0.923
119	1	76	1	3	0.0877	0.0500	1	1	0.598
119	1	77	2	2	0.0877	0.0500	0	1	0.619
119	1	78	2	3	0.0877	0.0500	0	1	0.673
119	1	79	1	1	0.0877	0.0500	1	1	1.131
119	1	80	2	3	0.0877	0.0500	0	1	0.593
119	1	81	1	1	0.0877	0.0500	1	1	0.596
119	1	82	2	2	0.0877	0.0500	0	1	0.491
119	1	83	2	2	0.0877	0.0500	1	1	0.532
119	1	84	2	3	0.0877	0.0500	0	1	0.550
119	1	85	2	2	0.0877	0.0500	0	1	0.618
119	1	86	1	2	0.0877	0.0500	1	1	0.606
119	1	87	1	3	0.0877	0.0500	0	1	0.632
119	1	88	1	2	0.0877	0.0500	0	1	0.650
119	1	89	2	1	0.0877	0.0500	1	1	0.558
119	1	90	1	3	0.0877	0.0500	1	1	0.695
119	1	91	1	3	0.0877	0.0500	0	1	0.479
119	1	92	2	3	0.0877	0.0500	1	1	0.676
119	1	93	1	1	0.0877	0.0500	0	1	0.712
119	1	94	1	3	0.0877	0.0500	0	1	0.750
119	1	95	1	1	0.0877	0.0500	1	1	0.656
119	1	96	1	1	0.0877	0.0500	0	0	0.713
119	1	97	1	1	0.0877	0.0500	1	1	0.579
119	1	98	2	1	0.0877	0.0500	0	1	0.587
119	1	99	2	1	0.0877	0.0500	0	1	0.750
119	1	100	2	2	0.0877	0.0500	1	1	0.809
119	1	101	2	2	0.0877	0.0500	1	1	0.496
119	1	102	1	2	0.0877	0.0500	0	1	0.724
119	1	103	1	1	0.0877	0.0500	0	1	0.790
119	1	104	2	2	0.0877	0.0500	1	1	0.583
119	1	105	1	1	0.0877	0.0500	0	1	0.759
119	1	106	1	3	0.0877	0.0500	1	0	0.681
119	1	107	1	3	0.0877	0.0500	1	1	1.008
119	1	108	2	2	0.0877	0.0500	0	1	0.706
119	1	109	2	2	0.0877	0.0500	0	1	0.714
119	1	110	2	2	0.0877	0.0500	0	1	0.610
119	1	111	1	1	0.0877	0.0500	1	1	0.716
119	1	112	1	1	0.0877	0.0500	0	1	0.964
