sub	sess	t	loc	co1	co2	or	resp	rt
56	1	1	2	1.0000	1.0000	0	1	13.206
56	1	2	1	1.0000	1.0000	0	1	3.900
56	1	3	2	1.0000	1.0000	1	1	1.851
56	1	4	2	1.0000	1.0000	0	1	2.529
56	1	5	2	1.0000	1.0000	1	1	2.073
56	1	6	1	1.0000	1.0000	0	1	2.971
56	1	7	1	1.0000	1.0000	0	1	2.079
56	1	8	1	1.0000	1.0000	0	1	1.035
56	1	9	2	1.0000	1.0000	0	1	2.349
56	1	10	2	1.0000	1.0000	1	1	1.079
56	1	11	1	1.0000	1.0000	1	1	1.092
56	1	12	2	1.0000	1.0000	0	1	0.816
56	1	13	2	1.0000	1.0000	0	1	0.882
56	1	14	1	1.0000	1.0000	0	1	0.752
56	1	15	1	1.0000	1.0000	1	1	1.159
56	1	16	2	1.0000	1.0000	1	1	1.058
56	1	17	2	1.0000	1.0000	0	1	0.921
56	1	18	1	1.0000	1.0000	1	0	1.539
56	1	19	1	1.0000	1.0000	1	1	0.903
56	1	20	2	1.0000	1.0000	1	1	0.800
56	1	21	2	1.0000	1.0000	1	1	5.670
56	1	22	1	1.0000	1.0000	1	1	1.648
56	1	23	2	1.0000	1.0000	0	1	1.441
56	1	24	1	1.0000	1.0000	0	1	1.541
56	1	25	1	1.0000	1.0000	1	1	46.859
56	1	26	1	1.0000	1.0000	0	1	2.019
56	1	27	2	1.0000	1.0000	1	1	0.687
56	1	28	2	1.0000	1.0000	0	1	0.777
56	1	29	1	0.2500	0.2500	0	1	0.556
56	1	30	1	0.2629	0.2629	0	1	0.501
56	1	31	1	0.2758	0.2758	0	1	0.483
56	1	32	2	0.2887	0.2887	0	1	0.590
56	1	33	2	0.3016	0.3016	1	1	0.630
56	1	34	2	0.3145	0.3145	0	1	0.643
56	1	35	1	0.3274	0.3274	0	1	0.582
56	1	36	2	0.3403	0.3403	0	1	0.644
56	1	37	1	0.3532	0.3532	0	1	0.735
56	1	38	2	0.3661	0.3661	1	1	1.741
56	1	39	1	0.3790	0.3790	1	1	0.919
56	1	40	1	0.3919	0.3919	0	1	0.852
56	1	41	2	0.4048	0.4048	1	1	0.515
56	1	42	1	0.4177	0.4177	1	1	0.806
56	1	43	2	0.4306	0.4306	0	1	0.562
56	1	44	1	0.4435	0.4435	1	1	2.517
56	1	45	2	0.4565	0.4565	1	1	0.685
56	1	46	1	0.4694	0.4694	1	1	0.734
56	1	47	1	0.4823	0.4823	1	0	1.085
56	1	48	1	0.4952	0.4952	0	1	0.668
56	1	49	2	0.5081	0.5081	0	1	1.001
56	1	50	1	0.5210	0.5210	1	1	0.749
56	1	51	1	0.5339	0.5339	1	1	0.634
56	1	52	1	0.5468	0.5468	1	1	0.839
56	1	53	1	0.5597	0.5597	0	1	0.648
56	1	54	1	0.5726	0.5726	0	1	0.510
56	1	55	1	0.5855	0.5855	1	1	0.699
56	1	56	2	0.5984	0.5984	1	1	1.225
56	1	57	1	0.6113	0.6113	0	1	0.657
56	1	58	1	0.6242	0.6242	1	0	0.568
56	1	59	1	0.6371	0.6371	0	1	0.611
56	1	60	2	0.6500	0.6500	0	1	0.916
56	1	61	2	0.2500	0.2500	0	1	0.574
56	1	62	2	0.2629	0.2629	1	1	0.530
56	1	63	2	0.2758	0.2758	1	1	0.777
56	1	64	2	0.2887	0.2887	1	1	0.653
56	1	65	1	0.3016	0.3016	0	1	0.712
56	1	66	2	0.3145	0.3145	1	1	0.595
56	1	67	2	0.3274	0.3274	0	1	2.454
56	1	68	1	0.3403	0.3403	0	1	0.611
56	1	69	1	0.3532	0.3532	1	1	1.039
56	1	70	2	0.3661	0.3661	1	1	0.598
56	1	71	2	0.3790	0.3790	1	1	0.614
56	1	72	1	0.3919	0.3919	1	1	0.791
56	1	73	2	0.4048	0.4048	0	1	2.839
56	1	74	1	0.4177	0.4177	1	1	0.789
56	1	75	2	0.4306	0.4306	1	1	1.037
56	1	76	2	0.4435	0.4435	0	1	0.975
56	1	77	2	0.4565	0.4565	1	1	0.478
56	1	78	2	0.4694	0.4694	1	1	0.509
56	1	79	1	0.4823	0.4823	0	1	0.519
56	1	80	2	0.4952	0.4952	1	1	0.503
56	1	81	2	0.5081	0.5081	0	1	0.651
56	1	82	1	0.5210	0.5210	0	1	0.769
56	1	83	2	0.5339	0.5339	0	1	0.828
56	1	84	2	0.5468	0.5468	1	1	0.707
56	1	85	2	0.5597	0.5597	0	1	0.548
56	1	86	2	0.5726	0.5726	0	1	0.469
56	1	87	2	0.5855	0.5855	0	1	0.636
56	1	88	1	0.5984	0.5984	1	1	0.589
56	1	89	1	0.6113	0.6113	0	1	0.656
56	1	90	2	0.6242	0.6242	0	1	1.050
56	1	91	1	0.6371	0.6371	1	1	0.819
56	1	92	1	0.6500	0.6500	1	1	1.179
56	1	93	1	0.3014	0.6242	1	1	0.846
56	1	94	1	0.2795	0.6242	0	1	31.446
56	1	95	1	0.2558	0.6242	0	1	1.474
56	1	96	1	0.2299	0.6242	1	1	1.227
56	1	97	2	0.2299	0.1567	0	1	1.633
56	1	98	2	0.2299	0.1466	1	1	2.723
56	1	99	1	0.2033	0.1466	0	1	0.976
56	1	100	2	0.2033	0.1362	0	1	0.805
56	1	101	2	0.2033	0.1257	1	1	0.730
56	1	102	1	0.1792	0.1257	1	1	1.207
56	1	103	1	0.1587	0.1257	1	1	0.666
56	1	104	2	0.1587	0.1149	1	1	1.234
56	1	105	2	0.1587	0.1040	0	1	0.577
56	1	106	2	0.1587	0.0930	1	1	0.589
56	1	107	2	0.1587	0.0818	0	1	0.818
56	1	108	1	0.1411	0.0818	1	1	2.317
56	1	109	2	0.1411	0.0707	0	1	0.645
56	1	110	2	0.1411	0.0596	1	1	0.690
56	1	111	1	0.1255	0.0596	0	1	0.660
56	1	112	2	0.1255	0.0488	0	1	0.790
56	1	113	2	0.1255	0.0382	1	1	1.672
56	1	114	1	0.1113	0.0382	0	1	0.856
56	1	115	2	0.1113	0.0280	1	0	0.993
56	1	116	2	0.1113	0.0578	1	1	1.029
56	1	117	1	0.0981	0.0578	0	1	1.094
56	1	118	1	0.0858	0.0578	1	1	1.216
56	1	119	1	0.0740	0.0578	0	1	0.659
56	1	120	1	0.0628	0.0578	1	1	0.742
56	1	121	1	0.0519	0.0578	1	1	2.287
56	1	122	1	0.0415	0.0578	1	0	1.124
56	1	123	2	0.0415	0.0486	0	0	0.892
56	1	124	1	0.0711	0.0486	0	1	0.387
56	1	125	2	0.0711	0.0756	0	1	1.027
56	1	126	1	0.0618	0.0756	0	1	1.343
56	1	127	1	0.0528	0.0756	0	1	0.800
56	1	128	2	0.0528	0.0674	0	1	0.931
56	1	129	2	0.0528	0.0594	0	1	0.813
56	1	130	1	0.0443	0.0594	1	0	0.645
56	1	131	2	0.0443	0.0516	0	1	2.335
56	1	132	2	0.0443	0.0442	0	1	0.767
56	1	133	2	0.0443	0.0370	1	0	0.514
56	1	134	2	0.0443	0.0585	0	1	1.297
56	1	135	2	0.0443	0.0517	1	0	0.351
56	1	136	1	0.0684	0.0517	0	1	0.602
56	1	137	1	0.0604	0.0517	1	0	0.768
56	1	138	2	0.0604	0.0712	1	0	1.338
56	1	139	2	0.0604	0.0904	1	0	0.711
56	1	140	1	0.0834	0.0904	1	0	0.972
56	1	141	1	0.1055	0.0904	0	1	1.298
56	1	142	2	0.1055	0.1091	1	1	0.813
56	1	143	2	0.1055	0.1031	0	1	0.722
56	1	144	1	0.0980	0.1031	1	1	1.038
56	1	145	1	0.0909	0.1031	0	1	0.989
56	1	146	2	0.0909	0.0973	1	1	1.030
56	1	147	2	0.0909	0.0916	1	0	1.557
56	1	148	2	0.0909	0.1080	0	1	1.207
56	1	149	1	0.0843	0.1080	1	1	1.130
56	1	150	1	0.0779	0.1080	1	1	0.738
56	1	151	1	0.0719	0.1080	0	0	3.633
56	1	152	1	0.0891	0.1080	1	0	1.227
56	1	153	2	0.0891	0.1026	0	1	1.207
56	1	154	2	0.0891	0.0973	1	1	2.422
56	1	155	1	0.1071	0.0973	0	1	0.988
56	1	156	1	0.1010	0.0973	0	1	0.918
