sub	sess	t	rew	loc	cue	co1	co2	or	resp	rt	rew_tot	left_col	right_col
43	1	1	1	1	3	0.0500	0.1017	0	1	0.719	63	82	82
43	1	2	0	1	1	0.0500	0.1017	0	1	0.545	8	0	0
43	1	3	1	1	2	0.0500	0.1017	0	0	0.580	0	82	82
43	1	4	1	1	1	0.0500	0.1017	1	1	0.575	78	82	0
43	1	5	0	2	3	0.0500	0.1017	1	1	0.782	6	82	0
43	1	6	0	2	3	0.0500	0.1017	0	1	0.381	10	0	0
43	1	7	0	1	3	0.0500	0.1017	1	1	0.550	8	0	82
43	1	8	0	2	3	0.0500	0.1017	0	1	0.448	9	0	0
43	1	9	1	2	3	0.0500	0.1017	0	1	0.411	94	82	82
43	1	10	9	2	1	0.0500	0.1017	0	1	0.449	0	0	0
43	1	11	9	1	3	0.0500	0.1017	0	1	0.706	0	82	82
43	1	12	0	2	3	0.0500	0.1017	1	1	0.585	8	82	0
43	1	13	0	1	3	0.0500	0.1017	0	1	0.680	7	0	0
43	1	14	9	1	1	0.0500	0.1017	1	0	0.580	0	82	0
43	1	15	9	1	1	0.0500	0.1017	0	1	0.536	0	0	0
43	1	16	1	1	1	0.0500	0.1017	0	1	0.456	89	82	82
43	1	17	0	1	1	0.0500	0.1017	1	1	0.581	8	0	82
43	1	18	1	2	2	0.0500	0.1017	1	1	0.472	88	0	82
43	1	19	9	2	3	0.0500	0.1017	1	1	0.620	0	82	0
43	1	20	1	2	3	0.0500	0.1017	1	1	0.537	81	0	82
43	1	21	1	2	2	0.0500	0.1017	1	1	0.604	75	0	82
43	1	22	0	1	1	0.0500	0.1017	1	1	0.697	7	0	82
43	1	23	9	1	2	0.0500	0.1017	1	1	0.635	0	0	82
43	1	24	1	2	1	0.0500	0.1017	1	1	0.607	74	0	82
43	1	25	0	1	1	0.0500	0.1017	1	1	0.583	8	0	82
43	1	26	1	2	2	0.0500	0.1017	0	1	0.493	86	82	82
43	1	27	1	2	2	0.0500	0.1017	1	0	0.524	0	0	82
43	1	28	1	1	3	0.0500	0.1017	0	1	0.453	90	82	82
43	1	29	0	2	2	0.0500	0.1017	1	0	0.418	0	82	0
43	1	30	1	2	2	0.0500	0.1017	0	1	0.430	92	82	82
43	1	31	9	1	3	0.0500	0.1017	1	1	0.541	0	0	82
43	1	32	1	2	3	0.0500	0.1017	0	1	0.431	92	82	82
43	1	33	0	2	2	0.0500	0.1017	0	1	0.400	10	0	0
43	1	34	9	1	3	0.0500	0.1017	1	1	0.457	0	82	0
43	1	35	0	1	1	0.0500	0.1017	1	0	0.621	0	0	82
43	1	36	1	2	3	0.0500	0.1017	1	1	0.552	80	0	82
43	1	37	1	1	1	0.0500	0.1017	1	1	0.634	72	82	0
43	1	38	0	2	2	0.0500	0.1017	0	1	0.482	9	0	0
43	1	39	1	2	3	0.0500	0.1017	0	1	0.451	90	82	82
43	1	40	1	2	2	0.0500	0.1017	1	0	0.589	0	0	82
43	1	41	0	2	2	0.0500	0.1017	1	0	0.671	0	82	0
43	1	42	0	2	3	0.0500	0.1017	1	1	0.533	8	82	0
43	1	43	1	2	2	0.0500	0.1017	1	1	0.491	86	0	82
43	1	44	1	2	2	0.0500	0.1017	1	0	0.559	0	0	82
43	1	45	0	2	3	0.0500	0.1017	1	1	0.509	8	82	0
43	1	46	0	1	2	0.0500	0.1017	0	1	0.525	8	0	0
43	1	47	1	2	3	0.0500	0.1017	0	1	0.547	80	82	82
43	1	48	1	1	2	0.0500	0.1017	0	1	0.579	77	82	82
43	1	49	0	2	3	0.0500	0.1017	1	1	0.714	6	82	0
43	1	50	1	2	3	0.0500	0.1017	1	1	0.559	79	0	82
43	1	51	0	2	3	0.0500	0.1017	0	1	0.600	8	0	0
43	1	52	0	2	3	0.0500	0.1017	1	1	0.641	7	82	0
43	1	53	0	1	2	0.0500	0.1017	0	1	0.575	8	0	0
43	1	54	0	1	2	0.0500	0.1017	1	1	0.506	8	0	82
43	1	55	1	2	2	0.0500	0.1017	1	1	0.873	50	0	82
43	1	56	1	1	1	0.0500	0.1017	1	1	0.539	81	82	0
43	1	57	0	2	1	0.0500	0.1017	0	1	0.415	9	0	0
43	1	58	1	1	3	0.0500	0.1017	1	1	0.364	99	82	0
43	1	59	1	2	3	0.0500	0.1017	1	0	0.291	0	0	82
43	1	60	0	2	1	0.0500	0.1017	1	1	0.371	10	82	0
43	1	61	0	1	3	0.0500	0.1017	1	1	0.517	8	0	82
43	1	62	1	2	2	0.0500	0.1017	0	1	0.456	89	82	82
43	1	63	1	1	1	0.0500	0.1017	1	1	0.439	91	82	0
43	1	64	0	1	1	0.0500	0.1017	0	1	0.423	9	0	0
43	1	65	1	2	2	0.0500	0.1017	1	0	0.505	0	0	82
43	1	66	1	1	3	0.0500	0.1017	1	1	0.472	88	82	0
43	1	67	1	1	3	0.0500	0.1017	1	1	0.447	90	82	0
43	1	68	1	2	2	0.0500	0.1017	1	0	0.452	0	0	82
43	1	69	0	1	1	0.0500	0.1017	0	1	0.574	8	0	0
43	1	70	0	2	3	0.0500	0.1017	0	1	0.601	7	0	0
43	1	71	0	1	3	0.0500	0.1017	0	1	0.503	8	0	0
43	1	72	0	1	3	0.0500	0.1017	1	1	0.455	9	0	82
43	1	73	0	2	3	0.0500	0.1017	1	0	0.543	0	82	0
43	1	74	0	2	2	0.0500	0.1017	1	1	0.610	7	82	0
43	1	75	1	2	3	0.0500	0.1017	0	1	0.414	94	82	82
43	1	76	9	1	3	0.0500	0.1017	0	1	0.481	0	0	0
43	1	77	0	2	2	0.0500	0.1017	0	1	0.473	9	0	0
43	1	78	1	1	2	0.0500	0.1017	0	1	0.469	88	82	82
43	1	79	0	1	1	0.0500	0.1017	0	1	0.743	6	0	0
43	1	80	0	2	3	0.0500	0.1017	1	1	0.542	8	82	0
43	1	81	0	1	3	0.0500	0.1017	0	1	0.903	5	0	0
43	1	82	9	1	2	0.0500	0.1017	0	1	0.455	0	0	0
43	1	83	9	2	2	0.0500	0.1017	1	1	0.402	0	0	82
43	1	84	0	1	1	0.0500	0.1017	1	1	0.723	6	0	82
43	1	85	9	1	1	0.0500	0.1017	0	1	0.558	0	0	0
43	1	86	9	1	1	0.0500	0.1017	0	1	0.376	0	82	82
43	1	87	1	1	1	0.0500	0.1017	0	0	0.575	0	82	82
43	1	88	0	1	1	0.0500	0.1017	0	1	0.388	10	0	0
43	1	89	9	2	3	0.0500	0.1017	1	1	0.448	0	0	82
43	1	90	1	1	1	0.0500	0.1017	1	1	0.504	85	82	0
43	1	91	0	1	1	0.0500	0.1017	0	1	0.368	10	0	0
43	1	92	9	1	3	0.0500	0.1017	1	1	0.399	0	82	0
43	1	93	0	2	3	0.0500	0.1017	1	0	0.463	0	82	0
43	1	94	1	2	3	0.0500	0.1017	1	1	0.394	96	0	82
43	1	95	1	2	2	0.0500	0.1017	1	1	0.365	98	0	82
43	1	96	0	2	2	0.0500	0.1017	0	1	0.379	10	0	0
43	1	97	9	2	2	0.0500	0.1017	0	1	0.383	0	0	0
43	1	98	1	1	1	0.0500	0.1017	1	1	0.551	80	82	0
43	1	99	1	2	3	0.0500	0.1017	0	1	0.483	87	82	82
43	1	100	0	2	3	0.0500	0.1017	0	0	0.569	0	0	0
43	1	101	0	2	3	0.0500	0.1017	1	1	0.464	9	82	0
43	1	102	1	2	2	0.0500	0.1017	0	1	0.422	93	82	82
43	1	103	9	2	3	0.0500	0.1017	1	1	0.365	0	0	82
43	1	104	0	1	1	0.0500	0.1017	0	1	0.389	10	0	0
43	1	105	1	2	3	0.0500	0.1017	0	1	0.428	92	82	82
43	1	106	9	1	3	0.0500	0.1017	0	1	0.505	0	82	82
43	1	107	0	1	1	0.0500	0.1017	1	1	0.464	9	0	82
43	1	108	0	2	2	0.0500	0.1017	0	1	0.306	10	0	0
43	1	109	1	1	1	0.0500	0.1017	1	1	0.451	90	82	0
43	1	110	9	2	3	0.0500	0.1017	1	0	0.525	0	82	0
43	1	111	0	1	1	0.0500	0.1017	1	1	0.456	9	0	82
43	1	112	1	2	2	0.0500	0.1017	1	1	0.444	91	0	82
43	1	113	9	2	2	0.0500	0.1017	0	1	0.447	0	82	82
43	1	114	1	1	1	0.0500	0.1017	0	1	0.440	91	82	82
43	1	115	0	1	3	0.0500	0.1017	0	1	0.243	10	0	0
43	1	116	0	2	3	0.0500	0.1017	0	1	0.276	10	0	0
43	1	117	1	1	2	0.0500	0.1017	1	0	0.449	0	82	0
43	1	118	9	1	3	0.0500	0.1017	0	1	0.467	0	0	0
43	1	119	0	2	3	0.0500	0.1017	1	1	0.356	10	82	0
43	1	120	1	1	3	0.0500	0.1017	1	1	0.464	89	82	0
43	1	121	0	2	2	0.0500	0.1017	0	1	0.354	10	0	0
43	1	122	1	2	1	0.0500	0.1017	0	1	0.556	79	82	82
43	1	123	9	2	2	0.0500	0.1017	1	1	0.358	0	0	82
43	1	124	0	2	1	0.0500	0.1017	1	0	0.390	0	82	0
43	1	125	9	2	2	0.0500	0.1017	0	1	0.359	0	82	82
43	1	126	0	1	3	0.0500	0.1017	1	1	0.535	8	0	82
43	1	127	1	1	3	0.0500	0.1017	1	1	0.881	50	82	0
43	1	128	0	2	3	0.0500	0.1017	0	1	0.527	8	0	0
43	1	129	0	1	2	0.0500	0.1017	1	1	0.433	9	0	82
43	1	130	1	1	3	0.0500	0.1017	0	1	0.442	91	82	82
43	1	131	1	1	3	0.0500	0.1017	0	1	0.274	100	82	82
43	1	132	0	2	3	0.0500	0.1017	1	0	0.433	0	82	0
43	1	133	9	1	3	0.0500	0.1017	1	1	0.504	0	82	0
43	1	134	9	1	1	0.0500	0.1017	1	0	0.534	0	0	82
43	1	135	1	1	3	0.0500	0.1017	1	1	0.415	94	82	0
43	1	136	0	2	3	0.0500	0.1017	1	0	0.353	0	82	0
43	1	137	1	1	1	0.0500	0.1017	0	0	0.399	0	82	82
43	1	138	9	2	3	0.0500	0.1017	0	1	0.381	0	0	0
43	1	139	9	2	3	0.0500	0.1017	0	1	0.418	0	82	82
43	1	140	1	1	3	0.0500	0.1017	0	1	0.382	97	82	82
43	1	141	1	1	1	0.0500	0.1017	0	1	0.445	91	82	82
43	1	142	9	2	2	0.0500	0.1017	1	1	0.470	0	82	0
43	1	143	1	2	1	0.0500	0.1017	1	0	0.312	0	0	82
43	1	144	9	2	2	0.0500	0.1017	1	1	0.407	0	0	82
43	1	145	0	1	1	0.0500	0.1017	0	1	0.328	10	0	0
43	1	146	0	1	1	0.0500	0.1017	1	1	0.667	7	0	82
43	1	147	0	1	3	0.0500	0.1017	0	1	0.509	8	0	0
43	1	148	9	1	1	0.0500	0.1017	0	1	0.322	0	0	0
43	1	149	1	2	2	0.0500	0.1017	0	1	0.386	96	82	82
43	1	150	0	2	2	0.0500	0.1017	0	1	0.344	10	0	0
43	1	151	9	1	3	0.0500	0.1017	0	1	0.297	0	82	82
43	1	152	0	1	2	0.0500	0.1017	0	1	0.324	10	0	0
43	1	153	0	2	3	0.0500	0.1017	0	1	0.288	10	0	0
43	1	154	1	2	3	0.0500	0.1017	0	1	0.353	100	82	82
43	1	155	1	1	3	0.0500	0.1017	0	1	0.494	86	82	82
43	1	156	1	2	3	0.0500	0.1017	0	1	0.362	99	82	82
43	1	157	1	1	1	0.0500	0.1017	1	1	0.455	90	82	0
43	1	158	9	1	2	0.0500	0.1017	0	1	0.303	0	82	82
43	1	159	1	1	1	0.0500	0.1017	1	0	0.332	0	82	0
43	1	160	0	1	1	0.0500	0.1017	1	0	0.485	0	0	82
43	1	161	0	2	3	0.0500	0.1017	0	1	0.380	10	0	0
43	1	162	9	1	1	0.0500	0.1017	1	0	0.444	0	0	82
43	1	163	1	1	1	0.0500	0.1017	0	1	0.353	100	82	82
43	1	164	1	1	3	0.0500	0.1017	1	1	0.408	94	82	0
43	1	165	1	2	3	0.0500	0.1017	0	1	0.375	98	82	82
43	1	166	0	1	3	0.0500	0.1017	1	1	0.675	7	0	82
43	1	167	9	2	3	0.0500	0.1017	1	0	0.340	0	82	0
43	1	168	0	1	1	0.0500	0.1017	0	0	0.520	0	0	0
43	1	169	1	2	1	0.0500	0.1017	1	0	0.388	0	0	82
43	1	170	0	2	2	0.0500	0.1017	1	0	0.390	0	82	0
43	1	171	0	2	2	0.0500	0.1017	0	1	0.490	9	0	0
43	1	172	9	2	2	0.0500	0.1017	1	1	0.449	0	82	0
43	1	173	0	2	2	0.0500	0.1017	1	1	0.435	9	82	0
43	1	174	9	1	1	0.0500	0.1017	0	1	0.372	0	0	0
43	1	175	0	2	1	0.0500	0.1017	0	1	0.342	10	0	0
43	1	176	1	2	3	0.0500	0.1017	1	1	0.420	93	0	82
43	1	177	9	1	1	0.0500	0.1017	1	0	0.377	0	82	0
43	1	178	0	1	3	0.0500	0.1017	1	1	0.464	9	0	82
43	1	179	0	1	1	0.0500	0.1017	1	1	0.392	10	0	82
43	1	180	1	1	1	0.0500	0.1017	0	0	0.470	0	82	82
43	1	181	1	1	3	0.0500	0.1017	1	1	0.390	96	82	0
43	1	182	0	2	3	0.0500	0.1017	0	1	0.337	10	0	0
43	1	183	9	1	1	0.0500	0.1017	0	0	0.547	0	82	82
43	1	184	1	1	1	0.0500	0.1017	1	1	0.400	95	82	0
43	1	185	1	2	2	0.0500	0.1017	1	1	0.378	97	0	82
43	1	186	1	1	1	0.0500	0.1017	0	1	0.369	98	82	82
43	1	187	0	1	2	0.0500	0.1017	0	1	0.286	10	0	0
43	1	188	1	2	2	0.0500	0.1017	1	1	0.294	100	0	82
43	1	189	0	1	3	0.0500	0.1017	0	1	0.364	10	0	0
43	1	190	0	1	3	0.0500	0.1017	1	0	0.538	0	0	82
43	1	191	9	2	3	0.0500	0.1017	0	1	0.378	0	0	0
43	1	192	9	2	2	0.0500	0.1017	1	1	0.506	0	82	0
43	1	193	0	2	2	0.0500	0.1017	1	0	0.441	0	82	0
43	1	194	1	1	1	0.0500	0.1017	1	1	0.482	87	82	0
43	1	195	9	2	2	0.0500	0.1017	1	1	0.364	0	0	82
43	1	196	0	2	2	0.0500	0.1017	1	0	0.459	0	82	0
43	1	197	1	1	3	0.0500	0.1017	1	1	0.479	87	82	0
43	1	198	1	2	2	0.0500	0.1017	1	1	0.388	96	0	82
43	1	199	0	2	3	0.0500	0.1017	0	1	0.367	10	0	0
43	1	200	1	2	2	0.0500	0.1017	0	1	0.362	99	82	82
43	1	201	1	2	3	0.0500	0.1017	1	1	0.397	95	0	82
43	1	202	0	2	1	0.0500	0.1017	1	1	0.633	7	82	0
43	1	203	9	2	1	0.0500	0.1017	0	1	0.344	0	82	82
43	1	204	0	2	3	0.0500	0.1017	0	1	0.483	9	0	0
43	1	205	0	1	3	0.0500	0.1017	1	1	0.626	7	0	82
43	1	206	0	2	2	0.0500	0.1017	1	0	0.466	0	82	0
43	1	207	1	1	1	0.0500	0.1017	0	0	0.424	0	82	82
43	1	208	1	2	2	0.0500	0.1017	1	1	0.384	97	0	82
43	1	209	1	2	3	0.0500	0.1017	0	1	0.430	92	82	82
43	1	210	0	1	3	0.0500	0.1017	0	0	0.462	0	0	0
43	1	211	1	1	3	0.0500	0.1017	1	1	0.528	82	82	0
43	1	212	0	1	1	0.0500	0.1017	1	1	0.400	9	0	82
43	1	213	1	1	1	0.0500	0.1017	0	0	0.427	0	82	82
43	1	214	0	2	2	0.0500	0.1017	0	1	0.322	10	0	0
43	1	215	1	2	3	0.0500	0.1017	1	1	0.435	92	0	82
43	1	216	0	2	2	0.0500	0.1017	1	1	0.428	9	82	0
43	1	217	0	2	2	0.0500	0.1017	1	0	0.485	0	82	0
43	1	218	0	2	2	0.0500	0.1017	0	1	0.439	9	0	0
43	1	219	0	2	2	0.0500	0.1017	0	1	0.358	10	0	0
43	1	220	9	1	3	0.0500	0.1017	1	1	0.651	0	0	82
43	1	221	1	2	3	0.0500	0.1017	1	1	0.431	92	0	82
43	1	222	0	1	1	0.0500	0.1017	0	1	0.307	10	0	0
43	1	223	0	1	3	0.0500	0.1017	0	1	0.343	10	0	0
43	1	224	0	1	3	0.0500	0.1017	0	1	0.342	10	0	0
43	1	225	1	1	1	0.0500	0.1017	0	1	0.444	91	82	82
43	1	226	0	2	3	0.0500	0.1017	0	1	0.245	10	0	0
43	1	227	9	2	3	0.0500	0.1017	0	1	0.339	0	82	82
43	1	228	1	1	3	0.0500	0.1017	0	0	0.508	0	82	82
43	1	229	9	1	1	0.0500	0.1017	0	1	0.371	0	82	82
43	1	230	1	1	3	0.0500	0.1017	1	0	0.399	0	82	0
43	1	231	0	2	2	0.0500	0.1017	1	1	0.484	9	82	0
43	1	232	9	1	3	0.0500	0.1017	1	0	0.551	0	0	82
43	1	233	9	1	3	0.0500	0.1017	0	1	0.363	0	0	0
43	1	234	9	2	3	0.0500	0.1017	1	0	0.498	0	82	0
43	1	235	1	1	1	0.0500	0.1017	1	0	0.458	0	82	0
43	1	236	1	2	2	0.0500	0.1017	0	1	0.425	92	82	82
43	1	237	1	2	3	0.0500	0.1017	0	1	0.401	95	82	82
43	1	238	1	1	3	0.0500	0.1017	0	1	0.536	81	82	82
43	1	239	0	1	3	0.0500	0.1017	1	1	0.684	7	0	82
43	1	240	1	1	3	0.0500	0.1017	1	1	0.742	61	82	0
43	1	241	1	2	3	0.0500	0.1017	0	1	0.416	93	82	82
43	1	242	1	2	3	0.0500	0.1017	0	1	0.317	100	82	82
43	1	243	0	1	1	0.0500	0.1017	1	1	0.535	8	0	82
43	1	244	0	1	3	0.0500	0.1017	0	1	0.425	9	0	0
43	1	245	9	2	3	0.0500	0.1017	1	1	0.410	0	0	82
43	1	246	1	2	2	0.0500	0.1017	0	1	0.341	100	82	82
43	1	247	1	2	2	0.0500	0.1017	0	1	0.327	100	82	82
43	1	248	1	2	3	0.0500	0.1017	1	1	0.370	98	0	82
43	1	249	0	2	1	0.0500	0.1017	0	1	0.294	10	0	0
43	1	250	1	2	2	0.0500	0.1017	0	1	0.299	100	82	82
43	1	251	0	2	2	0.0500	0.1017	0	1	0.297	10	0	0
43	1	252	1	1	1	0.0500	0.1017	1	1	0.394	96	82	0
43	1	253	1	1	1	0.0500	0.1017	0	1	0.335	100	82	82
43	1	254	1	2	2	0.0500	0.1017	0	1	0.322	100	82	82
43	1	255	0	1	1	0.0500	0.1017	0	1	0.294	10	0	0
43	1	256	9	2	1	0.0500	0.1017	1	0	0.404	0	82	0
43	1	257	0	1	1	0.0500	0.1017	1	0	0.307	0	0	82
43	1	258	1	2	3	0.0500	0.1017	1	1	0.379	97	0	82
43	1	259	0	2	3	0.0500	0.1017	1	0	0.299	0	82	0
43	1	260	1	1	3	0.0500	0.1017	0	1	0.381	97	82	82
43	1	261	0	2	3	0.0500	0.1017	0	1	0.338	10	0	0
43	1	262	1	2	3	0.0500	0.1017	1	1	0.375	98	0	82
43	1	263	1	1	2	0.0500	0.1017	0	1	0.462	89	82	82
43	1	264	9	2	3	0.0500	0.1017	0	1	0.327	0	0	0
43	1	265	0	1	3	0.0500	0.1017	1	0	0.581	0	0	82
43	1	266	1	2	1	0.0500	0.1017	0	1	0.433	92	82	82
43	1	267	0	1	3	0.0500	0.1017	0	1	0.344	10	0	0
43	1	268	1	1	3	0.0500	0.1017	1	1	0.407	94	82	0
43	1	269	0	2	2	0.0500	0.1017	1	0	0.416	0	82	0
43	1	270	9	1	1	0.0500	0.1017	1	1	0.492	0	0	82
43	1	271	1	1	3	0.0500	0.1017	1	1	0.636	71	82	0
43	1	272	0	2	1	0.0500	0.1017	1	0	0.498	0	82	0
43	1	273	0	1	1	0.0500	0.1017	0	1	0.578	8	0	0
43	1	274	9	1	1	0.0500	0.1017	0	1	0.553	0	82	82
43	1	275	9	2	2	0.0500	0.1017	0	1	0.353	0	0	0
43	1	276	1	1	3	0.0500	0.1017	0	1	0.483	87	82	82
43	1	277	0	1	1	0.0500	0.1017	0	0	0.445	0	0	0
43	1	278	0	1	3	0.0500	0.1017	0	1	0.382	10	0	0
43	1	279	1	2	2	0.0500	0.1017	0	1	0.359	99	82	82
43	1	280	9	2	2	0.0500	0.1017	0	1	0.279	0	0	0
43	1	281	0	1	3	0.0500	0.1017	0	1	0.522	8	0	0
43	1	282	0	1	3	0.0500	0.1017	0	1	0.290	10	0	0
43	1	283	0	2	3	0.0500	0.1017	1	0	0.477	0	82	0
43	1	284	9	1	1	0.0500	0.1017	1	1	0.595	0	0	82
43	1	285	9	2	3	0.0500	0.1017	1	1	0.449	0	0	82
43	1	286	0	1	3	0.0500	0.1017	1	0	0.538	0	0	82
43	1	287	9	2	3	0.0500	0.1017	0	1	0.451	0	0	0
43	1	288	1	1	1	0.0500	0.1017	1	1	0.393	96	82	0
43	1	289	9	1	2	0.0500	0.1017	1	0	0.371	0	82	0
43	1	290	9	1	3	0.0500	0.1017	0	1	0.472	0	82	82
43	1	291	1	2	1	0.0500	0.1017	0	0	0.462	0	82	82
43	1	292	0	1	1	0.0500	0.1017	0	1	0.241	10	0	0
43	1	293	0	1	1	0.0500	0.1017	1	0	0.438	0	0	82
43	1	294	9	2	2	0.0500	0.1017	0	0	0.460	0	82	82
43	1	295	1	2	2	0.0500	0.1017	0	1	0.341	100	82	82
43	1	296	0	1	3	0.0500	0.1017	1	1	0.436	9	0	82
43	1	297	0	2	3	0.0500	0.1017	0	1	0.401	9	0	0
43	1	298	1	1	1	0.0500	0.1017	0	0	0.509	0	82	82
43	1	299	0	2	2	0.0500	0.1017	1	0	0.389	0	82	0
43	1	300	1	1	2	0.0500	0.1017	1	1	0.456	89	82	0
43	1	301	0	2	2	0.0500	0.1017	0	1	0.266	10	0	0
43	1	302	0	1	1	0.0500	0.1017	1	1	0.425	9	0	82
43	1	303	0	1	1	0.0500	0.1017	1	1	0.461	9	0	82
43	1	304	0	1	3	0.0500	0.1017	1	1	0.445	9	0	82
43	1	305	1	2	2	0.0500	0.1017	0	1	0.334	100	82	82
43	1	306	9	2	2	0.0500	0.1017	0	1	0.337	0	0	0
43	1	307	0	1	3	0.0500	0.1017	1	1	0.442	9	0	82
43	1	308	9	2	3	0.0500	0.1017	0	1	0.418	0	82	82
43	1	309	9	1	3	0.0500	0.1017	1	1	0.438	0	0	82
43	1	310	1	2	3	0.0500	0.1017	1	0	0.457	0	0	82
43	1	311	0	1	3	0.0500	0.1017	1	1	0.416	9	0	82
43	1	312	1	1	3	0.0500	0.1017	0	1	0.482	87	82	82
43	1	313	0	1	3	0.0500	0.1017	0	1	0.411	9	0	0
43	1	314	1	1	3	0.0500	0.1017	0	1	0.335	100	82	82
43	1	315	0	2	2	0.0500	0.1017	0	1	0.598	8	0	0
43	1	316	0	2	2	0.0500	0.1017	0	1	0.349	10	0	0
43	1	317	9	2	1	0.0500	0.1017	1	1	0.442	0	0	82
43	1	318	1	2	2	0.0500	0.1017	0	1	0.329	100	82	82
43	1	319	1	1	3	0.0500	0.1017	1	1	0.404	95	82	0
43	1	320	1	1	2	0.0500	0.1017	1	0	0.315	0	82	0
43	1	321	9	2	3	0.0500	0.1017	0	1	0.390	0	82	82
43	1	322	1	1	3	0.0500	0.1017	0	0	0.401	0	82	82
43	1	323	0	1	3	0.0500	0.1017	0	1	0.296	10	0	0
43	1	324	0	1	1	0.0500	0.1017	0	1	0.235	10	0	0
43	1	325	0	2	3	0.0500	0.1017	0	1	0.246	10	0	0
43	1	326	9	1	3	0.0500	0.1017	1	0	0.393	0	82	0
43	1	327	0	2	2	0.0500	0.1017	1	1	0.418	9	82	0
43	1	328	0	2	2	0.0500	0.1017	1	1	0.283	10	82	0
43	1	329	1	2	1	0.0500	0.1017	1	1	0.318	100	0	82
43	1	330	1	2	3	0.0500	0.1017	1	1	0.361	99	0	82
43	1	331	1	2	3	0.0500	0.1017	0	1	0.402	95	82	82
43	1	332	1	1	1	0.0500	0.1017	0	0	0.501	0	82	82
43	1	333	9	2	2	0.0500	0.1017	1	0	0.296	0	82	0
43	1	334	9	1	1	0.0500	0.1017	1	0	0.398	0	82	0
43	1	335	1	1	3	0.0500	0.1017	0	1	0.397	95	82	82
43	1	336	1	2	2	0.0500	0.1017	0	1	0.386	96	82	82
43	1	337	0	1	2	0.0500	0.1017	1	1	0.447	9	0	82
43	1	338	0	1	1	0.0500	0.1017	0	1	0.333	10	0	0
43	1	339	1	1	3	0.0500	0.1017	0	1	0.506	84	82	82
43	1	340	1	2	1	0.0500	0.1017	0	1	0.242	100	82	82
43	1	341	9	1	1	0.0500	0.1017	1	0	0.303	0	82	0
43	1	342	0	1	3	0.0500	0.1017	1	1	0.477	9	0	82
43	1	343	1	2	3	0.0500	0.1017	1	0	0.221	0	0	82
43	1	344	1	2	3	0.0500	0.1017	0	1	0.417	93	82	82
43	1	345	9	2	2	0.0500	0.1017	0	1	0.360	0	82	82
43	1	346	0	2	2	0.0500	0.1017	0	1	0.200	10	0	0
43	1	347	0	2	1	0.0500	0.1017	0	1	0.210	10	0	0
43	1	348	1	2	2	0.0500	0.1017	1	1	0.364	99	0	82
43	1	349	1	1	2	0.0500	0.1017	1	1	0.585	76	82	0
43	1	350	0	2	2	0.0500	0.1017	1	0	0.231	0	82	0
43	1	351	0	1	2	0.0500	0.1017	1	0	0.668	0	0	82
43	1	352	1	1	1	0.0500	0.1017	0	1	0.319	100	82	82
43	1	353	1	2	3	0.0500	0.1017	1	1	0.385	96	0	82
43	1	354	1	1	1	0.0500	0.1017	0	1	0.246	100	82	82
43	1	355	0	2	3	0.0500	0.1017	1	0	0.311	0	82	0
43	1	356	1	1	3	0.0500	0.1017	0	0	0.386	0	82	82
43	1	357	1	1	1	0.0500	0.1017	1	0	0.208	0	82	0
43	1	358	1	1	1	0.0500	0.1017	1	1	0.515	83	82	0
43	1	359	1	1	3	0.0500	0.1017	1	1	0.553	80	82	0
43	1	360	9	1	3	0.0500	0.1017	0	1	0.349	0	0	0
43	1	361	0	1	3	0.0500	0.1017	1	0	0.337	0	0	82
43	1	362	1	1	1	0.0500	0.1017	1	1	0.362	99	82	0
43	1	363	1	1	1	0.0500	0.1017	0	1	0.463	89	82	82
43	1	364	0	1	1	0.0500	0.1017	1	1	0.688	7	0	82
43	1	365	9	2	3	0.0500	0.1017	0	1	0.352	0	82	82
43	1	366	0	1	1	0.0500	0.1017	0	1	0.323	10	0	0
43	1	367	9	1	1	0.0500	0.1017	0	1	0.367	0	82	82
43	1	368	1	1	3	0.0500	0.1017	1	1	0.630	72	82	0
43	1	369	0	1	1	0.0500	0.1017	1	0	0.453	0	0	82
43	1	370	0	2	3	0.0500	0.1017	1	0	0.581	0	82	0
43	1	371	1	1	3	0.0500	0.1017	1	1	0.405	95	82	0
43	1	372	0	1	1	0.0500	0.1017	0	1	0.477	9	0	0
43	1	373	1	1	3	0.0500	0.1017	1	1	0.473	88	82	0
43	1	374	0	2	2	0.0500	0.1017	0	1	0.320	10	0	0
43	1	375	1	2	3	0.0500	0.1017	1	1	0.459	89	0	82
43	1	376	1	2	3	0.0500	0.1017	0	1	0.335	100	82	82
43	1	377	9	1	1	0.0500	0.1017	0	1	0.366	0	82	82
43	1	378	1	2	3	0.0500	0.1017	0	1	0.370	98	82	82
43	1	379	0	2	2	0.0500	0.1017	0	1	0.156	10	0	0
43	1	380	9	2	2	0.0500	0.1017	0	1	0.425	0	0	0
43	1	381	0	2	3	0.0500	0.1017	0	1	0.294	10	0	0
43	1	382	1	2	3	0.0500	0.1017	0	1	0.336	100	82	82
43	1	383	0	2	3	0.0500	0.1017	0	1	0.219	10	0	0
43	1	384	0	1	3	0.0500	0.1017	0	1	0.311	10	0	0
43	1	385	9	1	3	0.0500	0.1017	0	0	0.459	0	82	82
43	1	386	1	2	3	0.0500	0.1017	1	0	0.349	0	0	82
43	1	387	1	1	3	0.0500	0.1017	0	1	0.540	81	82	82
43	1	388	0	1	1	0.0500	0.1017	1	0	0.472	0	0	82
43	1	389	1	2	2	0.0500	0.1017	1	1	0.320	100	0	82
43	1	390	0	1	3	0.0500	0.1017	0	1	0.297	10	0	0
43	1	391	1	1	2	0.0500	0.1017	1	1	0.492	86	82	0
43	1	392	1	1	3	0.0500	0.1017	0	1	0.400	95	82	82
43	1	393	1	1	1	0.0500	0.1017	1	0	0.248	0	82	0
43	1	394	0	1	1	0.0500	0.1017	0	0	0.246	0	0	0
43	1	395	1	1	1	0.0500	0.1017	0	1	0.272	100	82	82
43	1	396	9	2	2	0.0500	0.1017	0	1	0.409	0	0	0
43	1	397	9	1	1	0.0500	0.1017	0	1	0.272	0	0	0
43	1	398	0	2	3	0.0500	0.1017	1	0	0.379	0	82	0
43	1	399	0	2	2	0.0500	0.1017	1	1	0.833	5	82	0
43	1	400	1	2	3	0.0500	0.1017	0	1	0.377	97	82	82
43	1	401	1	2	1	0.0500	0.1017	0	1	0.274	100	82	82
43	1	402	1	1	3	0.0500	0.1017	0	1	0.368	98	82	82
43	1	403	0	2	3	0.0500	0.1017	0	1	0.360	10	0	0
43	1	404	1	2	2	0.0500	0.1017	0	1	0.227	100	82	82
43	1	405	1	1	3	0.0500	0.1017	0	1	0.351	100	82	82
43	1	406	0	1	3	0.0500	0.1017	0	1	0.211	10	0	0
43	1	407	0	1	1	0.0500	0.1017	1	0	0.319	0	0	82
43	1	408	1	1	3	0.0500	0.1017	1	1	0.475	87	82	0
43	1	409	0	1	1	0.0500	0.1017	0	1	0.425	9	0	0
43	1	410	0	1	1	0.0500	0.1017	1	0	0.654	0	0	82
43	1	411	0	2	2	0.0500	0.1017	0	1	0.314	10	0	0
43	1	412	9	1	1	0.0500	0.1017	1	1	0.451	0	0	82
43	1	413	9	1	3	0.0500	0.1017	0	1	0.362	0	0	0
43	1	414	1	2	3	0.0500	0.1017	1	1	0.512	84	0	82
43	1	415	0	2	1	0.0500	0.1017	1	0	0.258	0	82	0
43	1	416	1	2	2	0.0500	0.1017	0	1	0.477	87	82	82
43	1	417	1	1	1	0.0500	0.1017	1	1	0.422	93	82	0
43	1	418	1	1	1	0.0500	0.1017	1	1	0.374	98	82	0
43	1	419	0	1	3	0.0500	0.1017	1	1	0.486	9	0	82
43	1	420	1	1	3	0.0500	0.1017	1	0	0.305	0	82	0
43	1	421	1	2	3	0.0500	0.1017	0	1	0.376	97	82	82
43	1	422	1	1	1	0.0500	0.1017	1	1	0.405	95	82	0
43	1	423	0	1	3	0.0500	0.1017	1	1	0.712	6	0	82
43	1	424	9	2	2	0.0500	0.1017	1	1	0.764	0	82	0
43	1	425	1	1	2	0.0500	0.1017	1	1	0.915	50	82	0
43	1	426	0	2	2	0.0500	0.1017	1	0	0.674	0	82	0
43	1	427	0	2	3	0.0500	0.1017	1	1	0.582	8	82	0
43	1	428	9	1	1	0.0500	0.1017	0	0	0.434	0	0	0
43	1	429	0	2	2	0.0500	0.1017	0	1	0.263	10	0	0
43	1	430	9	1	1	0.0500	0.1017	1	1	0.552	0	0	82
43	1	431	1	1	3	0.0500	0.1017	0	1	0.323	100	82	82
43	1	432	1	2	2	0.0500	0.1017	0	1	0.321	100	82	82
43	1	433	0	2	3	0.0500	0.1017	1	0	0.407	0	82	0
43	1	434	0	2	3	0.0500	0.1017	1	1	0.347	10	82	0
43	1	435	9	2	3	0.0500	0.1017	1	0	0.273	0	0	82
43	1	436	1	2	2	0.0500	0.1017	0	0	0.639	0	82	82
43	1	437	0	2	2	0.0500	0.1017	0	1	0.314	10	0	0
43	1	438	0	2	2	0.0500	0.1017	1	0	0.297	0	82	0
43	1	439	0	1	3	0.0500	0.1017	1	1	0.742	6	0	82
43	1	440	9	1	2	0.0500	0.1017	1	1	0.571	0	0	82
43	1	441	1	2	2	0.0500	0.1017	1	1	0.429	92	0	82
43	1	442	9	1	1	0.0500	0.1017	1	1	0.677	0	0	82
43	1	443	0	1	3	0.0500	0.1017	0	0	0.575	0	0	0
43	1	444	1	2	2	0.0500	0.1017	1	1	0.336	100	0	82
43	1	445	0	2	2	0.0500	0.1017	1	0	0.216	0	82	0
43	1	446	1	2	2	0.0500	0.1017	1	1	0.300	100	0	82
43	1	447	1	2	3	0.0500	0.1017	1	1	0.318	100	0	82
43	1	448	0	1	1	0.0500	0.1017	0	1	0.350	10	0	0
43	1	449	1	2	2	0.0500	0.1017	0	0	0.247	0	82	82
43	1	450	0	1	1	0.0500	0.1017	0	1	0.260	10	0	0
43	1	451	0	1	3	0.0500	0.1017	1	1	0.526	8	0	82
43	1	452	1	1	3	0.0500	0.1017	1	0	0.275	0	82	0
43	1	453	9	2	2	0.0500	0.1017	0	1	0.322	0	82	82
43	1	454	1	1	3	0.0500	0.1017	0	1	0.346	100	82	82
43	1	455	1	2	3	0.0500	0.1017	1	1	0.426	92	0	82
43	1	456	1	1	1	0.0500	0.1017	0	1	0.191	100	82	82
43	1	457	1	1	1	0.0500	0.1017	1	0	0.161	0	82	0
43	1	458	1	1	3	0.0500	0.1017	1	0	0.473	0	82	0
43	1	459	1	1	1	0.0500	0.1017	0	1	0.395	96	82	82
43	1	460	1	1	1	0.0500	0.1017	0	1	0.335	100	82	82
43	1	461	0	1	1	0.0500	0.1017	0	1	0.338	10	0	0
43	1	462	9	2	2	0.0500	0.1017	0	1	0.345	0	82	82
43	1	463	9	2	2	0.0500	0.1017	1	1	0.388	0	0	82
43	1	464	9	2	2	0.0500	0.1017	0	1	0.317	0	0	0
43	1	465	1	1	3	0.0500	0.1017	0	1	0.495	86	82	82
43	1	466	1	1	1	0.0500	0.1017	1	1	0.471	88	82	0
43	1	467	9	1	2	0.0500	0.1017	1	0	0.482	0	82	0
43	1	468	0	1	3	0.0500	0.1017	1	1	0.781	6	0	82
43	1	469	0	1	3	0.0500	0.1017	0	1	0.424	9	0	0
43	1	470	0	2	3	0.0500	0.1017	0	1	0.403	9	0	0
43	1	471	9	1	1	0.0500	0.1017	0	1	0.365	0	82	82
43	1	472	1	2	2	0.0500	0.1017	0	1	0.392	96	82	82
43	1	473	0	2	3	0.0500	0.1017	0	1	0.353	10	0	0
43	1	474	1	1	1	0.0500	0.1017	1	1	0.442	91	82	0
43	1	475	1	1	3	0.0500	0.1017	0	1	0.370	98	82	82
43	1	476	0	2	2	0.0500	0.1017	0	1	0.340	10	0	0
43	1	477	9	2	3	0.0500	0.1017	0	1	0.266	0	0	0
43	1	478	1	2	3	0.0500	0.1017	0	1	0.383	97	82	82
43	1	479	1	1	1	0.0500	0.1017	0	1	0.400	95	82	82
43	1	480	1	2	2	0.0500	0.1017	1	1	0.446	90	0	82
43	1	481	9	1	1	0.0500	0.1017	0	1	0.386	0	0	0
43	1	482	9	2	3	0.0500	0.1017	1	0	0.553	0	82	0
43	1	483	0	2	2	0.0500	0.1017	1	1	0.526	8	82	0
43	1	484	0	2	2	0.0500	0.1017	0	1	0.265	10	0	0
43	1	485	1	2	2	0.0500	0.1017	0	1	0.307	100	82	82
43	1	486	9	1	3	0.0500	0.1017	1	0	0.552	0	82	0
43	1	487	9	1	3	0.0500	0.1017	1	1	0.611	0	0	82
43	1	488	0	2	3	0.0500	0.1017	1	1	0.538	8	82	0
43	1	489	1	2	2	0.0500	0.1017	1	1	0.390	96	0	82
43	1	490	1	2	1	0.0500	0.1017	1	1	0.363	99	0	82
43	1	491	1	1	2	0.0500	0.1017	0	1	0.318	100	82	82
43	1	492	0	1	2	0.0500	0.1017	0	1	0.276	10	0	0
43	1	493	9	2	3	0.0500	0.1017	0	1	0.379	0	82	82
43	1	494	9	1	3	0.0500	0.1017	1	1	0.413	0	82	0
43	1	495	0	2	1	0.0500	0.1017	0	1	0.329	10	0	0
43	1	496	0	2	3	0.0500	0.1017	0	1	0.252	10	0	0
43	1	497	1	2	3	0.0500	0.1017	0	1	0.373	98	82	82
43	1	498	0	2	3	0.0500	0.1017	1	0	0.558	0	82	0
43	1	499	0	2	2	0.0500	0.1017	0	1	0.138	10	0	0
43	1	500	0	2	3	0.0500	0.1017	0	1	0.295	10	0	0
43	1	501	9	2	2	0.0500	0.1017	0	1	0.272	0	82	82
43	1	502	1	1	3	0.0500	0.1017	1	0	0.252	0	82	0
43	1	503	9	1	1	0.0500	0.1017	1	1	0.428	0	82	0
43	1	504	9	1	1	0.0500	0.1017	0	1	0.316	0	0	0
43	1	505	0	2	3	0.0500	0.1017	1	0	0.274	0	82	0
43	1	506	1	1	1	0.0500	0.1017	0	1	0.360	99	82	82
43	1	507	1	1	3	0.0500	0.1017	0	1	0.329	100	82	82
43	1	508	9	1	2	0.0500	0.1017	0	1	0.310	0	0	0
43	1	509	0	1	1	0.0500	0.1017	0	0	0.714	0	0	0
43	1	510	0	1	3	0.0500	0.1017	1	1	0.558	8	0	82
43	1	511	9	1	3	0.0500	0.1017	1	1	0.461	0	82	0
43	1	512	9	1	3	0.0500	0.1017	0	1	0.413	0	0	0
43	1	513	1	1	3	0.0500	0.1017	1	1	0.452	90	82	0
43	1	514	0	1	1	0.0500	0.1017	0	1	0.271	10	0	0
43	1	515	0	2	3	0.0500	0.1017	1	0	0.320	0	82	0
43	1	516	0	2	2	0.0500	0.1017	1	0	0.530	0	82	0
43	1	517	9	2	3	0.0500	0.1017	0	1	0.375	0	82	82
43	1	518	0	1	1	0.0500	0.1017	0	1	0.279	10	0	0
43	1	519	0	2	2	0.0500	0.1017	1	0	0.395	0	82	0
43	1	520	1	2	2	0.0500	0.1017	1	1	0.368	98	0	82
43	1	521	1	1	3	0.0500	0.1017	0	1	0.339	100	82	82
43	1	522	9	1	3	0.0500	0.1017	0	1	0.293	0	82	82
43	1	523	1	2	2	0.0500	0.1017	0	0	0.380	0	82	82
43	1	524	0	2	3	0.0500	0.1017	0	1	0.215	10	0	0
43	1	525	1	1	3	0.0500	0.1017	0	1	0.277	100	82	82
43	1	526	0	1	2	0.0500	0.1017	0	1	0.164	10	0	0
43	1	527	9	2	3	0.0500	0.1017	1	1	0.383	0	0	82
43	1	528	1	2	3	0.0500	0.1017	0	1	0.318	100	82	82
43	1	529	9	2	3	0.0500	0.1017	0	1	0.230	0	0	0
43	1	530	0	1	1	0.0500	0.1017	0	1	0.418	9	0	0
43	1	531	0	1	1	0.0500	0.1017	1	1	0.305	10	0	82
43	1	532	1	2	2	0.0500	0.1017	1	1	0.518	83	0	82
43	1	533	0	2	2	0.0500	0.1017	0	1	0.136	10	0	0
43	1	534	1	2	2	0.0500	0.1017	0	1	0.327	100	82	82
43	1	535	9	1	1	0.0500	0.1017	1	1	0.299	0	82	0
43	1	536	0	2	2	0.0500	0.1017	1	0	0.284	0	82	0
43	1	537	0	1	3	0.0500	0.1017	1	1	0.405	9	0	82
43	1	538	9	2	2	0.0500	0.1017	1	0	0.286	0	0	82
43	1	539	0	2	2	0.0500	0.1017	1	0	0.376	0	82	0
43	1	540	0	1	3	0.0500	0.1017	1	1	0.445	9	0	82
43	1	541	1	1	1	0.0500	0.1017	0	1	0.309	100	82	82
43	1	542	0	2	3	0.0500	0.1017	1	0	0.303	0	82	0
43	1	543	1	2	2	0.0500	0.1017	0	1	0.277	100	82	82
43	1	544	1	1	1	0.0500	0.1017	0	1	0.239	100	82	82
43	1	545	1	2	2	0.0500	0.1017	1	1	0.320	100	0	82
43	1	546	9	1	1	0.0500	0.1017	1	0	0.249	0	82	0
43	1	547	9	2	1	0.0500	0.1017	0	0	0.299	0	0	0
43	1	548	1	1	1	0.0500	0.1017	0	1	0.239	100	82	82
43	1	549	0	1	1	0.0500	0.1017	1	0	0.243	0	0	82
43	1	550	0	1	1	0.0500	0.1017	1	1	0.516	8	0	82
43	1	551	9	1	3	0.0500	0.1017	1	0	0.283	0	0	82
43	1	552	1	2	1	0.0500	0.1017	0	1	0.338	100	82	82
43	1	553	0	1	3	0.0500	0.1017	0	1	0.227	10	0	0
43	1	554	9	1	1	0.0500	0.1017	1	0	0.260	0	82	0
43	1	555	9	2	2	0.0500	0.1017	0	1	0.315	0	82	82
43	1	556	1	2	2	0.0500	0.1017	1	0	0.239	0	0	82
43	1	557	1	1	1	0.0500	0.1017	1	1	0.549	80	82	0
43	1	558	9	2	1	0.0500	0.1017	1	0	0.360	0	82	0
43	1	559	0	1	3	0.0500	0.1017	0	1	0.301	10	0	0
43	1	560	1	2	3	0.0500	0.1017	0	1	0.299	100	82	82
43	1	561	9	2	1	0.0500	0.1017	0	1	0.320	0	82	82
43	1	562	1	1	3	0.0500	0.1017	0	1	0.339	100	82	82
43	1	563	9	1	3	0.0500	0.1017	1	0	0.502	0	0	82
43	1	564	1	2	3	0.0500	0.1017	1	0	0.251	0	0	82
43	1	565	0	1	3	0.0500	0.1017	0	0	0.422	0	0	0
43	1	566	0	2	3	0.0500	0.1017	1	0	0.344	0	82	0
43	1	567	1	1	1	0.0500	0.1017	1	0	0.329	0	82	0
43	1	568	0	1	1	0.0500	0.1017	1	0	0.387	0	0	82
43	1	569	1	2	2	0.0500	0.1017	1	1	0.351	100	0	82
43	1	570	1	2	2	0.0500	0.1017	1	0	0.260	0	0	82
43	1	571	9	2	2	0.0500	0.1017	1	1	0.587	0	82	0
43	1	572	0	2	2	0.0500	0.1017	0	1	0.409	9	0	0
43	1	573	9	1	3	0.0500	0.1017	1	1	0.566	0	82	0
43	1	574	0	1	1	0.0500	0.1017	1	0	0.284	0	0	82
43	1	575	0	1	2	0.0500	0.1017	1	1	0.568	8	0	82
43	1	576	9	2	3	0.0500	0.1017	1	1	0.451	0	0	82
43	1	577	0	1	1	0.0500	0.1017	0	0	0.530	0	0	0
43	1	578	0	1	3	0.0500	0.1017	1	1	0.468	9	0	82
43	1	579	0	2	3	0.0500	0.1017	0	1	0.409	9	0	0
43	1	580	0	2	3	0.0500	0.1017	0	1	0.261	10	0	0
43	1	581	0	1	3	0.0500	0.1017	0	1	0.456	9	0	0
43	1	582	1	2	1	0.0500	0.1017	1	1	0.473	88	0	82
43	1	583	1	1	3	0.0500	0.1017	0	1	0.319	100	82	82
43	1	584	0	1	1	0.0500	0.1017	0	1	0.355	10	0	0
43	1	585	0	1	3	0.0500	0.1017	0	1	0.329	10	0	0
43	1	586	0	1	2	0.0500	0.1017	0	1	0.294	10	0	0
43	1	587	9	2	2	0.0500	0.1017	1	1	0.366	0	0	82
43	1	588	9	2	3	0.0500	0.1017	1	1	0.380	0	0	82
43	1	589	0	1	1	0.0500	0.1017	0	1	0.482	9	0	0
43	1	590	0	2	3	0.0500	0.1017	1	1	0.505	8	82	0
43	1	591	0	2	2	0.0500	0.1017	1	0	0.327	0	82	0
43	1	592	0	1	1	0.0500	0.1017	1	1	0.260	10	0	82
43	1	593	1	2	3	0.0500	0.1017	1	1	0.379	97	0	82
43	1	594	1	2	3	0.0500	0.1017	0	1	0.442	91	82	82
43	1	595	1	2	2	0.0500	0.1017	0	1	0.327	100	82	82
43	1	596	0	2	2	0.0500	0.1017	0	1	0.220	10	0	0
43	1	597	0	2	2	0.0500	0.1017	0	1	0.224	10	0	0
43	1	598	0	1	3	0.0500	0.1017	1	1	0.443	9	0	82
43	1	599	0	2	1	0.0500	0.1017	1	0	0.247	0	82	0
43	1	600	1	2	3	0.0500	0.1017	0	1	0.275	100	82	82
43	1	601	0	2	3	0.0500	0.1017	1	0	0.517	0	82	0
43	1	602	0	2	3	0.0500	0.1017	1	0	0.300	0	82	0
43	1	603	1	2	3	0.0500	0.1017	0	1	0.319	100	82	82
43	1	604	1	2	3	0.0500	0.1017	1	1	0.416	93	0	82
43	1	605	0	2	2	0.0500	0.1017	1	0	0.269	0	82	0
43	1	606	9	2	2	0.0500	0.1017	1	0	0.329	0	82	0
43	1	607	0	1	1	0.0500	0.1017	1	0	0.693	0	0	82
43	1	608	9	2	3	0.0500	0.1017	1	0	0.451	0	82	0
43	1	609	0	2	2	0.0500	0.1017	1	0	0.338	0	82	0
43	1	610	0	2	1	0.0500	0.1017	0	1	1.580	5	0	0
43	1	611	1	2	2	0.0500	0.1017	1	1	0.395	96	0	82
43	1	612	0	1	1	0.0500	0.1017	1	1	0.727	6	0	82
43	1	613	0	1	3	0.0500	0.1017	0	1	0.411	9	0	0
43	1	614	1	1	3	0.0500	0.1017	0	1	0.316	100	82	82
43	1	615	9	1	3	0.0500	0.1017	0	1	0.238	0	0	0
43	1	616	0	1	1	0.0500	0.1017	0	1	0.317	10	0	0
43	1	617	1	1	1	0.0500	0.1017	0	1	0.352	100	82	82
43	1	618	9	1	3	0.0500	0.1017	0	1	0.364	0	0	0
43	1	619	1	1	1	0.0500	0.1017	0	1	0.278	100	82	82
43	1	620	1	1	3	0.0500	0.1017	1	0	0.656	0	82	0
43	1	621	0	2	1	0.0500	0.1017	1	0	0.522	0	82	0
43	1	622	0	2	3	0.0500	0.1017	1	0	0.350	0	82	0
43	1	623	0	1	2	0.0500	0.1017	0	1	0.319	10	0	0
43	1	624	1	2	2	0.0500	0.1017	0	1	0.299	100	82	82
43	1	625	1	2	3	0.0500	0.1017	1	1	0.447	90	0	82
43	1	626	1	1	3	0.0500	0.1017	1	0	0.410	0	82	0
43	1	627	1	2	3	0.0500	0.1017	0	1	0.323	100	82	82
43	1	628	1	2	2	0.0500	0.1017	1	1	0.375	97	0	82
43	1	629	9	2	2	0.0500	0.1017	1	1	0.347	0	0	82
43	1	630	0	2	2	0.0500	0.1017	1	1	0.392	10	82	0
43	1	631	1	1	2	0.0500	0.1017	1	0	0.500	0	82	0
43	1	632	0	1	3	0.0500	0.1017	0	1	0.500	8	0	0
43	1	633	0	1	3	0.0500	0.1017	1	0	0.690	0	0	82
43	1	634	0	1	3	0.0500	0.1017	0	1	0.580	8	0	0
43	1	635	9	2	1	0.0500	0.1017	1	1	0.309	0	0	82
43	1	636	1	1	3	0.0500	0.1017	1	0	0.332	0	82	0
43	1	637	1	1	1	0.0500	0.1017	1	1	0.427	92	82	0
43	1	638	1	1	3	0.0500	0.1017	1	0	0.423	0	82	0
43	1	639	1	2	2	0.0500	0.1017	0	1	0.328	100	82	82
43	1	640	1	2	3	0.0500	0.1017	1	1	0.374	98	0	82
43	1	641	0	2	2	0.0500	0.1017	1	0	0.342	0	82	0
43	1	642	1	1	3	0.0500	0.1017	1	0	0.282	0	82	0
43	1	643	0	2	3	0.0500	0.1017	0	1	0.431	9	0	0
43	1	644	0	2	2	0.0500	0.1017	1	0	0.262	0	82	0
43	1	645	1	2	3	0.0500	0.1017	1	1	0.347	100	0	82
43	1	646	0	2	2	0.0500	0.1017	1	1	0.386	10	82	0
43	1	647	1	2	2	0.0500	0.1017	0	1	0.290	100	82	82
43	1	648	9	2	2	0.0500	0.1017	1	0	0.359	0	82	0
43	1	649	0	2	2	0.0500	0.1017	0	1	0.297	10	0	0
43	1	650	1	1	3	0.0500	0.1017	1	1	0.400	95	82	0
43	1	651	0	2	1	0.0500	0.1017	0	0	0.274	0	0	0
43	1	652	9	2	3	0.0500	0.1017	0	1	0.234	0	82	82
43	1	653	1	2	3	0.0500	0.1017	1	1	0.424	93	0	82
43	1	654	0	1	3	0.0500	0.1017	0	1	0.375	10	0	0
43	1	655	1	2	3	0.0500	0.1017	1	1	0.319	100	0	82
43	1	656	1	2	2	0.0500	0.1017	0	1	0.303	100	82	82
43	1	657	1	2	3	0.0500	0.1017	0	1	0.397	95	82	82
43	1	658	9	1	2	0.0500	0.1017	0	0	0.408	0	82	82
43	1	659	9	2	3	0.0500	0.1017	0	1	0.339	0	0	0
43	1	660	1	1	1	0.0500	0.1017	0	1	0.416	93	82	82
43	1	661	1	1	1	0.0500	0.1017	0	1	0.331	100	82	82
43	1	662	1	2	1	0.0500	0.1017	1	1	0.361	99	0	82
43	1	663	0	1	3	0.0500	0.1017	1	1	0.443	9	0	82
43	1	664	0	2	2	0.0500	0.1017	0	1	0.254	10	0	0
43	1	665	0	2	3	0.0500	0.1017	0	1	0.350	10	0	0
43	1	666	0	1	1	0.0500	0.1017	1	0	0.305	0	0	82
43	1	667	1	2	3	0.0500	0.1017	1	1	0.368	98	0	82
43	1	668	9	1	3	0.0500	0.1017	0	1	0.459	0	82	82
43	1	669	0	2	2	0.0500	0.1017	0	1	0.419	9	0	0
43	1	670	0	1	3	0.0500	0.1017	1	1	0.464	9	0	82
43	1	671	9	1	1	0.0500	0.1017	1	1	0.615	0	0	82
43	1	672	1	1	3	0.0500	0.1017	0	1	0.334	100	82	82
43	1	673	1	1	1	0.0500	0.1017	1	1	0.368	98	82	0
43	1	674	0	1	1	0.0500	0.1017	0	1	0.315	10	0	0
43	1	675	1	2	2	0.0500	0.1017	1	1	0.311	100	0	82
43	1	676	1	2	2	0.0500	0.1017	1	1	0.385	97	0	82
43	1	677	1	1	3	0.0500	0.1017	1	0	0.423	0	82	0
43	1	678	0	2	3	0.0500	0.1017	0	1	0.436	9	0	0
43	1	679	0	1	1	0.0500	0.1017	1	1	0.467	9	0	82
43	1	680	9	2	3	0.0500	0.1017	1	0	0.308	0	82	0
43	1	681	1	1	1	0.0500	0.1017	1	1	0.409	94	82	0
43	1	682	0	1	2	0.0500	0.1017	1	0	0.640	0	0	82
43	1	683	1	1	3	0.0500	0.1017	0	1	0.376	97	82	82
43	1	684	1	2	1	0.0500	0.1017	1	1	0.310	100	0	82
43	1	685	0	2	3	0.0500	0.1017	1	0	0.395	0	82	0
43	1	686	1	2	1	0.0500	0.1017	0	1	0.343	100	82	82
43	1	687	0	1	1	0.0500	0.1017	1	1	0.305	10	0	82
43	1	688	1	1	1	0.0500	0.1017	0	1	0.250	100	82	82
43	1	689	0	2	3	0.0500	0.1017	0	0	0.371	0	0	0
43	1	690	0	2	3	0.0500	0.1017	0	1	0.256	10	0	0
43	1	691	0	1	3	0.0500	0.1017	0	1	0.324	10	0	0
43	1	692	1	2	3	0.0500	0.1017	0	1	0.341	100	82	82
43	1	693	9	2	3	0.0500	0.1017	1	0	0.343	0	82	0
43	1	694	1	1	1	0.0500	0.1017	1	0	0.313	0	82	0
43	1	695	1	2	2	0.0500	0.1017	0	1	0.310	100	82	82
43	1	696	1	1	2	0.0500	0.1017	0	1	0.307	100	82	82
43	1	697	9	1	3	0.0500	0.1017	0	1	0.365	0	82	82
43	1	698	0	2	2	0.0500	0.1017	0	1	0.338	10	0	0
43	1	699	1	2	3	0.0500	0.1017	1	0	0.330	0	0	82
43	1	700	1	1	2	0.0500	0.1017	0	1	0.263	100	82	82
43	1	701	0	1	3	0.0500	0.1017	1	1	0.270	10	0	82
43	1	702	1	1	2	0.0500	0.1017	1	0	0.307	0	82	0
43	1	703	9	1	3	0.0500	0.1017	1	1	0.376	0	0	82
43	1	704	1	1	1	0.0500	0.1017	0	1	0.279	100	82	82
43	1	705	0	2	1	0.0500	0.1017	0	1	0.312	10	0	0
43	1	706	1	1	1	0.0500	0.1017	1	1	0.411	94	82	0
43	1	707	1	2	3	0.0500	0.1017	1	1	0.434	92	0	82
43	1	708	9	2	2	0.0500	0.1017	0	1	0.252	0	0	0
43	1	709	1	2	3	0.0500	0.1017	0	1	0.292	100	82	82
43	1	710	1	1	1	0.0500	0.1017	1	1	0.344	100	82	0
43	1	711	1	2	1	0.0500	0.1017	0	1	0.269	100	82	82
43	1	712	0	1	3	0.0500	0.1017	0	1	0.338	10	0	0
43	1	713	0	1	2	0.0500	0.1017	1	1	0.284	10	0	82
43	1	714	0	1	3	0.0500	0.1017	1	1	0.256	10	0	82
43	1	715	9	2	3	0.0500	0.1017	0	1	0.131	0	0	0
43	1	716	9	1	1	0.0500	0.1017	0	1	0.293	0	82	82
43	1	717	0	1	2	0.0500	0.1017	1	1	0.251	10	0	82
43	1	718	1	1	2	0.0500	0.1017	0	1	0.197	100	82	82
43	1	719	0	2	1	0.0500	0.1017	1	0	0.204	0	82	0
43	1	720	0	2	3	0.0500	0.1017	0	1	0.268	10	0	0
