sub	sess	t	rew	loc	cue	co1	co2	or	resp	rt	rew_tot	left_col	right_col
102	1	1	1	1	1	0.0500	0.3382	1	1	0.649	70	0	82
102	1	2	1	1	3	0.0500	0.3382	1	1	1.412	50	0	82
102	1	3	1	1	2	0.0500	0.3382	0	1	1.245	50	0	0
102	1	4	9	2	2	0.0500	0.3382	0	1	0.717	0	82	82
102	1	5	1	1	1	0.0500	0.3382	1	1	0.764	59	0	82
102	1	6	9	1	3	0.0500	0.3382	1	1	1.663	0	0	82
102	1	7	0	1	3	0.0500	0.3382	1	1	1.215	5	82	0
102	1	8	0	1	1	0.0500	0.3382	0	1	0.641	7	82	82
102	1	9	0	1	1	0.0500	0.3382	1	1	0.727	6	82	0
102	1	10	9	1	3	0.0500	0.3382	1	0	1.317	0	0	82
102	1	11	9	2	1	0.0500	0.3382	0	1	0.560	0	82	82
102	1	12	1	1	3	0.0500	0.3382	0	1	0.683	67	0	0
102	1	13	9	2	2	0.0500	0.3382	1	1	0.526	0	82	0
102	1	14	1	2	3	0.0500	0.3382	0	0	0.738	0	0	0
102	1	15	0	1	3	0.0500	0.3382	1	1	0.925	5	82	0
102	1	16	1	1	3	0.0500	0.3382	1	1	0.618	73	0	82
102	1	17	0	1	1	0.0500	0.3382	0	1	0.598	8	82	82
102	1	18	9	2	2	0.0500	0.3382	1	1	0.612	0	82	0
102	1	19	1	1	3	0.0500	0.3382	0	1	0.691	66	0	0
102	1	20	1	1	3	0.0500	0.3382	0	1	0.701	65	0	0
102	1	21	9	1	3	0.0500	0.3382	1	1	0.914	0	82	0
102	1	22	1	2	1	0.0500	0.3382	1	1	0.697	65	82	0
102	1	23	9	1	1	0.0500	0.3382	0	0	0.760	0	82	82
102	1	24	1	2	2	0.0500	0.3382	0	1	0.924	50	0	0
102	1	25	1	2	1	0.0500	0.3382	0	1	0.622	73	0	0
102	1	26	0	1	1	0.0500	0.3382	1	0	0.682	0	82	0
102	1	27	1	2	3	0.0500	0.3382	0	1	1.121	50	0	0
102	1	28	0	2	2	0.0500	0.3382	1	1	0.808	5	0	82
102	1	29	0	1	1	0.0500	0.3382	1	1	1.331	5	82	0
102	1	30	0	2	2	0.0500	0.3382	0	1	0.642	7	82	82
102	1	31	1	1	1	0.0500	0.3382	1	1	1.027	50	0	82
102	1	32	0	1	1	0.0500	0.3382	1	1	0.747	6	82	0
102	1	33	1	2	1	0.0500	0.3382	0	1	0.624	73	0	0
102	1	34	0	2	2	0.0500	0.3382	1	1	1.092	5	0	82
102	1	35	1	2	3	0.0500	0.3382	0	1	0.478	87	0	0
102	1	36	1	2	3	0.0500	0.3382	0	1	0.499	85	0	0
102	1	37	1	1	1	0.0500	0.3382	0	0	0.775	0	0	0
102	1	38	1	2	3	0.0500	0.3382	1	1	0.588	76	82	0
102	1	39	1	1	1	0.0500	0.3382	0	1	0.511	84	0	0
102	1	40	1	2	3	0.0500	0.3382	0	1	0.464	89	0	0
102	1	41	0	2	3	0.0500	0.3382	0	1	0.605	7	82	82
102	1	42	1	1	3	0.0500	0.3382	1	1	1.125	50	0	82
102	1	43	1	2	2	0.0500	0.3382	0	1	0.458	89	0	0
102	1	44	1	1	1	0.0500	0.3382	1	0	0.703	0	0	82
102	1	45	1	1	3	0.0500	0.3382	0	1	0.528	82	0	0
102	1	46	0	2	2	0.0500	0.3382	1	1	0.619	7	0	82
102	1	47	1	2	2	0.0500	0.3382	0	1	0.584	77	0	0
102	1	48	1	1	3	0.0500	0.3382	0	1	0.605	74	0	0
102	1	49	0	2	3	0.0500	0.3382	0	1	0.652	7	82	82
102	1	50	9	2	2	0.0500	0.3382	1	1	0.821	0	0	82
102	1	51	9	1	3	0.0500	0.3382	1	1	1.776	0	82	0
102	1	52	1	1	3	0.0500	0.3382	1	0	0.656	0	0	82
102	1	53	1	2	2	0.0500	0.3382	0	1	0.648	70	0	0
102	1	54	0	1	2	0.0500	0.3382	1	1	0.799	6	82	0
102	1	55	0	2	2	0.0500	0.3382	0	1	0.606	7	82	82
102	1	56	1	1	1	0.0500	0.3382	0	0	0.778	0	0	0
102	1	57	1	2	3	0.0500	0.3382	1	1	0.490	86	82	0
102	1	58	9	2	2	0.0500	0.3382	1	1	0.529	0	82	0
102	1	59	0	1	3	0.0500	0.3382	0	1	0.478	9	82	82
102	1	60	0	2	3	0.0500	0.3382	0	1	0.457	9	82	82
102	1	61	1	2	2	0.0500	0.3382	0	1	0.715	64	0	0
102	1	62	9	1	1	0.0500	0.3382	0	1	0.501	0	82	82
102	1	63	9	2	2	0.0500	0.3382	0	1	0.412	0	0	0
102	1	64	1	1	2	0.0500	0.3382	0	0	0.732	0	0	0
102	1	65	0	1	3	0.0500	0.3382	1	1	0.784	6	82	0
102	1	66	0	2	3	0.0500	0.3382	0	1	0.552	8	82	82
102	1	67	0	1	3	0.0500	0.3382	0	0	0.962	0	82	82
102	1	68	1	2	2	0.0500	0.3382	0	1	0.975	50	0	0
102	1	69	9	2	1	0.0500	0.3382	1	1	0.529	0	82	0
102	1	70	0	1	2	0.0500	0.3382	0	1	0.394	10	82	82
102	1	71	9	2	2	0.0500	0.3382	0	1	0.533	0	82	82
102	1	72	0	2	2	0.0500	0.3382	1	1	0.650	7	0	82
102	1	73	0	1	3	0.0500	0.3382	0	1	0.615	7	82	82
102	1	74	9	1	3	0.0500	0.3382	0	1	0.499	0	82	82
102	1	75	1	2	3	0.0500	0.3382	1	1	0.436	91	82	0
102	1	76	0	1	1	0.0500	0.3382	0	1	0.414	9	82	82
102	1	77	1	2	1	0.0500	0.3382	1	1	0.354	100	82	0
102	1	78	1	1	3	0.0500	0.3382	0	1	0.476	87	0	0
102	1	79	1	2	3	0.0500	0.3382	0	1	0.437	91	0	0
102	1	80	0	1	2	0.0500	0.3382	0	1	0.392	10	82	82
102	1	81	0	2	3	0.0500	0.3382	0	1	0.518	8	82	82
102	1	82	1	2	2	0.0500	0.3382	1	1	0.408	94	82	0
102	1	83	0	1	3	0.0500	0.3382	0	1	0.435	9	82	82
102	1	84	0	2	3	0.0500	0.3382	0	1	0.463	9	82	82
102	1	85	1	1	1	0.0500	0.3382	1	0	0.469	0	0	82
102	1	86	1	2	2	0.0500	0.3382	1	1	0.327	100	82	0
102	1	87	1	1	1	0.0500	0.3382	0	1	0.410	94	0	0
102	1	88	0	1	1	0.0500	0.3382	0	1	0.398	10	82	82
102	1	89	1	1	1	0.0500	0.3382	1	0	0.350	0	0	82
102	1	90	0	2	2	0.0500	0.3382	0	1	0.513	8	82	82
102	1	91	0	1	1	0.0500	0.3382	1	0	0.607	0	82	0
102	1	92	1	2	3	0.0500	0.3382	0	1	0.405	95	0	0
102	1	93	1	1	3	0.0500	0.3382	0	1	0.485	86	0	0
102	1	94	0	2	2	0.0500	0.3382	1	0	0.501	0	0	82
102	1	95	1	2	2	0.0500	0.3382	1	1	0.389	96	82	0
102	1	96	1	1	1	0.0500	0.3382	0	1	0.440	91	0	0
102	1	97	1	1	1	0.0500	0.3382	0	1	0.426	92	0	0
102	1	98	0	1	3	0.0500	0.3382	0	1	0.509	8	82	82
102	1	99	1	1	3	0.0500	0.3382	1	0	0.435	0	0	82
102	1	100	0	2	1	0.0500	0.3382	1	0	0.486	0	0	82
102	1	101	9	1	2	0.0500	0.3382	1	0	0.726	0	82	0
102	1	102	1	2	3	0.0500	0.3382	0	1	0.697	65	0	0
102	1	103	9	2	3	0.0500	0.3382	0	1	0.435	0	0	0
102	1	104	9	1	1	0.0500	0.3382	1	1	0.617	0	0	82
102	1	105	1	1	3	0.0500	0.3382	1	1	0.487	86	0	82
102	1	106	0	1	3	0.0500	0.3382	0	1	0.593	8	82	82
102	1	107	9	1	3	0.0500	0.3382	0	0	0.885	0	0	0
102	1	108	9	1	3	0.0500	0.3382	1	0	0.622	0	0	82
102	1	109	0	2	3	0.0500	0.3382	1	1	0.636	7	0	82
102	1	110	0	2	3	0.0500	0.3382	0	1	0.665	7	82	82
102	1	111	1	1	3	0.0500	0.3382	0	1	0.610	74	0	0
102	1	112	0	1	1	0.0500	0.3382	0	1	0.552	8	82	82
102	1	113	9	1	1	0.0500	0.3382	1	1	0.793	0	0	82
102	1	114	0	2	2	0.0500	0.3382	0	1	0.798	6	82	82
102	1	115	0	1	3	0.0500	0.3382	0	1	0.483	9	82	82
102	1	116	1	2	2	0.0500	0.3382	1	1	0.306	100	82	0
102	1	117	1	1	2	0.0500	0.3382	0	1	0.476	87	0	0
102	1	118	0	2	1	0.0500	0.3382	0	1	0.452	9	82	82
102	1	119	9	1	1	0.0500	0.3382	1	0	0.453	0	82	0
102	1	120	1	2	2	0.0500	0.3382	1	0	0.523	0	82	0
102	1	121	0	1	1	0.0500	0.3382	1	0	0.935	0	82	0
102	1	122	1	2	2	0.0500	0.3382	0	1	0.483	87	0	0
102	1	123	1	1	2	0.0500	0.3382	0	1	0.548	80	0	0
102	1	124	9	1	3	0.0500	0.3382	0	1	0.493	0	0	0
102	1	125	0	1	3	0.0500	0.3382	1	1	0.691	7	82	0
102	1	126	0	2	2	0.0500	0.3382	0	1	0.750	6	82	82
102	1	127	0	1	3	0.0500	0.3382	0	1	0.488	9	82	82
102	1	128	0	2	3	0.0500	0.3382	0	1	0.448	9	82	82
102	1	129	1	1	1	0.0500	0.3382	0	1	0.486	86	0	0
102	1	130	0	2	2	0.0500	0.3382	1	1	0.782	6	0	82
102	1	131	1	2	3	0.0500	0.3382	0	1	0.604	75	0	0
102	1	132	0	2	2	0.0500	0.3382	0	1	0.638	7	82	82
102	1	133	0	1	1	0.0500	0.3382	1	1	0.897	5	82	0
102	1	134	0	2	3	0.0500	0.3382	1	1	0.783	6	0	82
102	1	135	1	2	3	0.0500	0.3382	0	1	0.721	63	0	0
102	1	136	1	2	2	0.0500	0.3382	0	1	0.484	87	0	0
102	1	137	0	1	3	0.0500	0.3382	1	1	0.790	6	82	0
102	1	138	1	1	1	0.0500	0.3382	0	1	0.541	81	0	0
102	1	139	1	1	1	0.0500	0.3382	1	1	0.592	76	0	82
102	1	140	9	2	3	0.0500	0.3382	1	1	0.424	0	82	0
102	1	141	1	2	3	0.0500	0.3382	1	1	0.595	75	82	0
102	1	142	1	1	3	0.0500	0.3382	1	0	0.690	0	0	82
102	1	143	9	1	1	0.0500	0.3382	1	1	0.627	0	82	0
102	1	144	0	1	3	0.0500	0.3382	1	0	0.327	0	82	0
102	1	145	9	2	3	0.0500	0.3382	1	1	0.339	0	0	82
102	1	146	0	2	2	0.0500	0.3382	1	1	0.489	9	0	82
102	1	147	9	2	3	0.0500	0.3382	1	1	0.568	0	82	0
102	1	148	9	1	1	0.0500	0.3382	0	1	0.443	0	0	0
102	1	149	0	1	3	0.0500	0.3382	0	1	0.420	9	82	82
102	1	150	0	1	3	0.0500	0.3382	1	1	1.436	5	82	0
102	1	151	1	1	3	0.0500	0.3382	0	1	0.564	79	0	0
102	1	152	1	1	1	0.0500	0.3382	1	1	0.614	74	0	82
102	1	153	1	1	3	0.0500	0.3382	1	1	0.650	70	0	82
102	1	154	1	1	3	0.0500	0.3382	1	1	0.365	98	0	82
102	1	155	0	1	1	0.0500	0.3382	0	0	0.323	0	82	82
102	1	156	1	1	1	0.0500	0.3382	1	1	0.432	92	0	82
102	1	157	0	1	1	0.0500	0.3382	1	0	0.432	0	82	0
102	1	158	1	1	1	0.0500	0.3382	1	1	0.585	76	0	82
102	1	159	1	1	3	0.0500	0.3382	1	1	0.509	84	0	82
102	1	160	1	2	2	0.0500	0.3382	1	1	0.419	93	82	0
102	1	161	1	2	1	0.0500	0.3382	1	1	0.343	100	82	0
102	1	162	1	2	2	0.0500	0.3382	1	1	0.356	99	82	0
102	1	163	0	1	1	0.0500	0.3382	1	0	0.525	0	82	0
102	1	164	0	2	1	0.0500	0.3382	1	1	0.465	9	0	82
102	1	165	9	2	1	0.0500	0.3382	1	0	1.145	0	0	82
102	1	166	0	2	2	0.0500	0.3382	0	1	0.731	6	82	82
102	1	167	9	2	2	0.0500	0.3382	1	1	0.319	0	82	0
102	1	168	0	2	3	0.0500	0.3382	0	0	0.437	0	82	82
102	1	169	1	1	3	0.0500	0.3382	1	1	0.334	100	0	82
102	1	170	0	2	3	0.0500	0.3382	1	1	0.551	8	0	82
102	1	171	0	1	3	0.0500	0.3382	0	0	0.408	0	82	82
102	1	172	9	1	3	0.0500	0.3382	0	1	0.484	0	0	0
102	1	173	0	2	2	0.0500	0.3382	0	1	0.520	8	82	82
102	1	174	9	1	3	0.0500	0.3382	1	1	0.584	0	82	0
102	1	175	0	2	2	0.0500	0.3382	1	1	0.720	6	0	82
102	1	176	1	2	2	0.0500	0.3382	1	0	0.410	0	82	0
102	1	177	1	1	1	0.0500	0.3382	1	1	0.620	73	0	82
102	1	178	1	2	3	0.0500	0.3382	1	1	0.361	99	82	0
102	1	179	0	2	1	0.0500	0.3382	0	1	0.521	8	82	82
102	1	180	0	2	2	0.0500	0.3382	0	1	0.456	9	82	82
102	1	181	0	1	3	0.0500	0.3382	0	0	0.602	0	82	82
102	1	182	9	2	3	0.0500	0.3382	1	1	0.565	0	82	0
102	1	183	0	1	2	0.0500	0.3382	0	1	0.297	10	82	82
102	1	184	1	1	1	0.0500	0.3382	1	0	0.463	0	0	82
102	1	185	0	1	1	0.0500	0.3382	1	1	1.350	5	82	0
102	1	186	0	1	1	0.0500	0.3382	1	1	1.179	5	82	0
102	1	187	1	2	2	0.0500	0.3382	1	1	0.610	74	82	0
102	1	188	0	2	1	0.0500	0.3382	1	1	0.572	8	0	82
102	1	189	9	1	1	0.0500	0.3382	0	1	0.461	0	0	0
102	1	190	1	1	3	0.0500	0.3382	0	1	0.477	87	0	0
102	1	191	9	2	2	0.0500	0.3382	0	1	1.116	0	0	0
102	1	192	0	1	2	0.0500	0.3382	1	0	0.761	0	82	0
102	1	193	0	1	1	0.0500	0.3382	0	0	0.506	0	82	82
102	1	194	0	2	3	0.0500	0.3382	0	1	0.330	10	82	82
102	1	195	9	1	2	0.0500	0.3382	0	1	0.576	0	82	82
102	1	196	9	2	3	0.0500	0.3382	0	1	0.539	0	82	82
102	1	197	0	2	3	0.0500	0.3382	1	1	0.529	8	0	82
102	1	198	1	2	2	0.0500	0.3382	1	1	0.523	83	82	0
102	1	199	9	2	3	0.0500	0.3382	0	1	0.750	0	0	0
102	1	200	0	2	3	0.0500	0.3382	0	1	0.567	8	82	82
102	1	201	1	1	2	0.0500	0.3382	1	1	0.643	71	0	82
102	1	202	9	2	3	0.0500	0.3382	1	1	0.671	0	0	82
102	1	203	1	2	3	0.0500	0.3382	1	1	0.475	87	82	0
102	1	204	9	1	2	0.0500	0.3382	1	1	0.416	0	0	82
102	1	205	1	1	3	0.0500	0.3382	1	1	0.632	72	0	82
102	1	206	1	1	3	0.0500	0.3382	0	1	0.640	71	0	0
102	1	207	1	1	1	0.0500	0.3382	1	1	0.594	76	0	82
102	1	208	1	1	3	0.0500	0.3382	1	1	0.686	66	0	82
102	1	209	9	1	3	0.0500	0.3382	1	1	0.615	0	0	82
102	1	210	9	2	2	0.0500	0.3382	0	1	0.553	0	0	0
102	1	211	0	1	3	0.0500	0.3382	0	0	0.314	0	82	82
102	1	212	9	2	2	0.0500	0.3382	1	1	0.637	0	0	82
102	1	213	1	2	3	0.0500	0.3382	1	1	0.365	98	82	0
102	1	214	1	1	1	0.0500	0.3382	0	1	0.402	95	0	0
102	1	215	1	2	3	0.0500	0.3382	1	1	0.369	98	82	0
102	1	216	0	2	3	0.0500	0.3382	0	1	0.415	9	82	82
102	1	217	1	2	3	0.0500	0.3382	0	1	0.438	91	0	0
102	1	218	1	2	2	0.0500	0.3382	0	1	0.575	77	0	0
102	1	219	0	2	2	0.0500	0.3382	1	1	0.897	5	0	82
102	1	220	1	2	2	0.0500	0.3382	0	1	0.490	86	0	0
102	1	221	1	1	3	0.0500	0.3382	0	1	0.387	96	0	0
102	1	222	1	2	3	0.0500	0.3382	1	1	0.421	93	82	0
102	1	223	1	2	2	0.0500	0.3382	0	1	0.460	89	0	0
102	1	224	0	2	2	0.0500	0.3382	0	1	0.526	8	82	82
102	1	225	9	2	3	0.0500	0.3382	1	0	0.470	0	0	82
102	1	226	0	2	3	0.0500	0.3382	1	1	0.906	5	0	82
102	1	227	0	1	1	0.0500	0.3382	0	1	0.560	8	82	82
102	1	228	9	2	2	0.0500	0.3382	0	1	0.640	0	82	82
102	1	229	9	2	3	0.0500	0.3382	0	1	0.428	0	82	82
102	1	230	0	2	3	0.0500	0.3382	1	1	0.761	6	0	82
102	1	231	1	2	3	0.0500	0.3382	0	1	0.409	94	0	0
102	1	232	0	2	2	0.0500	0.3382	0	1	0.660	7	82	82
102	1	233	0	1	2	0.0500	0.3382	1	1	0.894	5	82	0
102	1	234	0	1	3	0.0500	0.3382	0	1	0.616	7	82	82
102	1	235	1	1	2	0.0500	0.3382	1	1	0.776	57	0	82
102	1	236	0	2	2	0.0500	0.3382	1	1	0.589	8	0	82
102	1	237	0	1	3	0.0500	0.3382	1	1	0.955	5	82	0
102	1	238	1	2	3	0.0500	0.3382	1	1	0.568	78	82	0
102	1	239	0	1	3	0.0500	0.3382	1	0	0.840	0	82	0
102	1	240	0	1	3	0.0500	0.3382	1	1	1.166	5	82	0
102	1	241	1	2	2	0.0500	0.3382	0	1	0.555	79	0	0
102	1	242	0	2	2	0.0500	0.3382	0	1	0.497	9	82	82
102	1	243	1	2	2	0.0500	0.3382	1	1	0.281	100	82	0
102	1	244	0	2	1	0.0500	0.3382	0	1	0.539	8	82	82
102	1	245	1	1	3	0.0500	0.3382	0	1	0.525	83	0	0
102	1	246	0	1	3	0.0500	0.3382	1	0	0.704	0	82	0
102	1	247	1	1	2	0.0500	0.3382	1	1	0.531	82	0	82
102	1	248	0	1	1	0.0500	0.3382	0	1	0.480	9	82	82
102	1	249	9	1	1	0.0500	0.3382	0	1	0.485	0	82	82
102	1	250	1	2	3	0.0500	0.3382	0	1	0.406	94	0	0
102	1	251	0	1	2	0.0500	0.3382	1	1	0.803	5	82	0
102	1	252	1	2	3	0.0500	0.3382	1	0	0.343	0	82	0
102	1	253	0	2	2	0.0500	0.3382	1	1	0.926	5	0	82
102	1	254	1	1	3	0.0500	0.3382	0	1	0.745	61	0	0
102	1	255	0	2	2	0.0500	0.3382	1	1	0.659	7	0	82
102	1	256	1	2	3	0.0500	0.3382	0	1	0.613	74	0	0
102	1	257	0	2	2	0.0500	0.3382	1	1	0.529	8	0	82
102	1	258	0	1	1	0.0500	0.3382	0	1	0.440	9	82	82
102	1	259	9	2	3	0.0500	0.3382	1	1	0.340	0	82	0
102	1	260	9	1	3	0.0500	0.3382	0	1	0.360	0	0	0
102	1	261	0	1	1	0.0500	0.3382	1	1	0.358	10	82	0
102	1	262	1	1	1	0.0500	0.3382	0	1	0.332	100	0	0
102	1	263	1	2	2	0.0500	0.3382	1	1	0.226	100	82	0
102	1	264	0	2	3	0.0500	0.3382	0	1	0.232	10	82	82
102	1	265	0	1	1	0.0500	0.3382	1	1	0.330	10	82	0
102	1	266	9	1	1	0.0500	0.3382	0	1	0.333	0	0	0
102	1	267	1	2	3	0.0500	0.3382	0	1	0.411	94	0	0
102	1	268	0	1	3	0.0500	0.3382	0	1	0.277	10	82	82
102	1	269	0	2	3	0.0500	0.3382	1	1	0.383	10	0	82
102	1	270	0	1	1	0.0500	0.3382	0	1	0.359	10	82	82
102	1	271	0	2	3	0.0500	0.3382	0	1	0.329	10	82	82
102	1	272	1	2	3	0.0500	0.3382	1	1	0.150	100	82	0
102	1	273	1	2	1	0.0500	0.3382	1	1	0.303	100	82	0
102	1	274	0	2	2	0.0500	0.3382	1	0	0.278	0	0	82
102	1	275	9	2	3	0.0500	0.3382	0	0	0.248	0	82	82
102	1	276	1	1	1	0.0500	0.3382	0	1	0.426	92	0	0
102	1	277	9	2	3	0.0500	0.3382	0	0	0.274	0	82	82
102	1	278	0	1	1	0.0500	0.3382	0	1	0.393	10	82	82
102	1	279	1	1	3	0.0500	0.3382	1	0	0.358	0	0	82
102	1	280	1	2	3	0.0500	0.3382	1	1	0.483	87	82	0
102	1	281	1	1	1	0.0500	0.3382	1	0	0.517	0	0	82
102	1	282	9	1	1	0.0500	0.3382	1	1	0.497	0	0	82
102	1	283	1	1	3	0.0500	0.3382	1	1	0.515	83	0	82
102	1	284	1	1	1	0.0500	0.3382	0	1	0.378	97	0	0
102	1	285	0	2	3	0.0500	0.3382	1	1	0.412	9	0	82
102	1	286	0	2	2	0.0500	0.3382	0	1	0.395	10	82	82
102	1	287	0	1	3	0.0500	0.3382	1	1	0.233	10	82	0
102	1	288	0	2	3	0.0500	0.3382	1	0	0.349	0	0	82
102	1	289	9	2	2	0.0500	0.3382	1	1	0.473	0	0	82
102	1	290	0	2	2	0.0500	0.3382	0	1	0.439	9	82	82
102	1	291	0	2	3	0.0500	0.3382	1	0	0.783	0	0	82
102	1	292	0	1	3	0.0500	0.3382	1	1	0.737	6	82	0
102	1	293	1	2	2	0.0500	0.3382	0	1	0.369	98	0	0
102	1	294	0	1	2	0.0500	0.3382	0	1	0.500	9	82	82
102	1	295	1	1	1	0.0500	0.3382	0	1	0.327	100	0	0
102	1	296	9	1	1	0.0500	0.3382	0	1	0.416	0	82	82
102	1	297	0	2	3	0.0500	0.3382	1	1	0.586	8	0	82
102	1	298	1	2	3	0.0500	0.3382	0	1	0.324	100	0	0
102	1	299	1	1	3	0.0500	0.3382	1	0	0.443	0	0	82
102	1	300	9	2	2	0.0500	0.3382	0	1	0.368	0	0	0
102	1	301	0	1	1	0.0500	0.3382	0	1	0.355	10	82	82
102	1	302	1	2	2	0.0500	0.3382	0	1	0.435	92	0	0
102	1	303	1	1	1	0.0500	0.3382	0	1	0.395	96	0	0
102	1	304	9	1	3	0.0500	0.3382	0	1	0.443	0	82	82
102	1	305	0	2	1	0.0500	0.3382	0	0	0.197	0	82	82
102	1	306	0	2	2	0.0500	0.3382	0	1	0.151	10	82	82
102	1	307	9	1	3	0.0500	0.3382	1	1	0.255	0	82	0
102	1	308	1	2	1	0.0500	0.3382	0	1	0.315	100	0	0
102	1	309	0	2	3	0.0500	0.3382	1	0	0.260	0	0	82
102	1	310	0	1	3	0.0500	0.3382	1	1	0.284	10	82	0
102	1	311	0	2	2	0.0500	0.3382	0	1	0.261	10	82	82
102	1	312	9	2	3	0.0500	0.3382	0	1	0.376	0	0	0
102	1	313	0	2	3	0.0500	0.3382	1	1	0.851	5	0	82
102	1	314	1	2	2	0.0500	0.3382	1	0	0.274	0	82	0
102	1	315	0	2	1	0.0500	0.3382	1	1	0.665	7	0	82
102	1	316	0	2	3	0.0500	0.3382	1	1	0.727	6	0	82
102	1	317	1	2	2	0.0500	0.3382	1	1	0.451	90	82	0
102	1	318	1	2	1	0.0500	0.3382	0	1	0.307	100	0	0
102	1	319	0	2	3	0.0500	0.3382	0	1	0.397	10	82	82
102	1	320	0	1	1	0.0500	0.3382	0	1	0.400	10	82	82
102	1	321	0	1	1	0.0500	0.3382	1	0	0.392	0	82	0
102	1	322	0	1	3	0.0500	0.3382	1	0	0.538	0	82	0
102	1	323	9	1	3	0.0500	0.3382	0	1	0.474	0	82	82
102	1	324	0	2	2	0.0500	0.3382	1	1	0.712	6	0	82
102	1	325	0	1	1	0.0500	0.3382	1	1	0.792	6	82	0
102	1	326	1	2	2	0.0500	0.3382	1	1	0.450	90	82	0
102	1	327	1	1	3	0.0500	0.3382	0	1	0.608	74	0	0
102	1	328	9	2	2	0.0500	0.3382	0	1	0.522	0	82	82
102	1	329	9	1	2	0.0500	0.3382	0	1	0.463	0	0	0
102	1	330	0	1	3	0.0500	0.3382	1	0	0.433	0	82	0
102	1	331	1	2	2	0.0500	0.3382	0	1	0.426	92	0	0
102	1	332	9	2	2	0.0500	0.3382	1	1	0.737	0	0	82
102	1	333	9	1	1	0.0500	0.3382	0	1	0.521	0	0	0
102	1	334	1	1	1	0.0500	0.3382	1	0	0.478	0	0	82
102	1	335	9	2	3	0.0500	0.3382	1	1	0.642	0	0	82
102	1	336	1	1	1	0.0500	0.3382	0	1	0.624	73	0	0
102	1	337	0	2	3	0.0500	0.3382	0	1	0.522	8	82	82
102	1	338	9	1	1	0.0500	0.3382	1	1	0.631	0	0	82
102	1	339	0	2	3	0.0500	0.3382	1	1	0.763	6	0	82
102	1	340	9	1	1	0.0500	0.3382	1	0	0.766	0	82	0
102	1	341	9	1	3	0.0500	0.3382	0	1	0.545	0	82	82
102	1	342	9	2	1	0.0500	0.3382	0	1	0.406	0	0	0
102	1	343	0	1	1	0.0500	0.3382	0	1	0.582	8	82	82
102	1	344	0	1	3	0.0500	0.3382	0	1	0.440	9	82	82
102	1	345	1	1	1	0.0500	0.3382	0	1	0.378	97	0	0
102	1	346	1	2	3	0.0500	0.3382	1	1	0.396	95	82	0
102	1	347	0	1	1	0.0500	0.3382	0	1	0.390	10	82	82
102	1	348	1	2	3	0.0500	0.3382	1	1	0.256	100	82	0
102	1	349	1	2	2	0.0500	0.3382	0	1	0.414	94	0	0
102	1	350	1	2	2	0.0500	0.3382	1	1	0.475	87	82	0
102	1	351	0	2	2	0.0500	0.3382	1	1	0.618	7	0	82
102	1	352	1	1	2	0.0500	0.3382	1	0	1.572	0	0	82
102	1	353	0	2	3	0.0500	0.3382	1	1	1.074	5	0	82
102	1	354	1	1	3	0.0500	0.3382	0	1	0.847	50	0	0
102	1	355	1	2	3	0.0500	0.3382	1	1	0.351	100	82	0
102	1	356	0	1	1	0.0500	0.3382	1	0	0.474	0	82	0
102	1	357	9	2	3	0.0500	0.3382	0	1	0.457	0	0	0
102	1	358	1	1	1	0.0500	0.3382	1	1	0.846	50	0	82
102	1	359	9	1	1	0.0500	0.3382	1	1	0.920	0	82	0
102	1	360	0	1	3	0.0500	0.3382	0	1	0.561	8	82	82
102	1	361	0	2	1	0.0500	0.3382	0	1	0.321	10	82	82
102	1	362	1	1	3	0.0500	0.3382	0	1	0.516	83	0	0
102	1	363	1	2	3	0.0500	0.3382	1	1	0.507	84	82	0
102	1	364	1	2	3	0.0500	0.3382	1	1	0.276	100	82	0
102	1	365	9	2	3	0.0500	0.3382	0	1	0.235	0	0	0
102	1	366	1	2	3	0.0500	0.3382	0	1	0.454	90	0	0
102	1	367	1	2	2	0.0500	0.3382	1	1	0.353	100	82	0
102	1	368	1	1	1	0.0500	0.3382	0	1	0.366	98	0	0
102	1	369	0	2	3	0.0500	0.3382	0	1	0.371	10	82	82
102	1	370	0	2	2	0.0500	0.3382	1	1	0.475	9	0	82
102	1	371	0	1	3	0.0500	0.3382	0	1	0.395	10	82	82
102	1	372	0	1	1	0.0500	0.3382	1	0	0.485	0	82	0
102	1	373	9	1	3	0.0500	0.3382	0	1	0.486	0	0	0
102	1	374	0	2	2	0.0500	0.3382	1	1	0.473	9	0	82
102	1	375	9	2	2	0.0500	0.3382	0	1	0.287	0	82	82
102	1	376	9	2	3	0.0500	0.3382	1	1	0.261	0	82	0
102	1	377	1	1	1	0.0500	0.3382	0	1	0.366	98	0	0
102	1	378	0	2	3	0.0500	0.3382	1	0	0.391	0	0	82
102	1	379	0	2	2	0.0500	0.3382	1	1	0.520	8	0	82
102	1	380	9	1	3	0.0500	0.3382	1	0	0.731	0	82	0
102	1	381	0	1	1	0.0500	0.3382	0	1	0.495	9	82	82
102	1	382	9	1	1	0.0500	0.3382	0	1	0.381	0	0	0
102	1	383	1	1	3	0.0500	0.3382	0	1	0.343	100	0	0
102	1	384	0	1	3	0.0500	0.3382	0	0	0.328	0	82	82
102	1	385	1	1	3	0.0500	0.3382	1	1	0.504	85	0	82
102	1	386	1	1	1	0.0500	0.3382	1	1	0.400	95	0	82
102	1	387	0	1	2	0.0500	0.3382	1	1	0.268	10	82	0
102	1	388	1	1	1	0.0500	0.3382	1	0	0.341	0	0	82
102	1	389	9	1	3	0.0500	0.3382	0	1	0.793	0	82	82
102	1	390	0	1	3	0.0500	0.3382	0	1	0.683	7	82	82
102	1	391	1	1	1	0.0500	0.3382	1	1	0.642	71	0	82
102	1	392	9	2	2	0.0500	0.3382	0	1	0.697	0	0	0
102	1	393	9	2	3	0.0500	0.3382	0	1	0.456	0	82	82
102	1	394	1	1	1	0.0500	0.3382	0	1	0.615	73	0	0
102	1	395	0	2	2	0.0500	0.3382	0	1	0.610	7	82	82
102	1	396	0	1	1	0.0500	0.3382	0	1	0.434	9	82	82
102	1	397	0	1	1	0.0500	0.3382	1	1	0.822	5	82	0
102	1	398	1	2	2	0.0500	0.3382	0	1	0.270	100	0	0
102	1	399	0	1	3	0.0500	0.3382	1	0	0.284	0	82	0
102	1	400	0	2	2	0.0500	0.3382	1	1	0.402	9	0	82
102	1	401	9	2	2	0.0500	0.3382	1	1	0.359	0	82	0
102	1	402	0	2	2	0.0500	0.3382	1	1	0.714	6	0	82
102	1	403	1	2	3	0.0500	0.3382	0	1	0.349	100	0	0
102	1	404	1	1	3	0.0500	0.3382	0	0	0.728	0	0	0
102	1	405	1	1	2	0.0500	0.3382	1	1	0.536	81	0	82
102	1	406	0	1	2	0.0500	0.3382	1	0	0.993	0	82	0
102	1	407	9	1	3	0.0500	0.3382	0	1	0.573	0	0	0
102	1	408	0	2	1	0.0500	0.3382	1	1	0.697	7	0	82
102	1	409	9	2	1	0.0500	0.3382	0	1	0.527	0	0	0
102	1	410	0	1	1	0.0500	0.3382	0	1	1.338	5	82	82
102	1	411	1	2	2	0.0500	0.3382	0	1	0.550	80	0	0
102	1	412	0	1	1	0.0500	0.3382	0	1	0.534	8	82	82
102	1	413	1	2	2	0.0500	0.3382	0	1	0.349	100	0	0
102	1	414	0	2	3	0.0500	0.3382	1	1	0.460	9	0	82
102	1	415	9	1	3	0.0500	0.3382	1	0	0.409	0	82	0
102	1	416	0	1	3	0.0500	0.3382	0	0	0.322	0	82	82
102	1	417	1	1	1	0.0500	0.3382	0	0	0.964	0	0	0
102	1	418	1	1	1	0.0500	0.3382	0	0	0.968	0	0	0
102	1	419	9	1	1	0.0500	0.3382	1	0	0.742	0	82	0
102	1	420	1	2	2	0.0500	0.3382	0	1	0.513	84	0	0
102	1	421	9	2	2	0.0500	0.3382	1	1	0.550	0	0	82
102	1	422	1	2	3	0.0500	0.3382	0	1	0.477	87	0	0
102	1	423	1	1	1	0.0500	0.3382	1	1	0.665	69	0	82
102	1	424	1	1	1	0.0500	0.3382	1	1	1.010	50	0	82
102	1	425	1	2	2	0.0500	0.3382	0	1	0.412	94	0	0
102	1	426	9	2	3	0.0500	0.3382	0	0	0.432	0	0	0
102	1	427	0	1	1	0.0500	0.3382	0	1	0.642	7	82	82
102	1	428	1	2	3	0.0500	0.3382	1	1	0.383	97	82	0
102	1	429	1	2	2	0.0500	0.3382	1	1	0.536	81	82	0
102	1	430	9	1	3	0.0500	0.3382	1	0	0.648	0	82	0
102	1	431	1	1	3	0.0500	0.3382	0	0	0.313	0	0	0
102	1	432	1	2	3	0.0500	0.3382	1	1	0.775	58	82	0
102	1	433	9	1	1	0.0500	0.3382	0	1	0.390	0	0	0
102	1	434	9	1	2	0.0500	0.3382	0	1	0.438	0	0	0
102	1	435	1	1	1	0.0500	0.3382	0	1	0.385	97	0	0
102	1	436	1	2	3	0.0500	0.3382	0	1	0.435	92	0	0
102	1	437	9	2	3	0.0500	0.3382	0	1	0.513	0	82	82
102	1	438	0	1	2	0.0500	0.3382	1	0	0.491	0	82	0
102	1	439	0	1	1	0.0500	0.3382	1	1	0.291	10	82	0
102	1	440	9	1	1	0.0500	0.3382	1	0	0.327	0	82	0
102	1	441	9	2	1	0.0500	0.3382	1	0	0.520	0	0	82
102	1	442	1	1	1	0.0500	0.3382	1	1	0.788	56	0	82
102	1	443	1	1	3	0.0500	0.3382	0	0	0.662	0	0	0
102	1	444	0	2	2	0.0500	0.3382	0	1	0.388	10	82	82
102	1	445	0	2	3	0.0500	0.3382	0	0	0.381	0	82	82
102	1	446	0	2	3	0.0500	0.3382	0	1	0.644	7	82	82
102	1	447	1	1	3	0.0500	0.3382	0	1	0.502	85	0	0
102	1	448	0	2	3	0.0500	0.3382	0	1	0.376	10	82	82
102	1	449	0	1	1	0.0500	0.3382	0	1	0.398	10	82	82
102	1	450	1	2	3	0.0500	0.3382	1	1	0.358	99	82	0
102	1	451	1	1	3	0.0500	0.3382	1	0	0.381	0	0	82
102	1	452	9	2	3	0.0500	0.3382	1	1	0.342	0	82	0
102	1	453	0	1	3	0.0500	0.3382	0	1	0.589	8	82	82
102	1	454	1	2	3	0.0500	0.3382	0	1	0.462	89	0	0
102	1	455	0	1	1	0.0500	0.3382	1	1	0.701	6	82	0
102	1	456	0	1	3	0.0500	0.3382	1	0	0.495	0	82	0
102	1	457	0	2	2	0.0500	0.3382	0	1	0.512	8	82	82
102	1	458	9	1	1	0.0500	0.3382	1	0	0.650	0	82	0
102	1	459	1	2	1	0.0500	0.3382	1	1	0.382	97	82	0
102	1	460	0	2	2	0.0500	0.3382	0	1	0.446	9	82	82
102	1	461	1	1	3	0.0500	0.3382	0	1	0.688	66	0	0
102	1	462	0	1	2	0.0500	0.3382	0	1	0.230	10	82	82
102	1	463	0	2	2	0.0500	0.3382	1	1	0.361	10	0	82
102	1	464	1	2	3	0.0500	0.3382	0	1	0.242	100	0	0
102	1	465	0	2	3	0.0500	0.3382	0	1	0.397	10	82	82
102	1	466	9	1	3	0.0500	0.3382	1	1	0.189	0	82	0
102	1	467	1	2	1	0.0500	0.3382	1	1	0.405	95	82	0
102	1	468	1	1	2	0.0500	0.3382	0	1	0.395	96	0	0
102	1	469	9	1	3	0.0500	0.3382	0	0	0.365	0	82	82
102	1	470	1	2	2	0.0500	0.3382	0	1	0.261	100	0	0
102	1	471	9	1	1	0.0500	0.3382	1	1	0.328	0	0	82
102	1	472	1	1	3	0.0500	0.3382	1	1	0.597	75	0	82
102	1	473	1	2	3	0.0500	0.3382	0	1	0.281	100	0	0
102	1	474	1	1	2	0.0500	0.3382	0	1	0.292	100	0	0
102	1	475	9	2	2	0.0500	0.3382	1	1	0.152	0	82	0
102	1	476	9	2	3	0.0500	0.3382	1	0	0.304	0	0	82
102	1	477	9	2	3	0.0500	0.3382	0	0	0.276	0	82	82
102	1	478	1	1	2	0.0500	0.3382	0	1	0.554	80	0	0
102	1	479	1	1	3	0.0500	0.3382	1	1	0.469	88	0	82
102	1	480	0	1	1	0.0500	0.3382	0	0	0.341	0	82	82
102	1	481	1	2	2	0.0500	0.3382	1	1	0.362	99	82	0
102	1	482	0	2	3	0.0500	0.3382	0	1	0.385	10	82	82
102	1	483	9	2	2	0.0500	0.3382	0	0	0.322	0	82	82
102	1	484	0	2	3	0.0500	0.3382	0	1	0.427	9	82	82
102	1	485	1	2	3	0.0500	0.3382	1	1	0.352	100	82	0
102	1	486	1	1	1	0.0500	0.3382	1	0	0.174	0	0	82
102	1	487	1	1	1	0.0500	0.3382	0	1	0.476	87	0	0
102	1	488	0	2	3	0.0500	0.3382	1	1	0.433	9	0	82
102	1	489	9	2	2	0.0500	0.3382	1	1	0.431	0	0	82
102	1	490	0	2	3	0.0500	0.3382	0	1	0.398	10	82	82
102	1	491	0	2	3	0.0500	0.3382	1	1	0.464	9	0	82
102	1	492	1	1	3	0.0500	0.3382	0	1	0.643	71	0	0
102	1	493	1	2	3	0.0500	0.3382	1	1	0.279	100	82	0
102	1	494	0	2	2	0.0500	0.3382	0	1	0.461	9	82	82
102	1	495	0	2	2	0.0500	0.3382	0	1	0.364	10	82	82
102	1	496	0	1	3	0.0500	0.3382	1	1	0.247	10	82	0
102	1	497	0	1	1	0.0500	0.3382	1	0	0.233	0	82	0
102	1	498	1	2	3	0.0500	0.3382	1	1	0.309	100	82	0
102	1	499	1	2	2	0.0500	0.3382	0	1	0.463	89	0	0
102	1	500	0	2	3	0.0500	0.3382	1	1	0.288	10	0	82
102	1	501	0	1	1	0.0500	0.3382	0	0	1.085	0	82	82
102	1	502	1	1	2	0.0500	0.3382	1	1	0.513	84	0	82
102	1	503	9	1	3	0.0500	0.3382	0	1	0.255	0	0	0
102	1	504	0	1	1	0.0500	0.3382	1	1	0.222	10	82	0
102	1	505	9	1	3	0.0500	0.3382	1	0	0.293	0	0	82
102	1	506	1	1	3	0.0500	0.3382	1	0	0.846	0	0	82
102	1	507	0	2	1	0.0500	0.3382	0	0	0.303	0	82	82
102	1	508	0	2	3	0.0500	0.3382	0	1	0.164	10	82	82
102	1	509	0	2	2	0.0500	0.3382	1	1	0.637	7	0	82
102	1	510	9	2	2	0.0500	0.3382	1	1	0.328	0	82	0
102	1	511	1	1	2	0.0500	0.3382	1	0	0.346	0	0	82
102	1	512	1	1	1	0.0500	0.3382	1	1	0.446	90	0	82
102	1	513	1	2	3	0.0500	0.3382	0	1	0.462	89	0	0
102	1	514	1	1	3	0.0500	0.3382	0	1	0.456	89	0	0
102	1	515	0	1	3	0.0500	0.3382	1	0	1.041	0	82	0
102	1	516	0	1	3	0.0500	0.3382	1	1	0.941	5	82	0
102	1	517	1	1	3	0.0500	0.3382	0	1	0.517	83	0	0
102	1	518	0	2	3	0.0500	0.3382	1	1	0.598	8	0	82
102	1	519	1	1	3	0.0500	0.3382	1	1	0.845	51	0	82
102	1	520	1	1	3	0.0500	0.3382	1	1	0.522	83	0	82
102	1	521	0	1	3	0.0500	0.3382	0	0	0.282	0	82	82
102	1	522	1	2	2	0.0500	0.3382	1	0	0.277	0	82	0
102	1	523	0	1	3	0.0500	0.3382	1	1	0.247	10	82	0
102	1	524	0	2	2	0.0500	0.3382	1	0	0.299	0	0	82
102	1	525	1	2	2	0.0500	0.3382	1	1	0.271	100	82	0
102	1	526	1	1	3	0.0500	0.3382	0	1	0.349	100	0	0
102	1	527	0	1	2	0.0500	0.3382	0	0	0.472	0	82	82
102	1	528	1	1	3	0.0500	0.3382	0	1	0.438	91	0	0
102	1	529	1	1	2	0.0500	0.3382	1	0	1.609	0	0	82
102	1	530	1	1	3	0.0500	0.3382	0	1	0.527	82	0	0
102	1	531	0	1	3	0.0500	0.3382	1	1	0.949	5	82	0
102	1	532	0	1	3	0.0500	0.3382	1	0	0.828	0	82	0
102	1	533	0	2	2	0.0500	0.3382	0	1	0.543	8	82	82
102	1	534	0	1	1	0.0500	0.3382	1	1	0.658	7	82	0
102	1	535	1	2	2	0.0500	0.3382	1	1	0.478	87	82	0
102	1	536	0	1	3	0.0500	0.3382	1	0	0.372	0	82	0
102	1	537	0	1	1	0.0500	0.3382	0	0	0.373	0	82	82
102	1	538	1	2	2	0.0500	0.3382	1	1	0.410	94	82	0
102	1	539	9	1	1	0.0500	0.3382	0	0	1.640	0	82	82
102	1	540	0	1	3	0.0500	0.3382	1	0	0.582	0	82	0
102	1	541	0	1	1	0.0500	0.3382	1	1	0.300	10	82	0
102	1	542	1	1	3	0.0500	0.3382	1	0	0.285	0	0	82
102	1	543	1	2	1	0.0500	0.3382	0	1	0.508	84	0	0
102	1	544	9	1	1	0.0500	0.3382	0	1	0.536	0	82	82
102	1	545	1	2	3	0.0500	0.3382	1	1	0.286	100	82	0
102	1	546	0	1	1	0.0500	0.3382	0	1	0.466	9	82	82
102	1	547	1	1	3	0.0500	0.3382	0	1	0.482	87	0	0
102	1	548	1	2	1	0.0500	0.3382	1	1	0.273	100	82	0
102	1	549	0	1	3	0.0500	0.3382	1	0	0.370	0	82	0
102	1	550	9	2	2	0.0500	0.3382	1	1	0.266	0	82	0
102	1	551	9	2	3	0.0500	0.3382	1	1	0.660	0	0	82
102	1	552	0	1	1	0.0500	0.3382	0	1	0.488	9	82	82
102	1	553	0	1	1	0.0500	0.3382	1	0	0.547	0	82	0
102	1	554	1	1	1	0.0500	0.3382	1	1	0.685	66	0	82
102	1	555	9	1	3	0.0500	0.3382	0	1	0.386	0	82	82
102	1	556	1	1	1	0.0500	0.3382	0	1	0.641	71	0	0
102	1	557	0	2	2	0.0500	0.3382	1	1	0.413	9	0	82
102	1	558	0	1	1	0.0500	0.3382	0	1	0.426	9	82	82
102	1	559	0	2	2	0.0500	0.3382	0	0	0.583	0	82	82
102	1	560	0	2	2	0.0500	0.3382	0	1	0.663	7	82	82
102	1	561	9	2	3	0.0500	0.3382	1	1	0.235	0	82	0
102	1	562	0	2	3	0.0500	0.3382	1	0	0.586	0	0	82
102	1	563	0	1	3	0.0500	0.3382	0	0	0.417	0	82	82
102	1	564	1	1	1	0.0500	0.3382	0	1	0.444	91	0	0
102	1	565	9	1	1	0.0500	0.3382	1	1	0.543	0	0	82
102	1	566	9	1	1	0.0500	0.3382	0	1	0.459	0	82	82
102	1	567	0	2	3	0.0500	0.3382	1	1	0.351	10	0	82
102	1	568	1	1	3	0.0500	0.3382	0	1	0.410	94	0	0
102	1	569	1	2	2	0.0500	0.3382	1	1	0.285	100	82	0
102	1	570	9	1	2	0.0500	0.3382	0	1	0.382	0	82	82
102	1	571	1	2	2	0.0500	0.3382	0	0	0.386	0	0	0
102	1	572	9	1	1	0.0500	0.3382	0	1	0.563	0	82	82
102	1	573	0	2	3	0.0500	0.3382	1	1	0.513	8	0	82
102	1	574	0	1	3	0.0500	0.3382	1	0	0.575	0	82	0
102	1	575	0	1	1	0.0500	0.3382	0	0	0.527	0	82	82
102	1	576	1	2	2	0.0500	0.3382	1	1	0.366	98	82	0
102	1	577	0	1	3	0.0500	0.3382	0	1	0.629	7	82	82
102	1	578	1	1	1	0.0500	0.3382	0	0	0.222	0	0	0
102	1	579	9	1	1	0.0500	0.3382	0	0	0.778	0	0	0
102	1	580	1	2	3	0.0500	0.3382	0	1	0.508	84	0	0
102	1	581	1	2	3	0.0500	0.3382	1	1	0.285	100	82	0
102	1	582	1	2	3	0.0500	0.3382	0	1	1.118	50	0	0
102	1	583	1	2	3	0.0500	0.3382	0	1	0.544	81	0	0
102	1	584	1	1	1	0.0500	0.3382	0	1	0.573	78	0	0
102	1	585	0	2	2	0.0500	0.3382	1	1	0.442	9	0	82
102	1	586	0	2	2	0.0500	0.3382	1	0	0.451	0	0	82
102	1	587	0	1	1	0.0500	0.3382	1	1	0.344	10	82	0
102	1	588	1	1	3	0.0500	0.3382	1	0	0.924	0	0	82
102	1	589	0	2	3	0.0500	0.3382	0	1	0.473	9	82	82
102	1	590	0	2	2	0.0500	0.3382	1	1	0.492	9	0	82
102	1	591	0	2	2	0.0500	0.3382	1	1	0.514	8	0	82
102	1	592	0	2	1	0.0500	0.3382	0	1	0.877	5	82	82
102	1	593	9	1	3	0.0500	0.3382	1	0	0.735	0	0	82
102	1	594	0	1	3	0.0500	0.3382	1	0	0.421	0	82	0
102	1	595	1	2	1	0.0500	0.3382	0	1	0.491	86	0	0
102	1	596	1	1	1	0.0500	0.3382	1	0	0.707	0	0	82
102	1	597	1	2	3	0.0500	0.3382	1	1	0.398	95	82	0
102	1	598	1	2	2	0.0500	0.3382	1	1	0.448	90	82	0
102	1	599	1	1	1	0.0500	0.3382	0	0	0.637	0	0	0
102	1	600	0	1	1	0.0500	0.3382	1	0	0.476	0	82	0
102	1	601	1	2	2	0.0500	0.3382	1	1	0.379	97	82	0
102	1	602	0	1	2	0.0500	0.3382	1	1	0.403	9	82	0
102	1	603	1	1	1	0.0500	0.3382	0	1	0.477	87	0	0
102	1	604	1	2	2	0.0500	0.3382	1	1	0.345	100	82	0
102	1	605	0	2	2	0.0500	0.3382	1	1	0.468	9	0	82
102	1	606	1	2	3	0.0500	0.3382	1	1	0.393	96	82	0
102	1	607	0	1	3	0.0500	0.3382	0	0	0.398	0	82	82
102	1	608	1	1	3	0.0500	0.3382	1	1	0.595	76	0	82
102	1	609	0	2	3	0.0500	0.3382	0	0	0.446	0	82	82
102	1	610	9	2	2	0.0500	0.3382	1	1	0.628	0	0	82
102	1	611	0	2	3	0.0500	0.3382	1	1	0.667	7	0	82
102	1	612	1	2	2	0.0500	0.3382	0	1	0.565	78	0	0
102	1	613	9	1	1	0.0500	0.3382	1	1	0.719	0	0	82
102	1	614	0	2	1	0.0500	0.3382	1	1	0.621	7	0	82
102	1	615	0	1	3	0.0500	0.3382	1	0	0.647	0	82	0
102	1	616	0	2	3	0.0500	0.3382	1	1	0.459	9	0	82
102	1	617	1	1	1	0.0500	0.3382	1	1	0.648	70	0	82
102	1	618	0	2	2	0.0500	0.3382	0	1	0.527	8	82	82
102	1	619	9	2	3	0.0500	0.3382	0	1	0.465	0	0	0
102	1	620	1	2	2	0.0500	0.3382	1	1	0.569	78	82	0
102	1	621	1	2	3	0.0500	0.3382	0	1	0.505	85	0	0
102	1	622	0	1	2	0.0500	0.3382	0	1	0.571	8	82	82
102	1	623	0	1	3	0.0500	0.3382	1	1	0.718	6	82	0
102	1	624	1	2	3	0.0500	0.3382	0	0	0.583	0	0	0
102	1	625	0	2	2	0.0500	0.3382	0	1	0.515	8	82	82
102	1	626	9	1	1	0.0500	0.3382	1	0	0.442	0	82	0
102	1	627	1	2	2	0.0500	0.3382	1	1	0.358	99	82	0
102	1	628	0	1	1	0.0500	0.3382	0	1	0.793	6	82	82
102	1	629	0	1	3	0.0500	0.3382	0	0	0.852	0	82	82
102	1	630	0	1	1	0.0500	0.3382	0	1	0.412	9	82	82
102	1	631	1	1	3	0.0500	0.3382	1	1	0.682	67	0	82
102	1	632	9	1	3	0.0500	0.3382	1	0	0.619	0	0	82
102	1	633	0	1	2	0.0500	0.3382	0	1	0.506	8	82	82
102	1	634	9	2	2	0.0500	0.3382	0	1	0.696	0	0	0
102	1	635	1	2	3	0.0500	0.3382	0	1	0.447	90	0	0
102	1	636	1	1	3	0.0500	0.3382	1	0	0.507	0	0	82
102	1	637	9	2	1	0.0500	0.3382	0	1	0.634	0	82	82
102	1	638	1	2	3	0.0500	0.3382	0	1	0.508	84	0	0
102	1	639	0	2	3	0.0500	0.3382	1	0	0.452	0	0	82
102	1	640	1	1	3	0.0500	0.3382	1	1	0.442	91	0	82
102	1	641	1	2	1	0.0500	0.3382	0	1	0.444	91	0	0
102	1	642	0	1	3	0.0500	0.3382	0	0	0.715	0	82	82
102	1	643	0	2	2	0.0500	0.3382	0	1	0.473	9	82	82
102	1	644	0	2	2	0.0500	0.3382	0	1	0.394	10	82	82
102	1	645	0	2	2	0.0500	0.3382	1	1	0.364	10	0	82
102	1	646	0	1	1	0.0500	0.3382	1	1	0.425	9	82	0
102	1	647	9	2	1	0.0500	0.3382	1	1	0.381	0	82	0
102	1	648	1	1	3	0.0500	0.3382	1	1	0.564	79	0	82
102	1	649	0	2	1	0.0500	0.3382	0	1	0.584	8	82	82
102	1	650	9	2	2	0.0500	0.3382	0	1	0.480	0	0	0
102	1	651	0	2	3	0.0500	0.3382	1	1	0.442	9	0	82
102	1	652	0	2	3	0.0500	0.3382	1	0	0.477	0	0	82
102	1	653	9	2	3	0.0500	0.3382	0	1	0.484	0	0	0
102	1	654	1	1	1	0.0500	0.3382	1	1	0.504	85	0	82
102	1	655	1	1	3	0.0500	0.3382	1	1	0.546	80	0	82
102	1	656	9	1	3	0.0500	0.3382	0	0	0.289	0	82	82
102	1	657	9	2	3	0.0500	0.3382	1	1	0.397	0	82	0
102	1	658	9	2	2	0.0500	0.3382	0	1	0.433	0	0	0
102	1	659	0	1	3	0.0500	0.3382	0	0	0.358	0	82	82
102	1	660	0	2	3	0.0500	0.3382	0	0	0.427	0	82	82
102	1	661	0	2	2	0.0500	0.3382	0	0	0.282	0	82	82
102	1	662	1	2	3	0.0500	0.3382	1	1	0.315	100	82	0
102	1	663	1	2	1	0.0500	0.3382	0	1	0.424	93	0	0
102	1	664	0	2	3	0.0500	0.3382	0	1	0.458	9	82	82
102	1	665	1	2	2	0.0500	0.3382	0	1	0.438	91	0	0
102	1	666	9	2	2	0.0500	0.3382	0	1	0.408	0	82	82
102	1	667	1	1	2	0.0500	0.3382	0	1	1.733	50	0	0
102	1	668	0	2	3	0.0500	0.3382	1	0	0.623	0	0	82
102	1	669	9	1	1	0.0500	0.3382	0	0	0.754	0	0	0
102	1	670	1	1	3	0.0500	0.3382	0	1	0.628	72	0	0
102	1	671	9	2	3	0.0500	0.3382	0	0	0.670	0	82	82
102	1	672	1	1	1	0.0500	0.3382	1	1	0.588	76	0	82
102	1	673	1	2	3	0.0500	0.3382	1	1	0.565	78	82	0
102	1	674	0	2	1	0.0500	0.3382	1	1	0.507	8	0	82
102	1	675	1	1	3	0.0500	0.3382	1	0	0.654	0	0	82
102	1	676	0	1	1	0.0500	0.3382	1	1	1.412	5	82	0
102	1	677	0	2	3	0.0500	0.3382	0	1	0.624	7	82	82
102	1	678	0	1	1	0.0500	0.3382	1	1	0.729	6	82	0
102	1	679	1	2	2	0.0500	0.3382	1	1	0.523	83	82	0
102	1	680	1	1	1	0.0500	0.3382	0	1	0.637	71	0	0
102	1	681	1	1	1	0.0500	0.3382	1	1	0.641	71	0	82
102	1	682	1	1	1	0.0500	0.3382	1	1	0.634	72	0	82
102	1	683	1	2	2	0.0500	0.3382	0	1	0.512	84	0	0
102	1	684	0	1	1	0.0500	0.3382	0	0	0.636	0	82	82
102	1	685	1	1	1	0.0500	0.3382	1	1	0.534	82	0	82
102	1	686	0	1	3	0.0500	0.3382	0	1	0.505	8	82	82
102	1	687	1	2	2	0.0500	0.3382	0	0	0.405	0	0	0
102	1	688	1	2	2	0.0500	0.3382	1	1	0.271	100	82	0
102	1	689	1	2	3	0.0500	0.3382	1	1	0.303	100	82	0
102	1	690	0	2	2	0.0500	0.3382	0	1	0.492	9	82	82
102	1	691	0	2	3	0.0500	0.3382	0	1	0.422	9	82	82
102	1	692	1	2	1	0.0500	0.3382	1	1	0.273	100	82	0
102	1	693	1	2	2	0.0500	0.3382	0	1	0.285	100	0	0
102	1	694	0	1	3	0.0500	0.3382	1	1	0.249	10	82	0
102	1	695	0	2	1	0.0500	0.3382	1	1	0.826	5	0	82
102	1	696	0	1	3	0.0500	0.3382	0	1	0.287	10	82	82
102	1	697	0	1	3	0.0500	0.3382	0	1	0.741	6	82	82
102	1	698	0	1	3	0.0500	0.3382	0	1	0.503	8	82	82
102	1	699	1	1	1	0.0500	0.3382	0	1	0.603	75	0	0
102	1	700	0	2	2	0.0500	0.3382	0	0	0.410	0	82	82
102	1	701	9	1	2	0.0500	0.3382	1	0	0.812	0	82	0
102	1	702	9	1	1	0.0500	0.3382	1	1	0.663	0	0	82
102	1	703	0	2	3	0.0500	0.3382	0	1	0.516	8	82	82
102	1	704	0	2	2	0.0500	0.3382	1	1	0.648	7	0	82
102	1	705	1	2	2	0.0500	0.3382	0	1	0.527	82	0	0
102	1	706	9	2	2	0.0500	0.3382	1	1	0.477	0	0	82
102	1	707	9	2	3	0.0500	0.3382	1	1	0.593	0	0	82
102	1	708	9	2	3	0.0500	0.3382	1	1	0.621	0	0	82
102	1	709	0	2	3	0.0500	0.3382	1	1	0.516	8	0	82
102	1	710	0	1	1	0.0500	0.3382	1	1	1.045	5	82	0
102	1	711	1	2	3	0.0500	0.3382	1	1	0.377	97	82	0
102	1	712	9	2	2	0.0500	0.3382	0	0	0.562	0	82	82
102	1	713	9	1	2	0.0500	0.3382	1	0	0.881	0	0	82
102	1	714	1	1	1	0.0500	0.3382	0	1	0.894	50	0	0
102	1	715	1	2	3	0.0500	0.3382	0	1	0.467	88	0	0
102	1	716	1	2	2	0.0500	0.3382	0	1	0.484	87	0	0
102	1	717	0	1	1	0.0500	0.3382	1	1	0.765	6	82	0
102	1	718	9	1	3	0.0500	0.3382	0	1	0.286	0	0	0
102	1	719	1	2	2	0.0500	0.3382	0	1	0.455	90	0	0
102	1	720	9	1	3	0.0500	0.3382	1	1	0.505	0	0	82
