sub	sess	t	rew	loc	cue	co1	co2	or	resp	rt	rew_tot	left_col	right_col
91	1	1	0	1	1	0.8691	0.8425	0	0	1.336	0	0	0
91	1	2	0	2	2	0.8691	0.8425	0	0	0.969	0	0	0
91	1	3	1	1	1	0.8691	0.8425	0	1	1.562	50	82	82
91	1	4	9	1	3	0.8691	0.8425	0	0	1.827	0	0	0
91	1	5	1	1	3	0.8691	0.8425	1	0	2.300	0	82	0
91	1	6	9	2	2	0.8691	0.8425	1	0	1.710	0	0	82
91	1	7	0	1	3	0.8691	0.8425	0	0	0.422	0	0	0
91	1	8	1	2	3	0.8691	0.8425	0	0	1.515	0	82	82
91	1	9	9	2	3	0.8691	0.8425	1	1	2.759	0	0	82
91	1	10	0	1	1	0.8691	0.8425	1	0	2.217	0	0	82
91	1	11	0	2	3	0.8691	0.8425	1	1	1.153	5	82	0
91	1	12	9	1	2	0.8691	0.8425	0	1	2.224	0	82	82
91	1	13	1	1	1	0.8691	0.8425	1	1	2.058	50	82	0
91	1	14	9	2	3	0.8691	0.8425	1	1	0.943	0	82	0
91	1	15	1	1	1	0.8691	0.8425	1	1	2.180	50	82	0
91	1	16	1	2	2	0.8691	0.8425	0	1	1.917	50	82	82
91	1	17	0	2	1	0.8691	0.8425	1	1	0.940	5	82	0
91	1	18	1	1	1	0.8691	0.8425	1	1	1.500	50	82	0
91	1	19	0	1	3	0.8691	0.8425	1	1	1.346	5	0	82
91	1	20	9	1	3	0.8691	0.8425	1	1	2.334	0	0	82
91	1	21	1	2	3	0.8691	0.8425	0	0	2.092	0	82	82
91	1	22	0	2	1	0.8691	0.8425	1	0	0.862	0	82	0
91	1	23	0	1	3	0.8691	0.8425	1	1	1.374	5	0	82
91	1	24	1	1	3	0.8691	0.8425	0	1	1.673	50	82	82
91	1	25	0	1	3	0.8691	0.8425	0	0	1.138	0	0	0
91	1	26	1	1	1	0.8691	0.8425	1	1	1.603	50	82	0
91	1	27	0	1	1	0.8691	0.8425	0	0	1.143	0	0	0
91	1	28	1	1	1	0.8691	0.8425	0	0	1.238	0	82	82
91	1	29	1	2	3	0.8691	0.8425	0	1	1.818	50	82	82
91	1	30	9	1	3	0.8691	0.8425	1	0	1.540	0	82	0
91	1	31	1	2	2	0.8691	0.8425	0	1	1.669	50	82	82
91	1	32	1	1	1	0.8691	0.8425	0	1	1.367	50	82	82
91	1	33	9	2	2	0.8691	0.8425	0	0	1.305	0	0	0
91	1	34	1	1	2	0.8691	0.8425	1	1	1.657	50	82	0
91	1	35	0	1	3	0.8691	0.8425	0	0	1.997	0	0	0
91	1	36	0	2	3	0.8691	0.8425	1	0	1.789	0	82	0
91	1	37	9	1	3	0.8691	0.8425	0	0	0.986	0	0	0
91	1	38	0	1	1	0.8691	0.8425	0	0	1.181	0	0	0
91	1	39	9	2	2	0.8691	0.8425	0	1	1.431	0	82	82
91	1	40	1	1	1	0.8691	0.8425	0	1	1.871	50	82	82
91	1	41	9	2	3	0.8691	0.8425	0	1	1.968	0	0	0
91	1	42	0	2	1	0.8691	0.8425	1	1	0.729	6	82	0
91	1	43	0	1	3	0.8691	0.8425	1	1	1.891	5	0	82
91	1	44	1	1	2	0.8691	0.8425	0	0	1.904	0	82	82
91	1	45	0	2	2	0.8691	0.8425	1	1	1.143	5	82	0
91	1	46	1	1	3	0.8691	0.8425	1	1	1.669	50	82	0
91	1	47	9	2	2	0.8691	0.8425	0	1	1.206	0	82	82
91	1	48	0	2	2	0.8691	0.8425	0	0	1.812	0	0	0
91	1	49	0	1	1	0.8691	0.8425	1	0	2.106	0	0	82
91	1	50	0	2	3	0.8691	0.8425	1	1	1.070	5	82	0
91	1	51	0	2	1	0.8691	0.8425	0	1	1.011	5	0	0
91	1	52	0	1	3	0.8691	0.8425	1	0	4.318	0	0	82
91	1	53	0	1	1	0.8691	0.8425	1	1	1.430	5	0	82
91	1	54	1	2	2	0.8691	0.8425	0	0	1.267	0	82	82
91	1	55	9	1	1	0.8691	0.8425	0	0	1.460	0	82	82
91	1	56	9	1	1	0.8691	0.8425	0	0	1.959	0	0	0
91	1	57	1	2	2	0.8691	0.8425	1	0	1.958	0	0	82
91	1	58	0	2	1	0.8691	0.8425	0	1	2.395	5	0	0
91	1	59	1	1	3	0.8691	0.8425	1	1	4.304	50	82	0
91	1	60	0	1	3	0.8691	0.8425	1	1	1.467	5	0	82
91	1	61	9	1	3	0.8691	0.8425	1	1	1.530	0	82	0
91	1	62	0	2	2	0.8691	0.8425	1	1	1.513	5	82	0
91	1	63	1	2	2	0.8691	0.8425	0	1	1.092	50	82	82
91	1	64	1	1	1	0.8691	0.8425	0	1	2.143	50	82	82
91	1	65	0	1	1	0.8691	0.8425	0	1	1.436	5	0	0
91	1	66	1	2	3	0.8691	0.8425	1	1	2.662	50	0	82
91	1	67	0	1	3	0.8691	0.8425	0	0	2.640	0	0	0
91	1	68	1	1	3	0.8691	0.8425	1	0	2.034	0	82	0
91	1	69	1	1	1	0.8691	0.8425	0	1	1.941	50	82	82
91	1	70	1	1	1	0.8691	0.8425	1	1	1.545	50	82	0
91	1	71	1	2	2	0.8691	0.8425	1	1	2.213	50	0	82
91	1	72	1	2	2	0.8691	0.8425	0	1	1.920	50	82	82
91	1	73	1	2	3	0.8691	0.8425	0	1	1.017	50	82	82
91	1	74	0	2	3	0.8691	0.8425	0	0	1.542	0	0	0
91	1	75	0	2	1	0.8691	0.8425	0	0	1.507	0	0	0
91	1	76	0	1	3	0.8691	0.8425	1	0	1.903	0	0	82
91	1	77	0	2	2	0.8691	0.8425	0	0	1.713	0	0	0
91	1	78	0	2	3	0.8691	0.8425	0	0	0.921	0	0	0
91	1	79	1	2	2	0.8691	0.8425	1	1	1.611	50	0	82
91	1	80	1	1	1	0.8691	0.8425	1	1	1.648	50	82	0
91	1	81	9	2	3	0.8691	0.8425	1	1	1.547	0	0	82
91	1	82	0	1	1	0.8691	0.8425	0	0	1.760	0	0	0
91	1	83	0	2	3	0.8691	0.8425	0	1	1.588	5	0	0
91	1	84	0	1	1	0.8691	0.8425	0	1	1.116	5	0	0
91	1	85	0	1	1	0.8691	0.8425	1	1	1.776	5	0	82
91	1	86	9	1	1	0.8691	0.8425	0	0	1.743	0	0	0
91	1	87	1	1	3	0.8691	0.8425	1	1	3.057	50	82	0
91	1	88	0	1	3	0.8691	0.8425	1	1	2.039	5	0	82
91	1	89	0	2	3	0.8691	0.8425	0	0	2.378	0	0	0
91	1	90	9	2	2	0.8691	0.8425	1	1	1.261	0	0	82
91	1	91	0	1	3	0.8691	0.8425	0	0	1.513	0	0	0
91	1	92	0	1	1	0.8691	0.8425	0	0	1.216	0	0	0
91	1	93	0	1	2	0.8691	0.8425	1	0	1.890	0	0	82
91	1	94	1	1	1	0.8691	0.8425	1	1	1.833	50	82	0
91	1	95	9	2	3	0.8691	0.8425	1	1	1.475	0	0	82
91	1	96	1	2	1	0.8691	0.8425	0	1	1.513	50	82	82
91	1	97	1	1	1	0.8691	0.8425	0	1	1.509	50	82	82
91	1	98	0	1	3	0.8691	0.8425	0	1	1.638	5	0	0
91	1	99	0	2	3	0.8691	0.8425	1	0	1.630	0	82	0
91	1	100	1	1	1	0.8691	0.8425	1	1	1.470	50	82	0
91	1	101	0	2	2	0.8691	0.8425	0	0	1.113	0	0	0
91	1	102	0	1	1	0.8691	0.8425	1	0	1.554	0	0	82
91	1	103	9	1	3	0.8691	0.8425	0	1	1.874	0	82	82
91	1	104	0	2	2	0.8691	0.8425	1	1	1.241	5	82	0
91	1	105	0	1	2	0.8691	0.8425	0	0	1.979	0	0	0
91	1	106	1	2	2	0.8691	0.8425	1	1	1.621	50	0	82
91	1	107	0	1	3	0.8691	0.8425	0	0	1.376	0	0	0
91	1	108	0	1	3	0.8691	0.8425	0	0	1.845	0	0	0
91	1	109	0	1	1	0.8691	0.8425	1	0	1.362	0	0	82
91	1	110	1	1	1	0.8691	0.8425	0	0	1.185	0	82	82
91	1	111	1	2	3	0.8691	0.8425	1	1	1.155	50	0	82
91	1	112	9	1	1	0.8691	0.8425	1	1	2.021	0	82	0
91	1	113	0	1	3	0.8691	0.8425	1	0	1.620	0	0	82
91	1	114	0	1	1	0.8691	0.8425	1	0	1.651	0	0	82
91	1	115	1	1	3	0.8691	0.8425	0	0	1.650	0	82	82
91	1	116	0	1	3	0.8691	0.8425	1	1	1.173	5	0	82
91	1	117	1	2	2	0.8691	0.8425	1	1	1.273	50	0	82
91	1	118	0	1	1	0.8691	0.8425	1	1	1.157	5	0	82
91	1	119	0	1	3	0.8691	0.8425	0	1	1.332	5	0	0
91	1	120	1	1	3	0.8691	0.8425	1	1	1.748	50	82	0
91	1	121	9	2	3	0.8691	0.8425	0	1	1.911	0	82	82
91	1	122	1	2	3	0.8691	0.8425	0	1	0.930	50	82	82
91	1	123	1	2	2	0.8691	0.8425	0	1	0.850	50	82	82
91	1	124	1	2	1	0.8691	0.8425	0	1	0.617	73	82	82
91	1	125	9	2	3	0.8691	0.8425	1	0	0.720	0	82	0
91	1	126	1	1	3	0.8691	0.8425	1	0	0.884	0	82	0
91	1	127	0	2	3	0.8691	0.8425	1	1	1.177	5	82	0
91	1	128	1	2	3	0.8691	0.8425	0	1	0.997	50	82	82
91	1	129	9	2	2	0.8691	0.8425	0	1	0.656	0	82	82
91	1	130	1	2	3	0.8691	0.8425	0	1	1.038	50	82	82
91	1	131	9	1	1	0.8691	0.8425	1	1	1.602	0	82	0
91	1	132	0	2	2	0.8691	0.8425	0	0	1.116	0	0	0
91	1	133	9	2	3	0.8691	0.8425	0	0	0.906	0	0	0
91	1	134	1	2	1	0.8691	0.8425	1	1	1.640	50	0	82
91	1	135	1	2	2	0.8691	0.8425	1	1	1.539	50	0	82
91	1	136	0	2	3	0.8691	0.8425	0	1	1.093	5	0	0
91	1	137	1	2	2	0.8691	0.8425	1	1	0.695	66	0	82
91	1	138	0	1	1	0.8691	0.8425	0	0	1.133	0	0	0
91	1	139	0	1	1	0.8691	0.8425	0	1	1.203	5	0	0
91	1	140	1	2	1	0.8691	0.8425	1	1	0.717	63	0	82
91	1	141	1	1	3	0.8691	0.8425	0	0	0.768	0	82	82
91	1	142	1	1	1	0.8691	0.8425	1	0	1.020	0	82	0
91	1	143	0	1	1	0.8691	0.8425	0	0	1.209	0	0	0
91	1	144	0	1	2	0.8691	0.8425	1	0	1.377	0	0	82
91	1	145	0	2	2	0.8691	0.8425	1	1	0.774	6	82	0
91	1	146	0	2	3	0.8691	0.8425	0	1	1.116	5	0	0
91	1	147	0	2	3	0.8691	0.8425	0	1	1.298	5	0	0
91	1	148	1	2	3	0.8691	0.8425	1	1	0.535	82	0	82
91	1	149	9	2	3	0.8691	0.8425	1	1	0.491	0	0	82
91	1	150	0	1	2	0.8691	0.8425	0	0	1.164	0	0	0
91	1	151	9	2	2	0.8691	0.8425	1	1	0.519	0	82	0
91	1	152	9	1	2	0.8691	0.8425	1	0	1.001	0	82	0
91	1	153	0	2	2	0.8691	0.8425	1	1	0.939	5	82	0
91	1	154	9	2	1	0.8691	0.8425	0	1	0.805	0	0	0
91	1	155	0	2	2	0.8691	0.8425	0	0	0.872	0	0	0
91	1	156	1	2	2	0.8691	0.8425	1	1	0.753	60	0	82
91	1	157	0	2	3	0.8691	0.8425	0	0	0.666	0	0	0
91	1	158	1	1	3	0.8691	0.8425	1	0	0.990	0	82	0
91	1	159	0	1	1	0.8691	0.8425	1	0	1.659	0	0	82
91	1	160	1	1	1	0.8691	0.8425	1	1	3.774	50	82	0
91	1	161	1	2	1	0.8691	0.8425	0	1	1.258	50	82	82
91	1	162	0	2	2	0.8691	0.8425	0	0	1.237	0	0	0
91	1	163	9	1	2	0.8691	0.8425	0	1	2.060	0	0	0
91	1	164	1	1	3	0.8691	0.8425	0	0	1.636	0	82	82
91	1	165	0	1	1	0.8691	0.8425	1	0	1.726	0	0	82
91	1	166	1	1	3	0.8691	0.8425	0	1	1.771	50	82	82
91	1	167	1	1	3	0.8691	0.8425	0	1	1.153	50	82	82
91	1	168	1	1	3	0.8691	0.8425	1	1	1.912	50	82	0
91	1	169	1	1	1	0.8691	0.8425	1	1	1.941	50	82	0
91	1	170	9	1	1	0.8691	0.8425	0	1	1.895	0	0	0
91	1	171	1	2	2	0.8691	0.8425	1	0	2.118	0	0	82
91	1	172	1	2	3	0.8691	0.8425	1	1	1.294	50	0	82
91	1	173	9	1	1	0.8691	0.8425	0	0	0.864	0	82	82
91	1	174	1	2	2	0.8691	0.8425	0	1	1.162	50	82	82
91	1	175	1	1	1	0.8691	0.8425	0	0	1.047	0	82	82
91	1	176	9	2	2	0.8691	0.8425	1	0	1.891	0	82	0
91	1	177	1	2	2	0.8691	0.8425	0	1	0.872	50	82	82
91	1	178	1	2	2	0.8691	0.8425	0	1	0.677	67	82	82
91	1	179	1	1	3	0.8691	0.8425	0	0	0.939	0	82	82
91	1	180	0	1	3	0.8691	0.8425	0	0	1.094	0	0	0
91	1	181	0	2	2	0.8691	0.8425	0	0	1.028	0	0	0
91	1	182	9	2	2	0.8691	0.8425	0	1	0.667	0	82	82
91	1	183	0	1	3	0.8691	0.8425	0	0	1.941	0	0	0
91	1	184	0	2	3	0.8691	0.8425	1	0	1.035	0	82	0
91	1	185	1	1	3	0.8691	0.8425	0	1	2.107	50	82	82
91	1	186	0	2	3	0.8691	0.8425	0	1	1.431	5	0	0
91	1	187	9	2	3	0.8691	0.8425	0	1	1.936	0	82	82
91	1	188	9	2	2	0.8691	0.8425	1	0	1.440	0	0	82
91	1	189	1	1	2	0.8691	0.8425	1	1	2.607	50	82	0
91	1	190	1	1	1	0.8691	0.8425	0	1	1.885	50	82	82
91	1	191	0	1	1	0.8691	0.8425	0	0	2.337	0	0	0
91	1	192	9	2	2	0.8691	0.8425	0	0	1.363	0	0	0
91	1	193	0	2	1	0.8691	0.8425	0	0	1.072	0	0	0
91	1	194	0	2	3	0.8691	0.8425	0	1	0.565	8	0	0
91	1	195	9	2	1	0.8691	0.8425	1	1	0.815	0	0	82
91	1	196	1	2	2	0.8691	0.8425	0	1	0.889	50	82	82
91	1	197	1	1	1	0.8691	0.8425	0	1	2.968	50	82	82
91	1	198	1	1	3	0.8691	0.8425	1	1	1.983	50	82	0
91	1	199	0	2	2	0.8691	0.8425	1	1	1.132	5	82	0
91	1	200	1	2	2	0.8691	0.8425	1	1	2.059	50	0	82
91	1	201	0	1	2	0.8691	0.8425	1	0	2.479	0	0	82
91	1	202	1	1	3	0.8691	0.8425	1	1	1.350	50	82	0
91	1	203	1	2	3	0.8691	0.8425	0	0	1.700	0	82	82
91	1	204	0	1	3	0.8691	0.8425	1	0	1.426	0	0	82
91	1	205	0	2	3	0.8691	0.8425	1	1	1.023	5	82	0
91	1	206	1	1	3	0.8691	0.8425	1	1	3.345	50	82	0
91	1	207	0	2	2	0.8691	0.8425	1	1	1.151	5	82	0
91	1	208	9	2	2	0.8691	0.8425	1	1	1.078	0	82	0
91	1	209	0	2	2	0.8691	0.8425	1	1	0.659	7	82	0
91	1	210	9	1	3	0.8691	0.8425	0	1	0.923	0	0	0
91	1	211	0	1	3	0.8691	0.8425	1	0	0.740	0	0	82
91	1	212	9	1	1	0.8691	0.8425	1	1	1.071	0	0	82
91	1	213	9	1	3	0.8691	0.8425	1	1	0.756	0	0	82
91	1	214	1	2	1	0.8691	0.8425	1	1	1.156	50	0	82
91	1	215	0	1	3	0.8691	0.8425	0	0	0.739	0	0	0
91	1	216	1	2	2	0.8691	0.8425	1	1	1.111	50	0	82
91	1	217	1	1	1	0.8691	0.8425	0	1	0.743	61	82	82
91	1	218	1	2	3	0.8691	0.8425	0	1	0.909	50	82	82
91	1	219	9	1	1	0.8691	0.8425	1	1	1.466	0	82	0
91	1	220	0	1	1	0.8691	0.8425	1	1	1.571	5	0	82
91	1	221	9	1	1	0.8691	0.8425	1	1	1.184	0	0	82
91	1	222	0	2	2	0.8691	0.8425	0	1	0.858	5	0	0
91	1	223	0	1	3	0.8691	0.8425	0	0	0.849	0	0	0
91	1	224	1	1	1	0.8691	0.8425	0	1	0.838	51	82	82
91	1	225	0	2	3	0.8691	0.8425	0	1	1.585	5	0	0
91	1	226	9	2	1	0.8691	0.8425	0	1	1.005	0	82	82
91	1	227	9	2	1	0.8691	0.8425	1	1	1.812	0	82	0
91	1	228	1	1	1	0.8691	0.8425	1	1	2.619	50	82	0
91	1	229	0	1	1	0.8691	0.8425	1	0	1.280	0	0	82
91	1	230	1	2	3	0.8691	0.8425	0	1	1.792	50	82	82
91	1	231	1	2	2	0.8691	0.8425	0	1	0.933	50	82	82
91	1	232	0	2	2	0.8691	0.8425	1	0	1.883	0	82	0
91	1	233	1	2	3	0.8691	0.8425	1	1	1.310	50	0	82
91	1	234	1	2	3	0.8691	0.8425	0	1	2.355	50	82	82
91	1	235	9	1	1	0.8691	0.8425	0	0	1.610	0	0	0
91	1	236	0	1	3	0.8691	0.8425	1	0	1.932	0	0	82
91	1	237	0	1	1	0.8691	0.8425	1	1	2.556	5	0	82
91	1	238	0	2	2	0.8691	0.8425	0	1	0.986	5	0	0
91	1	239	9	1	1	0.8691	0.8425	0	1	2.420	0	82	82
91	1	240	1	2	3	0.8691	0.8425	1	1	1.642	50	0	82
91	1	241	0	1	3	0.8691	0.8425	0	1	1.545	5	0	0
91	1	242	0	1	1	0.8691	0.8425	0	1	1.126	5	0	0
91	1	243	1	2	3	0.8691	0.8425	1	1	2.483	50	0	82
91	1	244	9	2	3	0.8691	0.8425	0	1	0.891	0	82	82
91	1	245	9	1	3	0.8691	0.8425	0	1	1.553	0	82	82
91	1	246	9	1	3	0.8691	0.8425	0	1	2.154	0	82	82
91	1	247	0	2	2	0.8691	0.8425	1	0	1.581	0	82	0
91	1	248	9	2	2	0.8691	0.8425	0	0	1.062	0	0	0
91	1	249	1	1	3	0.8691	0.8425	0	1	1.168	50	82	82
91	1	250	1	2	2	0.8691	0.8425	0	1	1.706	50	82	82
91	1	251	0	1	2	0.8691	0.8425	0	0	1.110	0	0	0
91	1	252	1	1	3	0.8691	0.8425	0	1	1.601	50	82	82
91	1	253	9	2	3	0.8691	0.8425	0	0	2.746	0	0	0
91	1	254	1	2	3	0.8691	0.8425	1	0	2.055	0	0	82
91	1	255	0	1	3	0.8691	0.8425	0	0	1.585	0	0	0
91	1	256	0	2	3	0.8691	0.8425	0	0	1.596	0	0	0
91	1	257	0	2	3	0.8691	0.8425	0	1	0.587	8	0	0
91	1	258	9	2	2	0.8691	0.8425	1	1	0.661	0	82	0
91	1	259	0	1	1	0.8691	0.8425	1	1	0.738	6	0	82
91	1	260	1	2	3	0.8691	0.8425	1	1	0.778	57	0	82
91	1	261	1	2	3	0.8691	0.8425	1	1	0.475	87	0	82
91	1	262	1	1	3	0.8691	0.8425	1	0	0.687	0	82	0
91	1	263	0	2	3	0.8691	0.8425	1	1	0.548	8	82	0
91	1	264	1	1	3	0.8691	0.8425	0	1	2.094	50	82	82
91	1	265	1	1	1	0.8691	0.8425	1	1	1.295	50	82	0
91	1	266	1	2	3	0.8691	0.8425	1	1	1.645	50	0	82
91	1	267	0	2	1	0.8691	0.8425	1	1	0.627	7	82	0
91	1	268	9	1	1	0.8691	0.8425	1	0	0.973	0	0	82
91	1	269	1	1	3	0.8691	0.8425	1	1	2.571	50	82	0
91	1	270	1	2	2	0.8691	0.8425	1	1	1.741	50	0	82
91	1	271	0	2	3	0.8691	0.8425	0	0	1.210	0	0	0
91	1	272	1	2	3	0.8691	0.8425	1	1	2.387	50	0	82
91	1	273	1	1	3	0.8691	0.8425	0	1	1.418	50	82	82
91	1	274	1	2	2	0.8691	0.8425	1	1	1.000	50	0	82
91	1	275	0	1	1	0.8691	0.8425	0	1	0.864	5	0	0
91	1	276	1	1	1	0.8691	0.8425	1	0	1.624	0	82	0
91	1	277	0	1	1	0.8691	0.8425	1	0	0.868	0	0	82
91	1	278	0	2	3	0.8691	0.8425	0	0	0.313	0	0	0
91	1	279	0	2	2	0.8691	0.8425	1	1	0.467	9	82	0
91	1	280	0	2	3	0.8691	0.8425	1	1	0.714	6	82	0
91	1	281	1	2	2	0.8691	0.8425	1	1	0.575	77	0	82
91	1	282	0	2	3	0.8691	0.8425	1	1	0.299	10	82	0
91	1	283	0	2	3	0.8691	0.8425	1	1	0.380	10	82	0
91	1	284	1	1	2	0.8691	0.8425	1	0	0.717	0	82	0
91	1	285	0	1	3	0.8691	0.8425	1	1	0.823	5	0	82
91	1	286	1	2	3	0.8691	0.8425	1	1	0.576	77	0	82
91	1	287	1	2	2	0.8691	0.8425	1	1	0.456	89	0	82
91	1	288	0	2	3	0.8691	0.8425	1	1	0.441	9	82	0
91	1	289	9	1	3	0.8691	0.8425	1	0	0.745	0	0	82
91	1	290	0	1	3	0.8691	0.8425	1	1	0.567	8	0	82
91	1	291	9	1	1	0.8691	0.8425	1	1	0.481	0	0	82
91	1	292	9	2	2	0.8691	0.8425	1	1	0.345	0	0	82
91	1	293	0	1	1	0.8691	0.8425	0	1	1.777	5	0	0
91	1	294	1	2	3	0.8691	0.8425	0	1	1.653	50	82	82
91	1	295	9	1	3	0.8691	0.8425	1	0	2.015	0	82	0
91	1	296	0	2	3	0.8691	0.8425	1	1	0.939	5	82	0
91	1	297	9	1	3	0.8691	0.8425	0	1	0.650	0	82	82
91	1	298	1	1	2	0.8691	0.8425	1	1	0.471	88	82	0
91	1	299	1	1	1	0.8691	0.8425	0	1	1.626	50	82	82
91	1	300	1	2	3	0.8691	0.8425	1	1	0.559	79	0	82
91	1	301	0	2	2	0.8691	0.8425	1	1	0.606	7	82	0
91	1	302	1	2	3	0.8691	0.8425	1	1	0.377	97	0	82
91	1	303	1	1	1	0.8691	0.8425	1	0	0.570	0	82	0
91	1	304	1	1	3	0.8691	0.8425	0	1	0.880	50	82	82
91	1	305	9	1	2	0.8691	0.8425	1	1	1.428	0	0	82
91	1	306	9	1	3	0.8691	0.8425	1	0	0.888	0	82	0
91	1	307	1	2	2	0.8691	0.8425	0	1	1.465	50	82	82
91	1	308	1	1	1	0.8691	0.8425	1	0	1.082	0	82	0
91	1	309	0	1	1	0.8691	0.8425	0	0	1.243	0	0	0
91	1	310	0	2	2	0.8691	0.8425	0	0	1.513	0	0	0
91	1	311	1	2	2	0.8691	0.8425	1	1	1.432	50	0	82
91	1	312	1	1	3	0.8691	0.8425	1	1	1.966	50	82	0
91	1	313	0	1	3	0.8691	0.8425	0	0	1.461	0	0	0
91	1	314	1	2	2	0.8691	0.8425	0	0	2.807	0	82	82
91	1	315	0	1	1	0.8691	0.8425	0	0	1.150	0	0	0
91	1	316	0	2	2	0.8691	0.8425	0	0	1.085	0	0	0
91	1	317	1	2	2	0.8691	0.8425	0	1	0.641	71	82	82
91	1	318	9	2	3	0.8691	0.8425	0	1	0.571	0	0	0
91	1	319	1	1	3	0.8691	0.8425	0	1	1.147	50	82	82
91	1	320	1	1	2	0.8691	0.8425	0	1	0.696	65	82	82
91	1	321	1	2	2	0.8691	0.8425	0	0	0.657	0	82	82
91	1	322	0	2	3	0.8691	0.8425	1	1	0.615	7	82	0
91	1	323	9	2	3	0.8691	0.8425	1	1	0.930	0	82	0
91	1	324	0	1	3	0.8691	0.8425	1	1	1.048	5	0	82
91	1	325	1	2	3	0.8691	0.8425	0	1	0.793	56	82	82
91	1	326	1	2	3	0.8691	0.8425	1	0	0.684	0	0	82
91	1	327	1	2	3	0.8691	0.8425	0	1	0.992	50	82	82
91	1	328	0	2	2	0.8691	0.8425	1	1	0.763	6	82	0
91	1	329	0	1	2	0.8691	0.8425	0	1	2.185	5	0	0
91	1	330	1	1	2	0.8691	0.8425	0	1	1.978	50	82	82
91	1	331	9	2	3	0.8691	0.8425	0	1	0.760	0	82	82
91	1	332	9	2	3	0.8691	0.8425	1	1	1.147	0	82	0
91	1	333	0	2	2	0.8691	0.8425	1	1	0.836	5	82	0
91	1	334	0	2	2	0.8691	0.8425	0	1	0.779	6	0	0
91	1	335	9	1	1	0.8691	0.8425	0	1	1.332	0	82	82
91	1	336	9	1	3	0.8691	0.8425	1	1	1.639	0	0	82
91	1	337	1	1	3	0.8691	0.8425	0	1	0.924	50	82	82
91	1	338	0	2	3	0.8691	0.8425	1	1	1.059	5	82	0
91	1	339	0	2	2	0.8691	0.8425	0	1	1.451	5	0	0
91	1	340	0	2	3	0.8691	0.8425	1	1	0.623	7	82	0
91	1	341	9	1	3	0.8691	0.8425	0	1	0.627	0	0	0
91	1	342	0	2	2	0.8691	0.8425	1	1	0.580	8	82	0
91	1	343	1	1	3	0.8691	0.8425	1	1	1.676	50	82	0
91	1	344	0	2	2	0.8691	0.8425	0	1	0.956	5	0	0
91	1	345	0	2	2	0.8691	0.8425	0	0	0.820	0	0	0
91	1	346	0	2	2	0.8691	0.8425	1	1	0.875	5	82	0
91	1	347	9	2	2	0.8691	0.8425	0	1	0.838	0	0	0
91	1	348	1	1	2	0.8691	0.8425	0	1	1.079	50	82	82
91	1	349	1	1	1	0.8691	0.8425	0	1	0.803	55	82	82
91	1	350	1	1	1	0.8691	0.8425	0	1	0.875	50	82	82
91	1	351	1	2	3	0.8691	0.8425	0	1	1.106	50	82	82
91	1	352	1	2	1	0.8691	0.8425	1	1	0.855	50	0	82
91	1	353	9	1	1	0.8691	0.8425	1	1	0.641	0	82	0
91	1	354	0	2	3	0.8691	0.8425	0	1	0.989	5	0	0
91	1	355	0	1	3	0.8691	0.8425	1	0	3.402	0	0	82
91	1	356	1	2	1	0.8691	0.8425	0	0	1.120	0	82	82
91	1	357	1	2	3	0.8691	0.8425	0	1	1.041	50	82	82
91	1	358	0	1	1	0.8691	0.8425	1	1	2.097	5	0	82
91	1	359	0	1	2	0.8691	0.8425	1	1	1.102	5	0	82
91	1	360	1	1	3	0.8691	0.8425	0	1	0.629	72	82	82
91	1	361	9	2	3	0.8691	0.8425	1	1	0.999	0	0	82
91	1	362	1	2	1	0.8691	0.8425	1	1	0.525	82	0	82
91	1	363	0	2	1	0.8691	0.8425	1	1	0.453	9	82	0
91	1	364	0	1	3	0.8691	0.8425	0	1	0.838	5	0	0
91	1	365	0	2	1	0.8691	0.8425	0	1	0.649	7	0	0
91	1	366	9	1	3	0.8691	0.8425	0	0	0.511	0	0	0
91	1	367	0	1	1	0.8691	0.8425	0	1	0.659	7	0	0
91	1	368	1	1	3	0.8691	0.8425	0	1	0.542	81	82	82
91	1	369	1	1	3	0.8691	0.8425	1	0	0.368	0	82	0
91	1	370	1	2	2	0.8691	0.8425	0	1	0.779	57	82	82
91	1	371	0	2	2	0.8691	0.8425	0	0	1.313	0	0	0
91	1	372	0	2	2	0.8691	0.8425	1	1	0.767	6	82	0
91	1	373	1	2	1	0.8691	0.8425	0	0	0.735	0	82	82
91	1	374	0	2	2	0.8691	0.8425	1	0	1.065	0	82	0
91	1	375	0	2	3	0.8691	0.8425	1	0	0.744	0	82	0
91	1	376	0	2	2	0.8691	0.8425	0	0	0.755	0	0	0
91	1	377	9	2	2	0.8691	0.8425	1	0	0.948	0	0	82
91	1	378	1	2	3	0.8691	0.8425	0	1	0.920	50	82	82
91	1	379	0	1	3	0.8691	0.8425	0	0	2.182	0	0	0
91	1	380	0	2	3	0.8691	0.8425	0	1	0.771	6	0	0
91	1	381	9	2	3	0.8691	0.8425	0	1	0.940	0	0	0
91	1	382	1	1	1	0.8691	0.8425	0	1	0.641	71	82	82
91	1	383	9	2	3	0.8691	0.8425	1	1	0.710	0	82	0
91	1	384	1	1	3	0.8691	0.8425	0	1	0.465	89	82	82
91	1	385	0	2	2	0.8691	0.8425	1	1	1.411	5	82	0
91	1	386	0	2	2	0.8691	0.8425	1	0	0.607	0	82	0
91	1	387	1	1	2	0.8691	0.8425	1	1	0.859	50	82	0
91	1	388	0	1	3	0.8691	0.8425	1	1	0.656	7	0	82
91	1	389	1	2	2	0.8691	0.8425	1	0	0.512	0	0	82
91	1	390	1	1	3	0.8691	0.8425	1	1	1.847	50	82	0
91	1	391	0	2	2	0.8691	0.8425	0	1	2.311	5	0	0
91	1	392	1	1	3	0.8691	0.8425	0	1	1.043	50	82	82
91	1	393	1	1	1	0.8691	0.8425	0	1	0.638	71	82	82
91	1	394	9	1	1	0.8691	0.8425	1	1	0.904	0	82	0
91	1	395	1	2	2	0.8691	0.8425	1	1	0.573	78	0	82
91	1	396	9	2	2	0.8691	0.8425	0	1	0.595	0	0	0
91	1	397	1	1	1	0.8691	0.8425	0	0	0.524	0	82	82
91	1	398	1	2	3	0.8691	0.8425	1	1	0.753	60	0	82
91	1	399	0	2	1	0.8691	0.8425	0	1	0.476	9	0	0
91	1	400	0	2	3	0.8691	0.8425	1	0	0.468	0	82	0
91	1	401	1	2	2	0.8691	0.8425	0	1	0.440	91	82	82
91	1	402	1	1	1	0.8691	0.8425	0	1	0.678	67	82	82
91	1	403	1	2	3	0.8691	0.8425	1	1	0.588	76	0	82
91	1	404	9	1	1	0.8691	0.8425	1	1	0.592	0	82	0
91	1	405	0	1	2	0.8691	0.8425	0	1	1.339	5	0	0
91	1	406	1	1	2	0.8691	0.8425	1	1	0.548	80	82	0
91	1	407	9	2	3	0.8691	0.8425	0	1	0.776	0	82	82
91	1	408	1	1	3	0.8691	0.8425	1	1	0.521	83	82	0
91	1	409	1	1	3	0.8691	0.8425	1	1	0.516	83	82	0
91	1	410	0	2	3	0.8691	0.8425	0	1	0.690	7	0	0
91	1	411	1	2	2	0.8691	0.8425	1	0	0.927	0	0	82
91	1	412	1	1	1	0.8691	0.8425	1	1	1.060	50	82	0
91	1	413	0	1	1	0.8691	0.8425	1	1	0.472	9	0	82
91	1	414	1	1	3	0.8691	0.8425	0	1	0.849	50	82	82
91	1	415	9	2	2	0.8691	0.8425	1	1	0.819	0	82	0
91	1	416	1	2	2	0.8691	0.8425	0	1	0.622	73	82	82
91	1	417	1	1	3	0.8691	0.8425	1	1	0.645	70	82	0
91	1	418	0	1	3	0.8691	0.8425	0	0	0.672	0	0	0
91	1	419	9	2	1	0.8691	0.8425	0	1	0.845	0	0	0
91	1	420	0	1	3	0.8691	0.8425	1	1	0.504	8	0	82
91	1	421	0	1	1	0.8691	0.8425	1	1	1.027	5	0	82
91	1	422	1	1	3	0.8691	0.8425	0	1	0.395	95	82	82
91	1	423	1	1	3	0.8691	0.8425	1	1	0.516	83	82	0
91	1	424	9	1	1	0.8691	0.8425	1	1	0.410	0	0	82
91	1	425	1	1	1	0.8691	0.8425	1	1	0.573	78	82	0
91	1	426	0	1	1	0.8691	0.8425	0	1	0.436	9	0	0
91	1	427	9	2	3	0.8691	0.8425	1	0	0.595	0	82	0
91	1	428	9	2	3	0.8691	0.8425	0	1	0.589	0	0	0
91	1	429	9	1	2	0.8691	0.8425	0	1	0.583	0	0	0
91	1	430	1	1	3	0.8691	0.8425	0	0	0.921	0	82	82
91	1	431	0	2	3	0.8691	0.8425	0	1	0.847	5	0	0
91	1	432	1	1	3	0.8691	0.8425	0	1	0.771	58	82	82
91	1	433	9	1	3	0.8691	0.8425	1	1	1.113	0	82	0
91	1	434	0	2	3	0.8691	0.8425	0	1	0.731	6	0	0
91	1	435	1	2	3	0.8691	0.8425	0	1	0.684	67	82	82
91	1	436	1	2	2	0.8691	0.8425	1	1	0.440	91	0	82
91	1	437	0	1	3	0.8691	0.8425	1	1	0.788	6	0	82
91	1	438	1	2	3	0.8691	0.8425	1	1	0.618	73	0	82
91	1	439	0	1	1	0.8691	0.8425	1	1	0.455	9	0	82
91	1	440	1	1	3	0.8691	0.8425	1	1	0.996	50	82	0
91	1	441	1	1	3	0.8691	0.8425	0	0	1.069	0	82	82
91	1	442	1	1	1	0.8691	0.8425	1	1	0.772	58	82	0
91	1	443	1	2	1	0.8691	0.8425	1	1	0.647	70	0	82
91	1	444	9	2	3	0.8691	0.8425	1	1	0.475	0	0	82
91	1	445	1	1	2	0.8691	0.8425	0	1	0.963	50	82	82
91	1	446	0	1	3	0.8691	0.8425	1	1	0.497	9	0	82
91	1	447	0	2	2	0.8691	0.8425	1	1	0.672	7	82	0
91	1	448	0	1	3	0.8691	0.8425	0	0	0.967	0	0	0
91	1	449	1	1	1	0.8691	0.8425	0	1	1.056	50	82	82
91	1	450	1	2	2	0.8691	0.8425	0	1	0.412	94	82	82
91	1	451	1	1	1	0.8691	0.8425	1	1	0.630	72	82	0
91	1	452	9	2	2	0.8691	0.8425	1	1	0.507	0	0	82
91	1	453	0	2	2	0.8691	0.8425	1	1	0.495	9	82	0
91	1	454	0	2	3	0.8691	0.8425	1	1	0.527	8	82	0
91	1	455	0	1	1	0.8691	0.8425	1	0	0.785	0	0	82
91	1	456	9	2	2	0.8691	0.8425	0	1	0.609	0	0	0
91	1	457	9	2	2	0.8691	0.8425	0	1	0.659	0	0	0
91	1	458	9	1	3	0.8691	0.8425	1	1	0.497	0	0	82
91	1	459	1	2	2	0.8691	0.8425	0	1	0.717	63	82	82
91	1	460	1	2	2	0.8691	0.8425	1	0	0.648	0	0	82
91	1	461	0	2	3	0.8691	0.8425	1	1	0.732	6	82	0
91	1	462	9	2	2	0.8691	0.8425	1	1	0.866	0	0	82
91	1	463	1	2	3	0.8691	0.8425	0	1	0.684	67	82	82
91	1	464	0	2	1	0.8691	0.8425	1	1	0.869	5	82	0
91	1	465	1	2	2	0.8691	0.8425	0	1	0.675	68	82	82
91	1	466	1	1	3	0.8691	0.8425	1	1	0.812	54	82	0
91	1	467	1	2	1	0.8691	0.8425	1	1	0.817	53	0	82
91	1	468	0	1	2	0.8691	0.8425	1	1	0.502	8	0	82
91	1	469	0	2	1	0.8691	0.8425	1	1	0.463	9	82	0
91	1	470	0	2	3	0.8691	0.8425	1	1	0.579	8	82	0
91	1	471	0	1	3	0.8691	0.8425	1	0	0.593	0	0	82
91	1	472	0	2	3	0.8691	0.8425	1	1	0.484	9	82	0
91	1	473	9	2	3	0.8691	0.8425	0	1	0.614	0	82	82
91	1	474	0	2	2	0.8691	0.8425	0	1	1.817	5	0	0
91	1	475	9	1	1	0.8691	0.8425	0	1	1.159	0	82	82
91	1	476	1	2	3	0.8691	0.8425	1	1	0.989	50	0	82
91	1	477	1	1	1	0.8691	0.8425	1	1	0.633	72	82	0
91	1	478	9	1	1	0.8691	0.8425	1	1	0.837	0	0	82
91	1	479	1	1	3	0.8691	0.8425	0	1	0.791	56	82	82
91	1	480	1	1	3	0.8691	0.8425	0	1	1.364	50	82	82
91	1	481	1	2	2	0.8691	0.8425	0	1	0.599	75	82	82
91	1	482	0	1	3	0.8691	0.8425	0	0	0.421	0	0	0
91	1	483	0	1	1	0.8691	0.8425	1	1	0.475	9	0	82
91	1	484	1	1	3	0.8691	0.8425	0	1	0.581	77	82	82
91	1	485	1	2	2	0.8691	0.8425	1	1	1.081	50	0	82
91	1	486	0	2	3	0.8691	0.8425	1	1	0.837	5	82	0
91	1	487	9	1	3	0.8691	0.8425	0	1	1.401	0	82	82
91	1	488	9	1	2	0.8691	0.8425	0	1	0.732	0	82	82
91	1	489	1	1	1	0.8691	0.8425	0	1	0.418	93	82	82
91	1	490	0	1	3	0.8691	0.8425	0	0	0.447	0	0	0
91	1	491	0	1	1	0.8691	0.8425	1	0	0.831	0	0	82
91	1	492	1	2	1	0.8691	0.8425	0	1	0.813	54	82	82
91	1	493	0	2	2	0.8691	0.8425	0	1	0.590	8	0	0
91	1	494	1	2	2	0.8691	0.8425	1	0	3.002	0	0	82
91	1	495	0	2	3	0.8691	0.8425	1	1	0.606	7	82	0
91	1	496	1	1	3	0.8691	0.8425	0	1	1.174	50	82	82
91	1	497	9	1	3	0.8691	0.8425	1	0	0.675	0	0	82
91	1	498	0	2	3	0.8691	0.8425	0	0	0.899	0	0	0
91	1	499	9	2	2	0.8691	0.8425	1	1	0.639	0	82	0
91	1	500	1	1	3	0.8691	0.8425	1	1	0.760	59	82	0
91	1	501	0	1	3	0.8691	0.8425	1	1	0.625	7	0	82
91	1	502	9	2	3	0.8691	0.8425	0	1	0.553	0	82	82
91	1	503	1	1	3	0.8691	0.8425	1	1	0.503	85	82	0
91	1	504	0	1	1	0.8691	0.8425	0	0	0.795	0	0	0
91	1	505	1	2	3	0.8691	0.8425	1	1	1.548	50	0	82
91	1	506	0	1	1	0.8691	0.8425	1	1	1.172	5	0	82
91	1	507	1	1	1	0.8691	0.8425	1	1	2.171	50	82	0
91	1	508	9	2	1	0.8691	0.8425	0	1	1.375	0	82	82
91	1	509	0	1	1	0.8691	0.8425	0	1	0.549	8	0	0
91	1	510	1	2	2	0.8691	0.8425	0	1	0.852	50	82	82
91	1	511	0	1	1	0.8691	0.8425	0	0	0.785	0	0	0
91	1	512	0	1	2	0.8691	0.8425	1	1	2.509	5	0	82
91	1	513	1	2	1	0.8691	0.8425	0	1	0.528	82	82	82
91	1	514	0	1	2	0.8691	0.8425	0	1	0.687	7	0	0
91	1	515	0	2	2	0.8691	0.8425	0	1	0.680	7	0	0
91	1	516	9	2	1	0.8691	0.8425	1	1	0.636	0	82	0
91	1	517	0	2	1	0.8691	0.8425	0	1	0.473	9	0	0
91	1	518	9	1	1	0.8691	0.8425	1	0	0.932	0	0	82
91	1	519	0	2	3	0.8691	0.8425	1	1	0.411	9	82	0
91	1	520	0	2	2	0.8691	0.8425	0	1	0.764	6	0	0
91	1	521	9	1	3	0.8691	0.8425	0	1	0.804	0	82	82
91	1	522	9	1	1	0.8691	0.8425	0	1	0.851	0	0	0
91	1	523	0	2	2	0.8691	0.8425	0	1	0.597	8	0	0
91	1	524	0	2	3	0.8691	0.8425	0	1	0.742	6	0	0
91	1	525	1	2	2	0.8691	0.8425	1	1	0.860	50	0	82
91	1	526	0	1	3	0.8691	0.8425	1	1	1.400	5	0	82
91	1	527	0	2	3	0.8691	0.8425	0	1	0.958	5	0	0
91	1	528	1	2	3	0.8691	0.8425	1	1	1.010	50	0	82
91	1	529	0	2	3	0.8691	0.8425	0	1	0.761	6	0	0
91	1	530	0	1	1	0.8691	0.8425	1	1	0.722	6	0	82
91	1	531	0	1	1	0.8691	0.8425	1	1	1.194	5	0	82
91	1	532	0	1	1	0.8691	0.8425	0	1	0.758	6	0	0
91	1	533	0	2	2	0.8691	0.8425	1	0	0.701	0	82	0
91	1	534	1	1	1	0.8691	0.8425	0	1	1.317	50	82	82
91	1	535	0	2	3	0.8691	0.8425	1	1	1.221	5	82	0
91	1	536	1	1	3	0.8691	0.8425	0	0	1.140	0	82	82
91	1	537	9	1	2	0.8691	0.8425	1	1	0.639	0	82	0
91	1	538	0	1	3	0.8691	0.8425	0	0	0.726	0	0	0
91	1	539	0	1	3	0.8691	0.8425	0	1	0.908	5	0	0
91	1	540	0	1	1	0.8691	0.8425	1	1	0.551	8	0	82
91	1	541	0	2	3	0.8691	0.8425	1	1	0.734	6	82	0
91	1	542	1	1	1	0.8691	0.8425	0	1	0.801	55	82	82
91	1	543	9	2	2	0.8691	0.8425	1	1	0.848	0	0	82
91	1	544	0	2	3	0.8691	0.8425	1	1	0.737	6	82	0
91	1	545	9	2	1	0.8691	0.8425	1	1	0.538	0	0	82
91	1	546	0	1	1	0.8691	0.8425	0	1	0.590	8	0	0
91	1	547	0	2	1	0.8691	0.8425	1	1	0.690	7	82	0
91	1	548	0	1	3	0.8691	0.8425	1	1	0.499	9	0	82
91	1	549	0	2	3	0.8691	0.8425	0	1	0.646	7	0	0
91	1	550	1	2	2	0.8691	0.8425	1	0	1.292	0	0	82
91	1	551	0	2	3	0.8691	0.8425	0	1	0.819	5	0	0
91	1	552	1	1	1	0.8691	0.8425	1	1	1.101	50	82	0
91	1	553	1	2	2	0.8691	0.8425	1	1	0.970	50	0	82
91	1	554	1	2	3	0.8691	0.8425	0	1	0.941	50	82	82
91	1	555	1	2	3	0.8691	0.8425	1	1	0.515	83	0	82
91	1	556	0	1	3	0.8691	0.8425	0	1	0.766	6	0	0
91	1	557	1	2	2	0.8691	0.8425	0	1	2.370	50	82	82
91	1	558	0	1	3	0.8691	0.8425	1	1	0.581	8	0	82
91	1	559	1	2	2	0.8691	0.8425	0	1	2.833	50	82	82
91	1	560	0	2	2	0.8691	0.8425	0	1	0.682	7	0	0
91	1	561	1	1	1	0.8691	0.8425	1	0	0.557	0	82	0
91	1	562	1	2	3	0.8691	0.8425	1	1	0.727	62	0	82
91	1	563	0	2	3	0.8691	0.8425	1	1	0.907	5	82	0
91	1	564	1	1	1	0.8691	0.8425	1	1	0.784	57	82	0
91	1	565	9	2	3	0.8691	0.8425	0	1	0.715	0	0	0
91	1	566	1	2	3	0.8691	0.8425	0	1	0.666	68	82	82
91	1	567	0	1	1	0.8691	0.8425	1	1	0.954	5	0	82
91	1	568	0	1	1	0.8691	0.8425	0	1	0.941	5	0	0
91	1	569	0	2	2	0.8691	0.8425	0	1	0.937	5	0	0
91	1	570	1	2	2	0.8691	0.8425	0	1	0.551	80	82	82
91	1	571	1	1	2	0.8691	0.8425	0	1	0.480	87	82	82
91	1	572	0	1	3	0.8691	0.8425	1	1	0.800	6	0	82
91	1	573	0	1	1	0.8691	0.8425	0	1	0.875	5	0	0
91	1	574	0	2	3	0.8691	0.8425	1	1	0.629	7	82	0
91	1	575	0	1	1	0.8691	0.8425	1	1	0.623	7	0	82
91	1	576	1	2	3	0.8691	0.8425	0	1	0.841	51	82	82
91	1	577	0	1	3	0.8691	0.8425	1	1	0.860	5	0	82
91	1	578	0	2	2	0.8691	0.8425	1	0	1.031	0	82	0
91	1	579	0	2	2	0.8691	0.8425	1	0	0.689	0	82	0
91	1	580	1	2	3	0.8691	0.8425	0	0	0.967	0	82	82
91	1	581	1	1	1	0.8691	0.8425	0	1	0.899	50	82	82
91	1	582	0	1	3	0.8691	0.8425	0	1	0.466	9	0	0
91	1	583	0	1	2	0.8691	0.8425	1	1	0.929	5	0	82
91	1	584	0	2	3	0.8691	0.8425	1	0	0.611	0	82	0
91	1	585	1	1	3	0.8691	0.8425	0	1	0.642	71	82	82
91	1	586	0	2	2	0.8691	0.8425	0	1	1.377	5	0	0
91	1	587	1	2	3	0.8691	0.8425	1	1	0.731	62	0	82
91	1	588	0	2	3	0.8691	0.8425	0	1	0.545	8	0	0
91	1	589	1	2	2	0.8691	0.8425	1	1	0.812	54	0	82
91	1	590	1	2	3	0.8691	0.8425	0	1	0.938	50	82	82
91	1	591	1	2	3	0.8691	0.8425	1	1	0.813	54	0	82
91	1	592	0	1	3	0.8691	0.8425	1	1	1.022	5	0	82
91	1	593	9	2	3	0.8691	0.8425	0	1	1.523	0	82	82
91	1	594	9	1	3	0.8691	0.8425	0	0	0.717	0	82	82
91	1	595	1	2	3	0.8691	0.8425	1	1	0.901	50	0	82
91	1	596	0	2	3	0.8691	0.8425	0	1	0.719	6	0	0
91	1	597	0	1	1	0.8691	0.8425	0	1	0.903	5	0	0
91	1	598	0	2	2	0.8691	0.8425	1	1	1.769	5	82	0
91	1	599	1	2	2	0.8691	0.8425	0	1	0.732	62	82	82
91	1	600	9	2	2	0.8691	0.8425	0	1	1.168	0	82	82
91	1	601	0	2	2	0.8691	0.8425	0	1	0.882	5	0	0
91	1	602	0	1	1	0.8691	0.8425	0	1	0.680	7	0	0
91	1	603	0	1	3	0.8691	0.8425	0	1	0.488	9	0	0
91	1	604	1	2	1	0.8691	0.8425	1	1	0.453	90	0	82
91	1	605	9	2	3	0.8691	0.8425	1	1	0.422	0	0	82
91	1	606	1	1	2	0.8691	0.8425	1	0	0.580	0	82	0
91	1	607	9	2	2	0.8691	0.8425	1	1	0.486	0	82	0
91	1	608	0	1	3	0.8691	0.8425	1	1	0.669	7	0	82
91	1	609	0	1	2	0.8691	0.8425	0	1	0.763	6	0	0
91	1	610	0	2	3	0.8691	0.8425	0	1	0.891	5	0	0
91	1	611	0	1	1	0.8691	0.8425	0	1	1.233	5	0	0
91	1	612	1	1	1	0.8691	0.8425	0	1	0.681	67	82	82
91	1	613	0	2	3	0.8691	0.8425	0	1	0.598	8	0	0
91	1	614	0	1	3	0.8691	0.8425	0	1	0.844	5	0	0
91	1	615	9	1	1	0.8691	0.8425	0	1	0.678	0	0	0
91	1	616	9	2	3	0.8691	0.8425	1	0	0.948	0	0	82
91	1	617	0	2	2	0.8691	0.8425	0	1	0.520	8	0	0
91	1	618	1	1	1	0.8691	0.8425	0	0	0.517	0	82	82
91	1	619	9	1	3	0.8691	0.8425	0	1	0.894	0	0	0
91	1	620	1	2	3	0.8691	0.8425	0	1	0.603	75	82	82
91	1	621	9	1	3	0.8691	0.8425	1	1	0.666	0	82	0
91	1	622	0	2	2	0.8691	0.8425	1	1	0.647	7	82	0
91	1	623	9	1	3	0.8691	0.8425	1	1	0.739	0	0	82
91	1	624	0	2	1	0.8691	0.8425	0	1	0.452	9	0	0
91	1	625	1	2	3	0.8691	0.8425	0	0	0.411	0	82	82
91	1	626	0	2	2	0.8691	0.8425	0	1	0.447	9	0	0
91	1	627	1	1	1	0.8691	0.8425	0	1	0.985	50	82	82
91	1	628	1	2	3	0.8691	0.8425	1	1	2.164	50	0	82
91	1	629	1	1	2	0.8691	0.8425	1	1	1.255	50	82	0
91	1	630	9	1	2	0.8691	0.8425	1	1	1.510	0	0	82
91	1	631	9	1	1	0.8691	0.8425	1	1	1.073	0	0	82
91	1	632	1	2	2	0.8691	0.8425	0	1	0.416	93	82	82
91	1	633	9	1	1	0.8691	0.8425	0	1	0.740	0	0	0
91	1	634	1	1	3	0.8691	0.8425	1	1	0.807	54	82	0
91	1	635	1	1	2	0.8691	0.8425	0	1	1.183	50	82	82
91	1	636	9	2	2	0.8691	0.8425	0	1	0.482	0	0	0
91	1	637	9	2	2	0.8691	0.8425	0	1	0.598	0	82	82
91	1	638	0	2	3	0.8691	0.8425	0	1	0.336	10	0	0
91	1	639	1	1	1	0.8691	0.8425	0	1	0.443	91	82	82
91	1	640	1	2	2	0.8691	0.8425	1	1	0.616	73	0	82
91	1	641	0	1	3	0.8691	0.8425	0	1	0.645	7	0	0
91	1	642	0	2	3	0.8691	0.8425	0	1	0.686	7	0	0
91	1	643	9	2	2	0.8691	0.8425	0	1	0.753	0	82	82
91	1	644	0	1	3	0.8691	0.8425	0	1	0.933	5	0	0
91	1	645	1	1	1	0.8691	0.8425	0	1	0.547	80	82	82
91	1	646	1	2	2	0.8691	0.8425	1	1	0.472	88	0	82
91	1	647	0	2	2	0.8691	0.8425	1	0	0.365	0	82	0
91	1	648	9	1	1	0.8691	0.8425	1	1	0.792	0	82	0
91	1	649	9	1	1	0.8691	0.8425	1	1	0.680	0	82	0
91	1	650	1	2	2	0.8691	0.8425	1	1	0.963	50	0	82
91	1	651	9	1	1	0.8691	0.8425	0	0	1.112	0	82	82
91	1	652	0	2	2	0.8691	0.8425	1	1	1.294	5	82	0
91	1	653	0	1	2	0.8691	0.8425	1	1	0.641	7	0	82
91	1	654	1	2	3	0.8691	0.8425	0	1	0.703	65	82	82
91	1	655	1	2	3	0.8691	0.8425	0	1	1.030	50	82	82
91	1	656	1	2	3	0.8691	0.8425	1	0	1.005	0	0	82
91	1	657	0	1	1	0.8691	0.8425	0	1	0.814	5	0	0
91	1	658	1	1	2	0.8691	0.8425	0	1	0.592	76	82	82
91	1	659	1	1	1	0.8691	0.8425	1	1	0.822	53	82	0
91	1	660	1	1	3	0.8691	0.8425	1	1	0.644	71	82	0
91	1	661	1	1	1	0.8691	0.8425	1	1	0.521	83	82	0
91	1	662	0	1	3	0.8691	0.8425	0	0	0.450	0	0	0
91	1	663	9	1	3	0.8691	0.8425	0	1	0.370	0	82	82
91	1	664	1	2	2	0.8691	0.8425	0	1	0.429	92	82	82
91	1	665	1	1	1	0.8691	0.8425	1	1	0.324	100	82	0
91	1	666	9	2	3	0.8691	0.8425	1	0	0.321	0	82	0
91	1	667	0	2	2	0.8691	0.8425	1	0	0.433	0	82	0
91	1	668	9	1	3	0.8691	0.8425	0	1	0.870	0	0	0
91	1	669	9	2	3	0.8691	0.8425	0	0	0.512	0	0	0
91	1	670	9	1	3	0.8691	0.8425	1	1	0.806	0	0	82
91	1	671	1	1	3	0.8691	0.8425	1	1	0.726	62	82	0
91	1	672	0	1	1	0.8691	0.8425	0	1	0.618	7	0	0
91	1	673	1	2	3	0.8691	0.8425	0	1	0.521	83	82	82
91	1	674	0	1	1	0.8691	0.8425	1	1	0.532	8	0	82
91	1	675	1	1	3	0.8691	0.8425	0	1	0.659	69	82	82
91	1	676	1	1	1	0.8691	0.8425	0	1	0.599	75	82	82
91	1	677	1	2	2	0.8691	0.8425	1	1	0.839	51	0	82
91	1	678	9	1	3	0.8691	0.8425	1	1	0.528	0	82	0
91	1	679	0	1	3	0.8691	0.8425	1	1	0.435	9	0	82
91	1	680	1	2	2	0.8691	0.8425	1	0	0.429	0	0	82
91	1	681	0	2	2	0.8691	0.8425	1	1	1.152	5	82	0
91	1	682	1	1	1	0.8691	0.8425	0	1	0.684	67	82	82
91	1	683	1	2	2	0.8691	0.8425	0	1	0.949	50	82	82
91	1	684	9	2	2	0.8691	0.8425	1	1	0.811	0	82	0
91	1	685	0	1	3	0.8691	0.8425	1	1	0.817	5	0	82
91	1	686	1	1	1	0.8691	0.8425	1	1	0.670	68	82	0
91	1	687	9	1	3	0.8691	0.8425	1	1	0.600	0	82	0
91	1	688	0	1	2	0.8691	0.8425	0	1	0.730	6	0	0
91	1	689	9	2	3	0.8691	0.8425	1	1	1.033	0	82	0
91	1	690	1	2	3	0.8691	0.8425	0	1	0.676	67	82	82
91	1	691	1	1	3	0.8691	0.8425	0	1	0.752	60	82	82
91	1	692	1	1	1	0.8691	0.8425	1	1	0.841	51	82	0
91	1	693	1	1	1	0.8691	0.8425	1	1	0.762	59	82	0
91	1	694	0	2	2	0.8691	0.8425	0	1	0.453	9	0	0
91	1	695	1	2	3	0.8691	0.8425	1	1	0.878	50	0	82
91	1	696	0	2	2	0.8691	0.8425	1	0	0.837	0	82	0
91	1	697	0	1	3	0.8691	0.8425	0	1	0.607	7	0	0
91	1	698	1	2	3	0.8691	0.8425	0	1	1.019	50	82	82
91	1	699	9	1	3	0.8691	0.8425	0	1	0.728	0	0	0
91	1	700	0	1	1	0.8691	0.8425	1	1	0.706	6	0	82
91	1	701	1	2	3	0.8691	0.8425	1	1	0.941	50	0	82
91	1	702	1	2	1	0.8691	0.8425	0	1	1.906	50	82	82
91	1	703	0	1	1	0.8691	0.8425	0	1	0.637	7	0	0
91	1	704	1	2	3	0.8691	0.8425	0	1	0.886	50	82	82
91	1	705	9	1	1	0.8691	0.8425	0	1	0.674	0	82	82
91	1	706	0	1	1	0.8691	0.8425	1	1	1.021	5	0	82
91	1	707	9	2	2	0.8691	0.8425	0	1	0.846	0	82	82
91	1	708	0	1	1	0.8691	0.8425	0	1	0.687	7	0	0
91	1	709	1	1	3	0.8691	0.8425	1	1	0.862	50	82	0
91	1	710	1	1	3	0.8691	0.8425	1	1	0.685	67	82	0
91	1	711	9	1	1	0.8691	0.8425	0	1	0.598	0	82	82
91	1	712	1	1	1	0.8691	0.8425	1	1	0.965	50	82	0
91	1	713	1	2	3	0.8691	0.8425	1	1	0.545	81	0	82
91	1	714	9	1	1	0.8691	0.8425	0	1	0.640	0	0	0
91	1	715	0	2	3	0.8691	0.8425	1	1	1.061	5	82	0
91	1	716	1	2	2	0.8691	0.8425	0	1	0.603	75	82	82
91	1	717	0	2	2	0.8691	0.8425	0	1	0.689	7	0	0
91	1	718	1	1	3	0.8691	0.8425	1	0	1.175	0	82	0
91	1	719	0	1	3	0.8691	0.8425	1	1	0.727	6	0	82
91	1	720	0	1	1	0.8691	0.8425	1	1	0.811	5	0	82
