sub	sess	t	rew	loc	cue	co1	co2	or	resp	rt	rew_tot	left_col	right_col
80	1	1	1	2	2	0.0500	0.2694	1	1	0.949	50	82	0
80	1	2	0	2	2	0.0500	0.2694	0	0	0.901	0	82	82
80	1	3	1	1	1	0.0500	0.2694	1	0	1.070	0	0	82
80	1	4	0	1	1	0.0500	0.2694	1	1	0.633	7	82	0
80	1	5	9	1	3	0.0500	0.2694	0	1	0.694	0	0	0
80	1	6	1	2	2	0.0500	0.2694	1	1	0.766	58	82	0
80	1	7	0	1	1	0.0500	0.2694	1	1	0.553	8	82	0
80	1	8	9	1	1	0.0500	0.2694	0	1	0.610	0	0	0
80	1	9	1	1	1	0.0500	0.2694	0	1	0.478	87	0	0
80	1	10	9	1	2	0.0500	0.2694	1	1	0.576	0	82	0
80	1	11	1	2	2	0.0500	0.2694	1	0	0.572	0	82	0
80	1	12	0	1	1	0.0500	0.2694	0	1	0.474	9	82	82
80	1	13	0	2	2	0.0500	0.2694	0	1	1.213	5	82	82
80	1	14	0	2	3	0.0500	0.2694	1	1	0.558	8	0	82
80	1	15	0	2	3	0.0500	0.2694	1	1	0.813	5	0	82
80	1	16	0	2	3	0.0500	0.2694	0	1	0.637	7	82	82
80	1	17	9	2	1	0.0500	0.2694	1	1	0.469	0	0	82
80	1	18	9	2	1	0.0500	0.2694	0	1	0.596	0	82	82
80	1	19	0	2	2	0.0500	0.2694	0	1	0.658	7	82	82
80	1	20	1	2	1	0.0500	0.2694	1	1	0.675	67	82	0
80	1	21	1	2	2	0.0500	0.2694	0	1	0.544	81	0	0
80	1	22	0	1	3	0.0500	0.2694	1	1	0.597	8	82	0
80	1	23	1	2	2	0.0500	0.2694	1	1	0.512	84	82	0
80	1	24	1	2	1	0.0500	0.2694	0	1	0.695	65	0	0
80	1	25	1	2	1	0.0500	0.2694	1	1	0.691	66	82	0
80	1	26	1	1	1	0.0500	0.2694	0	1	0.520	83	0	0
80	1	27	9	2	2	0.0500	0.2694	0	1	0.542	0	82	82
80	1	28	9	1	1	0.0500	0.2694	1	1	0.556	0	0	82
80	1	29	9	1	1	0.0500	0.2694	1	0	0.667	0	82	0
80	1	30	0	2	2	0.0500	0.2694	0	1	0.622	7	82	82
80	1	31	9	1	1	0.0500	0.2694	0	0	0.711	0	0	0
80	1	32	1	1	1	0.0500	0.2694	1	1	0.726	62	0	82
80	1	33	9	2	2	0.0500	0.2694	1	1	0.764	0	82	0
80	1	34	0	1	3	0.0500	0.2694	0	1	0.450	9	82	82
80	1	35	1	1	3	0.0500	0.2694	0	1	0.586	76	0	0
80	1	36	0	2	3	0.0500	0.2694	1	1	0.570	8	0	82
80	1	37	1	1	3	0.0500	0.2694	0	1	0.426	92	0	0
80	1	38	9	1	1	0.0500	0.2694	1	1	0.594	0	0	82
80	1	39	1	1	1	0.0500	0.2694	1	1	0.518	83	0	82
80	1	40	1	1	1	0.0500	0.2694	1	1	0.448	90	0	82
80	1	41	1	2	2	0.0500	0.2694	1	1	0.493	86	82	0
80	1	42	9	2	2	0.0500	0.2694	1	1	0.431	0	0	82
80	1	43	0	1	1	0.0500	0.2694	0	1	0.686	7	82	82
80	1	44	9	1	3	0.0500	0.2694	1	1	1.465	0	0	82
80	1	45	1	2	3	0.0500	0.2694	1	1	0.557	79	82	0
80	1	46	0	1	1	0.0500	0.2694	1	1	0.610	7	82	0
80	1	47	0	2	3	0.0500	0.2694	0	1	0.463	9	82	82
80	1	48	9	1	1	0.0500	0.2694	0	1	0.600	0	0	0
80	1	49	1	2	3	0.0500	0.2694	0	1	0.651	70	0	0
80	1	50	9	2	1	0.0500	0.2694	1	1	0.596	0	82	0
80	1	51	1	1	3	0.0500	0.2694	1	0	0.926	0	0	82
80	1	52	0	2	2	0.0500	0.2694	1	1	0.616	7	0	82
80	1	53	1	2	3	0.0500	0.2694	0	1	0.665	68	0	0
80	1	54	1	1	3	0.0500	0.2694	0	1	1.294	50	0	0
80	1	55	0	1	1	0.0500	0.2694	1	1	0.704	6	82	0
80	1	56	1	2	3	0.0500	0.2694	0	1	0.524	83	0	0
80	1	57	1	1	3	0.0500	0.2694	0	0	0.594	0	0	0
80	1	58	9	2	2	0.0500	0.2694	1	1	0.673	0	82	0
80	1	59	1	1	1	0.0500	0.2694	1	0	1.108	0	0	82
80	1	60	1	2	1	0.0500	0.2694	1	0	0.701	0	82	0
80	1	61	0	2	2	0.0500	0.2694	1	1	0.447	9	0	82
80	1	62	1	2	2	0.0500	0.2694	0	1	0.471	88	0	0
80	1	63	0	2	2	0.0500	0.2694	1	1	0.455	9	0	82
80	1	64	1	1	1	0.0500	0.2694	1	1	0.561	79	0	82
80	1	65	0	1	1	0.0500	0.2694	1	1	0.492	9	82	0
80	1	66	9	2	2	0.0500	0.2694	0	1	0.368	0	82	82
80	1	67	9	2	3	0.0500	0.2694	1	1	0.371	0	0	82
80	1	68	1	1	3	0.0500	0.2694	0	1	0.901	50	0	0
80	1	69	0	1	3	0.0500	0.2694	1	0	0.816	0	82	0
80	1	70	0	2	2	0.0500	0.2694	1	1	0.515	8	0	82
80	1	71	1	1	3	0.0500	0.2694	1	1	0.619	73	0	82
80	1	72	0	2	2	0.0500	0.2694	0	1	0.688	7	82	82
80	1	73	1	2	1	0.0500	0.2694	0	1	0.581	77	0	0
80	1	74	1	1	2	0.0500	0.2694	1	1	1.065	50	0	82
80	1	75	1	1	3	0.0500	0.2694	0	1	0.592	76	0	0
80	1	76	1	1	1	0.0500	0.2694	0	1	0.398	95	0	0
80	1	77	9	2	2	0.0500	0.2694	0	0	0.610	0	82	82
80	1	78	1	1	1	0.0500	0.2694	1	1	0.599	75	0	82
80	1	79	0	2	2	0.0500	0.2694	0	1	0.586	8	82	82
80	1	80	1	1	1	0.0500	0.2694	1	1	0.557	79	0	82
80	1	81	1	2	2	0.0500	0.2694	0	1	0.692	66	0	0
80	1	82	0	2	2	0.0500	0.2694	1	1	0.506	8	0	82
80	1	83	0	1	1	0.0500	0.2694	0	1	0.488	9	82	82
80	1	84	0	1	2	0.0500	0.2694	0	1	0.903	5	82	82
80	1	85	0	1	3	0.0500	0.2694	0	1	0.552	8	82	82
80	1	86	1	2	2	0.0500	0.2694	1	1	0.527	82	82	0
80	1	87	0	2	3	0.0500	0.2694	1	1	0.708	6	0	82
80	1	88	0	1	3	0.0500	0.2694	1	0	0.462	0	82	0
80	1	89	1	2	3	0.0500	0.2694	0	1	0.507	84	0	0
80	1	90	0	2	2	0.0500	0.2694	1	1	0.530	8	0	82
80	1	91	9	1	3	0.0500	0.2694	0	1	0.751	0	82	82
80	1	92	0	1	2	0.0500	0.2694	1	1	0.705	6	82	0
80	1	93	0	1	1	0.0500	0.2694	0	1	0.501	8	82	82
80	1	94	0	2	3	0.0500	0.2694	1	1	0.628	7	0	82
80	1	95	9	2	3	0.0500	0.2694	1	1	0.518	0	0	82
80	1	96	0	2	1	0.0500	0.2694	1	1	0.578	8	0	82
80	1	97	0	2	2	0.0500	0.2694	0	1	0.490	9	82	82
80	1	98	9	2	2	0.0500	0.2694	0	1	0.594	0	82	82
80	1	99	1	1	3	0.0500	0.2694	1	1	0.787	56	0	82
80	1	100	9	2	2	0.0500	0.2694	1	1	0.533	0	82	0
80	1	101	0	1	1	0.0500	0.2694	0	1	0.780	6	82	82
80	1	102	0	2	3	0.0500	0.2694	0	1	0.861	5	82	82
80	1	103	0	1	1	0.0500	0.2694	0	1	0.539	8	82	82
80	1	104	9	2	1	0.0500	0.2694	0	1	0.804	0	0	0
80	1	105	0	1	1	0.0500	0.2694	1	1	0.492	9	82	0
80	1	106	1	1	2	0.0500	0.2694	0	1	0.474	88	0	0
80	1	107	1	1	1	0.0500	0.2694	0	1	0.551	80	0	0
80	1	108	1	2	3	0.0500	0.2694	0	1	0.584	77	0	0
80	1	109	0	2	3	0.0500	0.2694	0	1	1.331	5	82	82
80	1	110	0	2	2	0.0500	0.2694	1	1	0.644	7	0	82
80	1	111	1	1	1	0.0500	0.2694	0	0	0.630	0	0	0
80	1	112	1	1	1	0.0500	0.2694	0	1	0.512	84	0	0
80	1	113	1	1	2	0.0500	0.2694	0	1	0.487	86	0	0
80	1	114	1	1	1	0.0500	0.2694	0	1	0.494	86	0	0
80	1	115	1	1	3	0.0500	0.2694	1	0	0.459	0	0	82
80	1	116	9	2	3	0.0500	0.2694	0	1	0.703	0	0	0
80	1	117	1	1	2	0.0500	0.2694	0	1	0.578	77	0	0
80	1	118	9	1	2	0.0500	0.2694	1	0	0.635	0	0	82
80	1	119	1	1	2	0.0500	0.2694	0	1	0.499	85	0	0
80	1	120	0	1	3	0.0500	0.2694	0	1	0.521	8	82	82
80	1	121	0	1	3	0.0500	0.2694	1	1	0.700	7	82	0
80	1	122	0	2	3	0.0500	0.2694	1	1	0.776	6	0	82
80	1	123	9	2	2	0.0500	0.2694	0	1	0.534	0	0	0
80	1	124	1	1	3	0.0500	0.2694	1	1	0.518	83	0	82
80	1	125	1	1	1	0.0500	0.2694	1	1	3.178	50	0	82
80	1	126	1	2	3	0.0500	0.2694	0	1	0.729	62	0	0
80	1	127	1	2	2	0.0500	0.2694	1	1	0.504	85	82	0
80	1	128	1	2	3	0.0500	0.2694	1	1	0.483	87	82	0
80	1	129	9	1	1	0.0500	0.2694	0	1	0.738	0	82	82
80	1	130	0	2	2	0.0500	0.2694	0	1	0.472	9	82	82
80	1	131	0	2	3	0.0500	0.2694	0	1	0.499	9	82	82
80	1	132	0	1	2	0.0500	0.2694	1	0	0.819	0	82	0
80	1	133	0	2	2	0.0500	0.2694	1	1	0.561	8	0	82
80	1	134	0	2	2	0.0500	0.2694	0	1	0.433	9	82	82
80	1	135	0	2	2	0.0500	0.2694	0	1	0.516	8	82	82
80	1	136	9	2	3	0.0500	0.2694	0	1	0.418	0	0	0
80	1	137	1	1	3	0.0500	0.2694	1	0	0.738	0	0	82
80	1	138	1	2	2	0.0500	0.2694	0	1	0.557	79	0	0
80	1	139	9	1	1	0.0500	0.2694	1	1	0.499	0	0	82
80	1	140	0	1	2	0.0500	0.2694	1	0	0.554	0	82	0
80	1	141	0	2	3	0.0500	0.2694	1	1	0.526	8	0	82
80	1	142	9	2	2	0.0500	0.2694	1	0	0.654	0	0	82
80	1	143	0	2	1	0.0500	0.2694	1	0	0.607	0	0	82
80	1	144	9	2	2	0.0500	0.2694	0	1	0.477	0	0	0
80	1	145	1	1	3	0.0500	0.2694	0	1	0.580	77	0	0
80	1	146	9	1	3	0.0500	0.2694	0	0	2.703	0	82	82
80	1	147	0	2	3	0.0500	0.2694	0	1	0.597	8	82	82
80	1	148	1	1	3	0.0500	0.2694	1	1	0.815	54	0	82
80	1	149	1	1	3	0.0500	0.2694	1	0	0.897	0	0	82
80	1	150	0	2	3	0.0500	0.2694	0	1	0.619	7	82	82
80	1	151	1	1	1	0.0500	0.2694	1	0	0.650	0	0	82
80	1	152	1	1	1	0.0500	0.2694	1	1	0.590	76	0	82
80	1	153	0	1	1	0.0500	0.2694	0	1	1.157	5	82	82
80	1	154	0	1	3	0.0500	0.2694	0	1	0.472	9	82	82
80	1	155	0	2	2	0.0500	0.2694	1	1	0.401	9	0	82
80	1	156	1	1	3	0.0500	0.2694	0	1	0.569	78	0	0
80	1	157	1	1	3	0.0500	0.2694	1	0	0.547	0	0	82
80	1	158	1	2	3	0.0500	0.2694	0	1	0.397	95	0	0
80	1	159	9	1	1	0.0500	0.2694	0	1	0.563	0	82	82
80	1	160	9	1	1	0.0500	0.2694	1	1	0.546	0	82	0
80	1	161	0	2	3	0.0500	0.2694	1	1	0.388	10	0	82
80	1	162	1	1	3	0.0500	0.2694	0	1	0.458	89	0	0
80	1	163	0	2	3	0.0500	0.2694	0	0	0.780	0	82	82
80	1	164	1	2	2	0.0500	0.2694	1	1	0.919	50	82	0
80	1	165	0	2	2	0.0500	0.2694	0	1	0.550	8	82	82
80	1	166	9	1	3	0.0500	0.2694	1	0	0.600	0	82	0
80	1	167	1	1	3	0.0500	0.2694	0	1	0.511	84	0	0
80	1	168	1	2	2	0.0500	0.2694	0	1	0.681	67	0	0
80	1	169	0	2	2	0.0500	0.2694	0	1	0.568	8	82	82
80	1	170	0	1	3	0.0500	0.2694	1	1	0.535	8	82	0
80	1	171	1	1	1	0.0500	0.2694	1	1	0.492	86	0	82
80	1	172	1	2	3	0.0500	0.2694	1	1	0.740	61	82	0
80	1	173	0	1	3	0.0500	0.2694	0	1	0.807	5	82	82
80	1	174	1	1	1	0.0500	0.2694	1	1	0.453	90	0	82
80	1	175	9	1	3	0.0500	0.2694	1	1	0.449	0	0	82
80	1	176	1	2	2	0.0500	0.2694	0	1	0.483	87	0	0
80	1	177	0	2	3	0.0500	0.2694	0	1	0.714	6	82	82
80	1	178	1	2	2	0.0500	0.2694	0	1	0.485	87	0	0
80	1	179	0	2	1	0.0500	0.2694	0	1	0.536	8	82	82
80	1	180	9	2	2	0.0500	0.2694	1	1	0.438	0	0	82
80	1	181	1	2	2	0.0500	0.2694	1	1	0.435	91	82	0
80	1	182	0	2	1	0.0500	0.2694	0	1	0.537	8	82	82
80	1	183	9	1	3	0.0500	0.2694	0	1	0.548	0	0	0
80	1	184	0	1	1	0.0500	0.2694	1	1	0.545	8	82	0
80	1	185	0	1	3	0.0500	0.2694	0	1	0.403	9	82	82
80	1	186	9	2	3	0.0500	0.2694	1	1	0.327	0	0	82
80	1	187	1	2	2	0.0500	0.2694	0	1	0.347	100	0	0
80	1	188	1	1	3	0.0500	0.2694	1	1	0.312	100	0	82
80	1	189	1	2	1	0.0500	0.2694	0	1	0.451	90	0	0
80	1	190	9	2	3	0.0500	0.2694	0	1	0.430	0	82	82
80	1	191	1	1	1	0.0500	0.2694	0	1	0.449	90	0	0
80	1	192	1	2	3	0.0500	0.2694	1	1	0.519	83	82	0
80	1	193	9	2	3	0.0500	0.2694	0	1	0.523	0	82	82
80	1	194	1	2	2	0.0500	0.2694	0	1	0.323	100	0	0
80	1	195	0	2	2	0.0500	0.2694	1	1	0.419	9	0	82
80	1	196	1	2	3	0.0500	0.2694	0	1	0.333	100	0	0
80	1	197	1	1	1	0.0500	0.2694	1	1	0.418	93	0	82
80	1	198	0	1	3	0.0500	0.2694	1	1	0.658	7	82	0
80	1	199	0	1	3	0.0500	0.2694	1	1	0.468	9	82	0
80	1	200	0	2	3	0.0500	0.2694	0	1	0.659	7	82	82
80	1	201	1	1	1	0.0500	0.2694	0	0	0.523	0	0	0
80	1	202	1	2	2	0.0500	0.2694	1	1	0.442	91	82	0
80	1	203	1	2	3	0.0500	0.2694	1	1	0.668	68	82	0
80	1	204	0	1	1	0.0500	0.2694	1	0	2.107	0	82	0
80	1	205	0	1	3	0.0500	0.2694	1	1	0.778	6	82	0
80	1	206	1	2	2	0.0500	0.2694	0	1	0.549	80	0	0
80	1	207	0	2	1	0.0500	0.2694	0	1	0.597	8	82	82
80	1	208	0	2	3	0.0500	0.2694	1	1	1.023	5	0	82
80	1	209	0	2	3	0.0500	0.2694	1	1	0.487	9	0	82
80	1	210	1	1	3	0.0500	0.2694	1	1	0.727	62	0	82
80	1	211	1	2	3	0.0500	0.2694	0	1	0.328	100	0	0
80	1	212	1	2	1	0.0500	0.2694	0	1	0.342	100	0	0
80	1	213	0	1	3	0.0500	0.2694	0	0	0.442	0	82	82
80	1	214	0	1	1	0.0500	0.2694	1	0	0.427	0	82	0
80	1	215	1	1	3	0.0500	0.2694	0	1	0.952	50	0	0
80	1	216	1	1	1	0.0500	0.2694	0	1	0.390	96	0	0
80	1	217	0	2	3	0.0500	0.2694	0	0	0.333	0	82	82
80	1	218	9	1	1	0.0500	0.2694	0	1	0.422	0	82	82
80	1	219	0	1	3	0.0500	0.2694	1	0	0.707	0	82	0
80	1	220	1	2	1	0.0500	0.2694	1	1	0.546	80	82	0
80	1	221	9	1	3	0.0500	0.2694	1	1	0.769	0	82	0
80	1	222	1	1	1	0.0500	0.2694	1	1	0.439	91	0	82
80	1	223	1	2	3	0.0500	0.2694	1	1	0.345	100	82	0
80	1	224	0	1	2	0.0500	0.2694	0	1	0.615	7	82	82
80	1	225	0	1	3	0.0500	0.2694	0	0	0.475	0	82	82
80	1	226	0	1	2	0.0500	0.2694	0	0	0.958	0	82	82
80	1	227	1	2	3	0.0500	0.2694	0	1	0.311	100	0	0
80	1	228	1	2	2	0.0500	0.2694	1	1	0.473	88	82	0
80	1	229	0	2	2	0.0500	0.2694	0	1	0.569	8	82	82
80	1	230	0	1	1	0.0500	0.2694	0	1	0.542	8	82	82
80	1	231	0	2	3	0.0500	0.2694	0	1	0.569	8	82	82
80	1	232	0	1	1	0.0500	0.2694	1	1	0.455	9	82	0
80	1	233	1	1	1	0.0500	0.2694	0	1	0.523	83	0	0
80	1	234	1	2	3	0.0500	0.2694	1	1	0.607	74	82	0
80	1	235	0	2	3	0.0500	0.2694	1	1	0.636	7	0	82
80	1	236	0	1	1	0.0500	0.2694	1	0	0.422	0	82	0
80	1	237	1	2	3	0.0500	0.2694	1	1	0.426	92	82	0
80	1	238	9	1	3	0.0500	0.2694	0	0	0.535	0	82	82
80	1	239	1	2	2	0.0500	0.2694	1	1	0.937	50	82	0
80	1	240	1	1	2	0.0500	0.2694	1	0	0.770	0	0	82
80	1	241	1	2	3	0.0500	0.2694	1	1	0.670	68	82	0
80	1	242	0	1	1	0.0500	0.2694	0	1	0.469	9	82	82
80	1	243	1	1	1	0.0500	0.2694	0	1	0.346	100	0	0
80	1	244	0	2	3	0.0500	0.2694	0	1	0.435	9	82	82
80	1	245	9	1	3	0.0500	0.2694	1	1	0.564	0	0	82
80	1	246	9	2	3	0.0500	0.2694	1	1	0.442	0	0	82
80	1	247	1	1	3	0.0500	0.2694	1	1	0.381	97	0	82
80	1	248	1	2	2	0.0500	0.2694	1	0	0.101	0	82	0
80	1	249	0	1	2	0.0500	0.2694	1	1	0.391	10	82	0
80	1	250	1	2	3	0.0500	0.2694	0	1	0.416	93	0	0
80	1	251	1	1	3	0.0500	0.2694	1	1	0.411	94	0	82
80	1	252	0	1	3	0.0500	0.2694	1	1	0.580	8	82	0
80	1	253	0	2	2	0.0500	0.2694	0	1	0.497	9	82	82
80	1	254	9	2	3	0.0500	0.2694	1	1	0.426	0	82	0
80	1	255	0	2	2	0.0500	0.2694	1	1	0.447	9	0	82
80	1	256	0	1	1	0.0500	0.2694	0	1	0.461	9	82	82
80	1	257	0	1	3	0.0500	0.2694	0	1	0.575	8	82	82
80	1	258	9	1	3	0.0500	0.2694	1	1	0.538	0	82	0
80	1	259	0	1	3	0.0500	0.2694	0	1	0.391	10	82	82
80	1	260	1	1	3	0.0500	0.2694	1	1	0.512	84	0	82
80	1	261	0	2	3	0.0500	0.2694	1	1	0.564	8	0	82
80	1	262	9	1	1	0.0500	0.2694	0	1	0.394	0	0	0
80	1	263	0	2	2	0.0500	0.2694	1	1	0.491	9	0	82
80	1	264	1	1	3	0.0500	0.2694	1	1	0.472	88	0	82
80	1	265	1	1	1	0.0500	0.2694	0	1	0.398	95	0	0
80	1	266	1	2	2	0.0500	0.2694	0	0	0.523	0	0	0
80	1	267	9	2	3	0.0500	0.2694	0	1	0.413	0	0	0
80	1	268	0	2	3	0.0500	0.2694	1	0	0.807	0	0	82
80	1	269	1	1	3	0.0500	0.2694	1	0	0.719	0	0	82
80	1	270	0	2	3	0.0500	0.2694	0	1	0.580	8	82	82
80	1	271	0	1	3	0.0500	0.2694	0	1	0.469	9	82	82
80	1	272	1	1	3	0.0500	0.2694	0	1	0.395	96	0	0
80	1	273	0	1	1	0.0500	0.2694	0	1	0.734	6	82	82
80	1	274	1	2	2	0.0500	0.2694	1	1	0.516	83	82	0
80	1	275	0	1	3	0.0500	0.2694	0	1	0.762	6	82	82
80	1	276	1	2	3	0.0500	0.2694	1	1	0.393	96	82	0
80	1	277	1	1	3	0.0500	0.2694	0	1	0.494	86	0	0
80	1	278	0	1	1	0.0500	0.2694	1	1	0.572	8	82	0
80	1	279	9	1	1	0.0500	0.2694	0	1	0.411	0	82	82
80	1	280	0	2	3	0.0500	0.2694	1	0	0.415	0	0	82
80	1	281	0	2	2	0.0500	0.2694	1	1	0.518	8	0	82
80	1	282	9	2	2	0.0500	0.2694	0	0	-0.029	0	0	0
80	1	283	0	2	2	0.0500	0.2694	1	0	0.601	0	0	82
80	1	284	9	1	1	0.0500	0.2694	1	1	1.400	0	0	82
80	1	285	1	1	2	0.0500	0.2694	1	1	0.971	50	0	82
80	1	286	0	2	1	0.0500	0.2694	1	1	0.628	7	0	82
80	1	287	0	1	1	0.0500	0.2694	0	1	0.385	10	82	82
80	1	288	0	1	3	0.0500	0.2694	1	0	1.108	0	82	0
80	1	289	1	2	3	0.0500	0.2694	1	1	0.383	97	82	0
80	1	290	0	2	2	0.0500	0.2694	0	1	0.319	10	82	82
80	1	291	0	1	1	0.0500	0.2694	0	0	0.379	0	82	82
80	1	292	0	1	3	0.0500	0.2694	1	1	0.436	9	82	0
80	1	293	1	2	3	0.0500	0.2694	1	1	0.428	92	82	0
80	1	294	0	1	1	0.0500	0.2694	1	1	0.462	9	82	0
80	1	295	0	1	1	0.0500	0.2694	1	1	0.378	10	82	0
80	1	296	1	1	3	0.0500	0.2694	0	1	0.397	95	0	0
80	1	297	0	2	1	0.0500	0.2694	0	1	0.415	9	82	82
80	1	298	9	1	1	0.0500	0.2694	1	1	0.584	0	82	0
80	1	299	1	2	3	0.0500	0.2694	1	1	0.387	96	82	0
80	1	300	1	2	2	0.0500	0.2694	1	1	0.443	91	82	0
80	1	301	1	2	3	0.0500	0.2694	1	1	0.448	90	82	0
80	1	302	0	2	3	0.0500	0.2694	1	1	0.365	10	0	82
80	1	303	9	1	3	0.0500	0.2694	0	0	0.307	0	0	0
80	1	304	0	1	3	0.0500	0.2694	0	1	0.619	7	82	82
80	1	305	9	2	3	0.0500	0.2694	0	1	0.410	0	82	82
80	1	306	9	1	2	0.0500	0.2694	0	1	0.517	0	82	82
80	1	307	9	2	3	0.0500	0.2694	0	0	0.446	0	0	0
80	1	308	1	1	1	0.0500	0.2694	0	1	0.707	64	0	0
80	1	309	1	2	3	0.0500	0.2694	1	0	0.629	0	82	0
80	1	310	0	1	1	0.0500	0.2694	0	1	0.350	10	82	82
80	1	311	0	1	3	0.0500	0.2694	0	1	0.569	8	82	82
80	1	312	0	2	2	0.0500	0.2694	1	1	0.508	8	0	82
80	1	313	0	1	1	0.0500	0.2694	1	1	1.070	5	82	0
80	1	314	1	2	2	0.0500	0.2694	0	1	0.433	92	0	0
80	1	315	9	1	3	0.0500	0.2694	0	1	0.761	0	0	0
80	1	316	1	2	2	0.0500	0.2694	0	1	0.448	90	0	0
80	1	317	0	1	1	0.0500	0.2694	0	0	0.439	0	82	82
80	1	318	9	1	3	0.0500	0.2694	1	1	1.075	0	0	82
80	1	319	1	1	3	0.0500	0.2694	0	1	0.462	89	0	0
80	1	320	0	1	2	0.0500	0.2694	0	1	0.782	6	82	82
80	1	321	1	2	3	0.0500	0.2694	0	0	1.096	0	0	0
80	1	322	9	2	3	0.0500	0.2694	1	0	0.545	0	82	0
80	1	323	1	2	3	0.0500	0.2694	0	1	0.593	76	0	0
80	1	324	1	1	3	0.0500	0.2694	0	1	0.621	73	0	0
80	1	325	0	1	3	0.0500	0.2694	1	1	0.570	8	82	0
80	1	326	9	2	2	0.0500	0.2694	1	1	0.431	0	0	82
80	1	327	1	2	3	0.0500	0.2694	0	0	0.644	0	0	0
80	1	328	1	1	2	0.0500	0.2694	1	0	0.322	0	0	82
80	1	329	0	1	3	0.0500	0.2694	1	1	0.583	8	82	0
80	1	330	9	1	2	0.0500	0.2694	0	1	0.811	0	0	0
80	1	331	1	2	2	0.0500	0.2694	0	1	0.725	62	0	0
80	1	332	0	2	3	0.0500	0.2694	1	1	0.523	8	0	82
80	1	333	9	2	2	0.0500	0.2694	0	1	0.491	0	0	0
80	1	334	0	1	3	0.0500	0.2694	0	1	0.407	9	82	82
80	1	335	1	2	2	0.0500	0.2694	0	1	0.587	76	0	0
80	1	336	1	2	2	0.0500	0.2694	1	1	0.385	96	82	0
80	1	337	9	2	3	0.0500	0.2694	1	1	0.647	0	82	0
80	1	338	0	1	3	0.0500	0.2694	0	1	0.766	6	82	82
80	1	339	0	1	1	0.0500	0.2694	0	1	0.391	10	82	82
80	1	340	0	1	3	0.0500	0.2694	1	1	0.742	6	82	0
80	1	341	0	2	3	0.0500	0.2694	0	1	0.455	9	82	82
80	1	342	1	2	3	0.0500	0.2694	0	1	0.401	95	0	0
80	1	343	0	1	1	0.0500	0.2694	1	0	0.420	0	82	0
80	1	344	9	1	3	0.0500	0.2694	1	0	0.443	0	82	0
80	1	345	9	2	3	0.0500	0.2694	1	1	0.585	0	82	0
80	1	346	9	1	3	0.0500	0.2694	0	1	0.427	0	82	82
80	1	347	9	2	3	0.0500	0.2694	0	1	0.599	0	82	82
80	1	348	0	2	1	0.0500	0.2694	1	1	0.581	8	0	82
80	1	349	1	2	2	0.0500	0.2694	0	1	0.478	87	0	0
80	1	350	1	2	3	0.0500	0.2694	0	1	0.437	91	0	0
80	1	351	0	1	3	0.0500	0.2694	1	1	0.539	8	82	0
80	1	352	1	1	1	0.0500	0.2694	0	1	0.423	93	0	0
80	1	353	0	2	3	0.0500	0.2694	0	1	0.687	7	82	82
80	1	354	1	2	3	0.0500	0.2694	1	1	0.434	92	82	0
80	1	355	1	1	1	0.0500	0.2694	0	1	0.387	96	0	0
80	1	356	0	2	2	0.0500	0.2694	0	1	0.458	9	82	82
80	1	357	9	2	2	0.0500	0.2694	1	0	0.243	0	82	0
80	1	358	0	2	2	0.0500	0.2694	1	1	0.395	10	0	82
80	1	359	9	1	1	0.0500	0.2694	1	1	0.429	0	82	0
80	1	360	1	1	1	0.0500	0.2694	1	0	0.489	0	0	82
80	1	361	9	1	3	0.0500	0.2694	0	1	1.252	0	82	82
80	1	362	1	1	3	0.0500	0.2694	1	1	0.509	84	0	82
80	1	363	1	2	1	0.0500	0.2694	0	1	0.534	82	0	0
80	1	364	9	2	3	0.0500	0.2694	0	1	0.460	0	0	0
80	1	365	1	1	2	0.0500	0.2694	0	0	0.615	0	0	0
80	1	366	1	2	3	0.0500	0.2694	1	1	0.667	68	82	0
80	1	367	0	2	2	0.0500	0.2694	1	0	0.536	0	0	82
80	1	368	0	1	3	0.0500	0.2694	0	1	0.490	9	82	82
80	1	369	1	1	1	0.0500	0.2694	1	0	0.361	0	0	82
80	1	370	1	2	2	0.0500	0.2694	1	1	0.349	100	82	0
80	1	371	1	2	2	0.0500	0.2694	1	1	0.334	100	82	0
80	1	372	9	2	3	0.0500	0.2694	1	0	0.283	0	82	0
80	1	373	9	1	1	0.0500	0.2694	0	1	0.385	0	0	0
80	1	374	0	1	1	0.0500	0.2694	1	0	0.478	0	82	0
80	1	375	9	1	3	0.0500	0.2694	1	1	0.426	0	0	82
80	1	376	1	2	3	0.0500	0.2694	0	1	0.358	99	0	0
80	1	377	9	1	3	0.0500	0.2694	1	1	0.347	0	0	82
80	1	378	0	2	2	0.0500	0.2694	0	1	0.317	10	82	82
80	1	379	9	1	1	0.0500	0.2694	1	1	0.271	0	0	82
80	1	380	0	2	2	0.0500	0.2694	0	1	0.386	10	82	82
80	1	381	0	2	3	0.0500	0.2694	0	1	0.656	7	82	82
80	1	382	1	2	3	0.0500	0.2694	1	1	0.319	100	82	0
80	1	383	1	1	1	0.0500	0.2694	1	1	0.340	100	0	82
80	1	384	0	2	3	0.0500	0.2694	0	1	0.404	9	82	82
80	1	385	0	2	2	0.0500	0.2694	0	1	0.334	10	82	82
80	1	386	0	2	3	0.0500	0.2694	0	1	0.364	10	82	82
80	1	387	0	2	1	0.0500	0.2694	1	1	0.353	10	0	82
80	1	388	9	2	2	0.0500	0.2694	0	1	0.324	0	82	82
80	1	389	1	1	1	0.0500	0.2694	1	1	0.198	100	0	82
80	1	390	0	2	2	0.0500	0.2694	1	1	0.513	8	0	82
80	1	391	1	1	3	0.0500	0.2694	1	1	0.422	93	0	82
80	1	392	9	1	1	0.0500	0.2694	1	1	0.064	0	0	82
80	1	393	0	1	1	0.0500	0.2694	0	1	0.485	9	82	82
80	1	394	0	2	1	0.0500	0.2694	1	1	0.385	10	0	82
80	1	395	1	1	1	0.0500	0.2694	1	0	0.291	0	0	82
80	1	396	1	1	3	0.0500	0.2694	1	1	0.749	60	0	82
80	1	397	9	2	2	0.0500	0.2694	0	1	0.496	0	82	82
80	1	398	0	1	3	0.0500	0.2694	1	1	0.486	9	82	0
80	1	399	0	2	3	0.0500	0.2694	1	1	0.337	10	0	82
80	1	400	9	1	2	0.0500	0.2694	0	0	0.395	0	82	82
80	1	401	0	1	1	0.0500	0.2694	1	0	0.401	0	82	0
80	1	402	1	2	3	0.0500	0.2694	1	1	0.488	86	82	0
80	1	403	0	2	1	0.0500	0.2694	1	0	0.775	0	0	82
80	1	404	1	1	3	0.0500	0.2694	1	1	0.675	67	0	82
80	1	405	9	2	2	0.0500	0.2694	1	1	0.894	0	82	0
80	1	406	1	1	3	0.0500	0.2694	1	1	0.891	50	0	82
80	1	407	0	1	1	0.0500	0.2694	1	1	0.568	8	82	0
80	1	408	1	1	1	0.0500	0.2694	0	1	0.398	95	0	0
80	1	409	1	2	2	0.0500	0.2694	1	1	0.433	92	82	0
80	1	410	1	1	1	0.0500	0.2694	1	1	0.654	70	0	82
80	1	411	0	2	3	0.0500	0.2694	0	0	0.482	0	82	82
80	1	412	1	1	3	0.0500	0.2694	0	1	0.480	87	0	0
80	1	413	0	2	1	0.0500	0.2694	0	0	0.475	0	82	82
80	1	414	0	2	2	0.0500	0.2694	1	1	0.418	9	0	82
80	1	415	0	1	1	0.0500	0.2694	0	1	0.535	8	82	82
80	1	416	1	1	3	0.0500	0.2694	0	1	0.610	74	0	0
80	1	417	9	1	1	0.0500	0.2694	0	1	0.356	0	0	0
80	1	418	0	2	3	0.0500	0.2694	1	1	0.511	8	0	82
80	1	419	0	1	2	0.0500	0.2694	1	1	0.597	8	82	0
80	1	420	1	2	2	0.0500	0.2694	0	1	0.446	90	0	0
80	1	421	0	1	3	0.0500	0.2694	0	0	0.609	0	82	82
80	1	422	0	2	2	0.0500	0.2694	0	1	0.783	6	82	82
80	1	423	0	1	3	0.0500	0.2694	0	0	0.463	0	82	82
80	1	424	1	1	3	0.0500	0.2694	0	1	0.409	94	0	0
80	1	425	1	2	3	0.0500	0.2694	1	1	0.466	88	82	0
80	1	426	0	1	3	0.0500	0.2694	0	1	0.398	10	82	82
80	1	427	9	2	2	0.0500	0.2694	1	1	0.460	0	0	82
80	1	428	1	2	1	0.0500	0.2694	1	1	0.504	85	82	0
80	1	429	0	2	2	0.0500	0.2694	1	1	0.487	9	0	82
80	1	430	0	2	3	0.0500	0.2694	0	1	0.663	7	82	82
80	1	431	0	2	3	0.0500	0.2694	1	1	0.618	7	0	82
80	1	432	1	2	2	0.0500	0.2694	0	1	0.511	84	0	0
80	1	433	0	2	3	0.0500	0.2694	0	1	0.486	9	82	82
80	1	434	0	1	3	0.0500	0.2694	1	0	0.553	0	82	0
80	1	435	9	1	3	0.0500	0.2694	0	1	0.555	0	0	0
80	1	436	9	2	3	0.0500	0.2694	0	1	0.640	0	0	0
80	1	437	0	2	2	0.0500	0.2694	1	1	0.521	8	0	82
80	1	438	0	2	1	0.0500	0.2694	0	1	0.463	9	82	82
80	1	439	9	1	2	0.0500	0.2694	1	1	0.729	0	0	82
80	1	440	1	1	3	0.0500	0.2694	1	1	0.473	88	0	82
80	1	441	0	2	1	0.0500	0.2694	0	1	0.516	8	82	82
80	1	442	0	1	3	0.0500	0.2694	0	1	0.537	8	82	82
80	1	443	1	1	2	0.0500	0.2694	1	1	0.468	88	0	82
80	1	444	9	2	3	0.0500	0.2694	1	1	0.501	0	82	0
80	1	445	9	2	2	0.0500	0.2694	0	1	0.469	0	0	0
80	1	446	9	1	1	0.0500	0.2694	1	0	0.408	0	82	0
80	1	447	1	2	2	0.0500	0.2694	1	1	0.402	95	82	0
80	1	448	1	2	3	0.0500	0.2694	0	1	0.334	100	0	0
80	1	449	0	1	1	0.0500	0.2694	0	1	0.468	9	82	82
80	1	450	0	1	1	0.0500	0.2694	0	1	0.384	10	82	82
80	1	451	0	1	3	0.0500	0.2694	0	1	0.592	8	82	82
80	1	452	0	2	2	0.0500	0.2694	0	0	0.621	0	82	82
80	1	453	0	1	1	0.0500	0.2694	1	1	0.756	6	82	0
80	1	454	1	1	3	0.0500	0.2694	0	0	0.742	0	0	0
80	1	455	1	1	1	0.0500	0.2694	0	1	0.420	93	0	0
80	1	456	9	1	1	0.0500	0.2694	1	1	0.461	0	0	82
80	1	457	0	2	2	0.0500	0.2694	1	1	0.462	9	0	82
80	1	458	1	2	3	0.0500	0.2694	0	1	0.409	94	0	0
80	1	459	9	1	1	0.0500	0.2694	0	1	0.661	0	0	0
80	1	460	1	2	1	0.0500	0.2694	0	1	0.574	78	0	0
80	1	461	0	1	1	0.0500	0.2694	0	1	0.360	10	82	82
80	1	462	9	2	3	0.0500	0.2694	1	1	0.501	0	82	0
80	1	463	0	1	3	0.0500	0.2694	1	1	0.663	7	82	0
80	1	464	1	2	3	0.0500	0.2694	0	1	0.312	100	0	0
80	1	465	0	2	2	0.0500	0.2694	0	1	0.544	8	82	82
80	1	466	1	1	3	0.0500	0.2694	1	1	0.467	88	0	82
80	1	467	0	1	1	0.0500	0.2694	1	0	0.412	0	82	0
80	1	468	0	1	3	0.0500	0.2694	1	1	0.420	9	82	0
80	1	469	0	2	3	0.0500	0.2694	1	1	0.522	8	0	82
80	1	470	0	1	3	0.0500	0.2694	1	1	0.303	10	82	0
80	1	471	1	1	1	0.0500	0.2694	0	1	0.533	82	0	0
80	1	472	0	1	2	0.0500	0.2694	1	1	0.430	9	82	0
80	1	473	0	2	2	0.0500	0.2694	0	1	0.482	9	82	82
80	1	474	0	1	3	0.0500	0.2694	1	1	0.412	9	82	0
80	1	475	9	2	1	0.0500	0.2694	0	0	0.360	0	82	82
80	1	476	1	2	2	0.0500	0.2694	1	1	0.391	96	82	0
80	1	477	1	1	3	0.0500	0.2694	1	1	0.481	87	0	82
80	1	478	9	1	2	0.0500	0.2694	0	1	0.466	0	0	0
80	1	479	1	2	3	0.0500	0.2694	0	1	0.615	74	0	0
80	1	480	9	1	3	0.0500	0.2694	1	1	0.505	0	0	82
80	1	481	1	1	3	0.0500	0.2694	1	0	0.530	0	0	82
80	1	482	1	1	1	0.0500	0.2694	0	1	0.312	100	0	0
80	1	483	9	2	3	0.0500	0.2694	1	1	0.456	0	0	82
80	1	484	9	2	3	0.0500	0.2694	0	1	0.521	0	0	0
80	1	485	1	2	2	0.0500	0.2694	0	1	0.366	98	0	0
80	1	486	9	1	1	0.0500	0.2694	1	1	0.302	0	82	0
80	1	487	0	2	3	0.0500	0.2694	1	1	0.456	9	0	82
80	1	488	1	1	3	0.0500	0.2694	0	1	0.685	67	0	0
80	1	489	0	1	2	0.0500	0.2694	0	0	0.361	0	82	82
80	1	490	1	1	2	0.0500	0.2694	0	0	0.652	0	0	0
80	1	491	0	1	1	0.0500	0.2694	1	0	1.058	0	82	0
80	1	492	1	2	3	0.0500	0.2694	1	1	0.411	94	82	0
80	1	493	1	2	2	0.0500	0.2694	1	1	0.363	99	82	0
80	1	494	1	2	3	0.0500	0.2694	1	1	0.451	90	82	0
80	1	495	1	1	1	0.0500	0.2694	1	0	0.339	0	0	82
80	1	496	1	1	1	0.0500	0.2694	1	1	0.843	51	0	82
80	1	497	0	1	3	0.0500	0.2694	0	1	0.737	6	82	82
80	1	498	1	2	2	0.0500	0.2694	1	1	0.469	88	82	0
80	1	499	9	2	2	0.0500	0.2694	1	0	0.435	0	0	82
80	1	500	1	1	3	0.0500	0.2694	0	1	0.594	76	0	0
80	1	501	9	2	2	0.0500	0.2694	1	1	0.599	0	82	0
80	1	502	0	2	2	0.0500	0.2694	0	1	0.511	8	82	82
80	1	503	1	2	2	0.0500	0.2694	1	1	0.335	100	82	0
80	1	504	1	1	3	0.0500	0.2694	0	1	0.446	90	0	0
80	1	505	1	2	2	0.0500	0.2694	0	1	0.582	77	0	0
80	1	506	0	2	2	0.0500	0.2694	1	1	0.424	9	0	82
80	1	507	1	1	2	0.0500	0.2694	1	0	0.503	0	0	82
80	1	508	0	1	3	0.0500	0.2694	0	1	0.401	9	82	82
80	1	509	0	2	3	0.0500	0.2694	0	1	0.484	9	82	82
80	1	510	1	2	3	0.0500	0.2694	1	1	0.390	96	82	0
80	1	511	1	1	3	0.0500	0.2694	1	1	0.421	93	0	82
80	1	512	1	2	3	0.0500	0.2694	1	1	0.476	87	82	0
80	1	513	1	2	3	0.0500	0.2694	1	1	0.312	100	82	0
80	1	514	9	1	3	0.0500	0.2694	1	0	0.341	0	82	0
80	1	515	0	1	3	0.0500	0.2694	0	0	0.588	0	82	82
80	1	516	1	1	2	0.0500	0.2694	1	0	1.450	0	0	82
80	1	517	1	2	2	0.0500	0.2694	1	1	0.457	89	82	0
80	1	518	9	2	3	0.0500	0.2694	1	1	0.530	0	0	82
80	1	519	0	2	3	0.0500	0.2694	0	1	0.416	9	82	82
80	1	520	1	2	1	0.0500	0.2694	0	1	0.451	90	0	0
80	1	521	0	1	3	0.0500	0.2694	1	1	0.899	5	82	0
80	1	522	9	2	1	0.0500	0.2694	0	1	0.439	0	0	0
80	1	523	9	1	1	0.0500	0.2694	0	0	0.392	0	82	82
80	1	524	0	1	1	0.0500	0.2694	0	1	0.332	10	82	82
80	1	525	1	2	2	0.0500	0.2694	0	1	0.360	99	0	0
80	1	526	0	2	2	0.0500	0.2694	0	1	0.598	8	82	82
80	1	527	1	2	3	0.0500	0.2694	1	0	0.253	0	82	0
80	1	528	0	1	1	0.0500	0.2694	1	1	0.388	10	82	0
80	1	529	0	1	3	0.0500	0.2694	1	1	0.348	10	82	0
80	1	530	1	2	2	0.0500	0.2694	1	1	0.455	90	82	0
80	1	531	9	2	3	0.0500	0.2694	1	1	0.468	0	0	82
80	1	532	9	1	3	0.0500	0.2694	0	1	0.556	0	82	82
80	1	533	1	2	2	0.0500	0.2694	0	1	0.460	89	0	0
80	1	534	9	1	3	0.0500	0.2694	1	1	0.478	0	82	0
80	1	535	0	1	3	0.0500	0.2694	0	1	0.354	10	82	82
80	1	536	1	1	1	0.0500	0.2694	0	1	0.429	92	0	0
80	1	537	0	2	3	0.0500	0.2694	0	1	0.418	9	82	82
80	1	538	1	1	3	0.0500	0.2694	0	1	0.385	96	0	0
80	1	539	1	2	2	0.0500	0.2694	0	1	0.375	97	0	0
80	1	540	1	1	3	0.0500	0.2694	0	1	0.654	70	0	0
80	1	541	1	1	3	0.0500	0.2694	1	0	0.543	0	0	82
80	1	542	1	1	1	0.0500	0.2694	0	0	0.321	0	0	0
80	1	543	9	2	2	0.0500	0.2694	1	1	0.471	0	82	0
80	1	544	0	2	3	0.0500	0.2694	1	1	0.495	9	0	82
80	1	545	1	2	3	0.0500	0.2694	0	1	0.402	95	0	0
80	1	546	1	2	2	0.0500	0.2694	1	1	0.470	88	82	0
80	1	547	9	2	1	0.0500	0.2694	1	1	0.445	0	0	82
80	1	548	9	2	3	0.0500	0.2694	1	0	0.400	0	82	0
80	1	549	1	1	2	0.0500	0.2694	1	1	0.411	94	0	82
80	1	550	1	1	3	0.0500	0.2694	0	1	0.448	90	0	0
80	1	551	0	1	1	0.0500	0.2694	1	1	0.389	10	82	0
80	1	552	9	1	2	0.0500	0.2694	1	1	0.485	0	82	0
80	1	553	0	2	2	0.0500	0.2694	1	1	0.295	10	0	82
80	1	554	9	1	3	0.0500	0.2694	0	1	0.502	0	0	0
80	1	555	1	1	1	0.0500	0.2694	0	0	0.390	0	0	0
80	1	556	9	2	2	0.0500	0.2694	0	0	0.385	0	82	82
80	1	557	0	2	3	0.0500	0.2694	0	1	0.478	9	82	82
80	1	558	0	1	1	0.0500	0.2694	0	1	0.446	9	82	82
80	1	559	0	2	2	0.0500	0.2694	0	1	0.502	8	82	82
80	1	560	1	1	1	0.0500	0.2694	0	1	0.342	100	0	0
80	1	561	9	2	3	0.0500	0.2694	1	1	0.583	0	0	82
80	1	562	1	1	1	0.0500	0.2694	1	0	0.460	0	0	82
80	1	563	0	2	2	0.0500	0.2694	0	1	0.467	9	82	82
80	1	564	0	2	3	0.0500	0.2694	0	1	0.627	7	82	82
80	1	565	0	1	1	0.0500	0.2694	1	0	0.335	0	82	0
80	1	566	0	1	1	0.0500	0.2694	0	1	0.342	10	82	82
80	1	567	9	2	1	0.0500	0.2694	1	1	0.462	0	82	0
80	1	568	1	1	1	0.0500	0.2694	1	1	0.566	78	0	82
80	1	569	0	1	1	0.0500	0.2694	1	1	0.442	9	82	0
80	1	570	1	1	2	0.0500	0.2694	0	1	0.262	100	0	0
80	1	571	0	1	1	0.0500	0.2694	1	1	0.362	10	82	0
80	1	572	0	2	3	0.0500	0.2694	0	0	0.374	0	82	82
80	1	573	1	1	1	0.0500	0.2694	0	1	0.448	90	0	0
80	1	574	1	2	3	0.0500	0.2694	0	1	0.708	64	0	0
80	1	575	1	2	3	0.0500	0.2694	0	1	0.432	92	0	0
80	1	576	0	1	1	0.0500	0.2694	0	1	0.368	10	82	82
80	1	577	0	1	3	0.0500	0.2694	1	0	0.437	0	82	0
80	1	578	1	2	3	0.0500	0.2694	0	1	1.049	50	0	0
80	1	579	1	2	3	0.0500	0.2694	0	1	0.323	100	0	0
80	1	580	0	2	3	0.0500	0.2694	1	0	0.419	0	0	82
80	1	581	9	1	3	0.0500	0.2694	0	1	0.537	0	82	82
80	1	582	9	2	3	0.0500	0.2694	0	1	0.568	0	82	82
80	1	583	0	2	3	0.0500	0.2694	1	1	0.414	9	0	82
80	1	584	1	1	1	0.0500	0.2694	1	0	0.312	0	0	82
80	1	585	0	1	3	0.0500	0.2694	1	0	0.614	0	82	0
80	1	586	1	2	2	0.0500	0.2694	1	1	0.472	88	82	0
80	1	587	9	2	3	0.0500	0.2694	0	1	0.863	0	82	82
80	1	588	1	2	2	0.0500	0.2694	0	1	0.466	88	0	0
80	1	589	1	2	2	0.0500	0.2694	1	0	0.360	0	82	0
80	1	590	0	1	3	0.0500	0.2694	1	1	0.979	5	82	0
80	1	591	0	1	1	0.0500	0.2694	0	1	0.399	10	82	82
80	1	592	0	1	1	0.0500	0.2694	0	1	0.337	10	82	82
80	1	593	9	1	3	0.0500	0.2694	1	0	0.437	0	82	0
80	1	594	9	1	1	0.0500	0.2694	1	0	0.424	0	82	0
80	1	595	1	2	2	0.0500	0.2694	0	1	0.341	100	0	0
80	1	596	1	2	1	0.0500	0.2694	1	0	0.604	0	82	0
80	1	597	0	1	3	0.0500	0.2694	1	1	0.565	8	82	0
80	1	598	9	1	1	0.0500	0.2694	0	1	0.328	0	82	82
80	1	599	0	2	3	0.0500	0.2694	0	1	0.375	10	82	82
80	1	600	1	2	2	0.0500	0.2694	1	0	0.365	0	82	0
80	1	601	0	2	3	0.0500	0.2694	1	1	0.370	10	0	82
80	1	602	9	2	2	0.0500	0.2694	0	1	0.476	0	0	0
80	1	603	0	2	2	0.0500	0.2694	1	1	0.369	10	0	82
80	1	604	9	1	1	0.0500	0.2694	1	0	0.468	0	0	82
80	1	605	0	2	2	0.0500	0.2694	0	1	0.398	10	82	82
80	1	606	1	1	3	0.0500	0.2694	0	1	0.399	95	0	0
80	1	607	1	2	2	0.0500	0.2694	0	1	0.420	93	0	0
80	1	608	9	2	2	0.0500	0.2694	1	1	0.389	0	0	82
80	1	609	1	1	3	0.0500	0.2694	1	1	0.503	85	0	82
80	1	610	1	2	3	0.0500	0.2694	0	1	0.443	91	0	0
80	1	611	0	2	1	0.0500	0.2694	1	1	0.469	9	0	82
80	1	612	1	1	3	0.0500	0.2694	0	1	0.365	98	0	0
80	1	613	0	2	2	0.0500	0.2694	1	1	0.415	9	0	82
80	1	614	1	2	2	0.0500	0.2694	0	1	0.997	50	0	0
80	1	615	0	2	2	0.0500	0.2694	1	1	0.394	10	0	82
80	1	616	0	2	3	0.0500	0.2694	1	1	0.380	10	0	82
80	1	617	0	1	3	0.0500	0.2694	0	0	0.419	0	82	82
80	1	618	1	1	1	0.0500	0.2694	1	1	0.483	87	0	82
80	1	619	1	2	2	0.0500	0.2694	0	1	0.655	70	0	0
80	1	620	0	2	3	0.0500	0.2694	1	1	0.523	8	0	82
80	1	621	1	1	3	0.0500	0.2694	0	1	0.436	91	0	0
80	1	622	9	2	2	0.0500	0.2694	0	1	0.369	0	0	0
80	1	623	0	1	3	0.0500	0.2694	0	0	0.406	0	82	82
80	1	624	1	2	1	0.0500	0.2694	1	1	0.440	91	82	0
80	1	625	0	1	1	0.0500	0.2694	1	0	0.340	0	82	0
80	1	626	0	2	2	0.0500	0.2694	0	0	0.401	0	82	82
80	1	627	1	1	1	0.0500	0.2694	0	1	0.452	90	0	0
80	1	628	0	1	2	0.0500	0.2694	1	1	0.565	8	82	0
80	1	629	0	1	3	0.0500	0.2694	0	1	0.521	8	82	82
80	1	630	0	2	3	0.0500	0.2694	1	1	0.476	9	0	82
80	1	631	1	1	3	0.0500	0.2694	0	1	0.578	77	0	0
80	1	632	0	2	2	0.0500	0.2694	1	1	0.399	10	0	82
80	1	633	0	1	1	0.0500	0.2694	1	1	0.598	8	82	0
80	1	634	9	1	3	0.0500	0.2694	0	1	0.407	0	82	82
80	1	635	1	2	1	0.0500	0.2694	0	1	0.419	93	0	0
80	1	636	1	2	2	0.0500	0.2694	1	0	0.506	0	82	0
80	1	637	1	1	1	0.0500	0.2694	1	0	0.347	0	0	82
80	1	638	9	2	2	0.0500	0.2694	1	1	0.379	0	82	0
80	1	639	0	1	1	0.0500	0.2694	0	1	0.401	9	82	82
80	1	640	1	2	2	0.0500	0.2694	0	1	0.433	92	0	0
80	1	641	9	1	1	0.0500	0.2694	0	1	0.357	0	82	82
80	1	642	0	1	1	0.0500	0.2694	0	1	0.300	10	82	82
80	1	643	9	2	2	0.0500	0.2694	0	1	0.431	0	82	82
80	1	644	9	1	3	0.0500	0.2694	0	1	0.281	0	0	0
80	1	645	9	1	3	0.0500	0.2694	1	0	0.308	0	0	82
80	1	646	1	2	2	0.0500	0.2694	1	0	0.211	0	82	0
80	1	647	0	1	1	0.0500	0.2694	1	0	0.433	0	82	0
80	1	648	9	1	1	0.0500	0.2694	1	0	0.360	0	82	0
80	1	649	1	1	1	0.0500	0.2694	1	0	0.387	0	0	82
80	1	650	9	2	3	0.0500	0.2694	0	1	0.432	0	82	82
80	1	651	0	2	2	0.0500	0.2694	0	1	0.471	9	82	82
80	1	652	0	2	3	0.0500	0.2694	0	1	0.354	10	82	82
80	1	653	9	1	3	0.0500	0.2694	1	0	0.564	0	82	0
80	1	654	1	2	2	0.0500	0.2694	0	1	0.545	80	0	0
80	1	655	1	1	3	0.0500	0.2694	1	1	0.459	89	0	82
80	1	656	0	1	3	0.0500	0.2694	1	0	0.311	0	82	0
80	1	657	1	1	1	0.0500	0.2694	0	1	0.370	98	0	0
80	1	658	1	1	1	0.0500	0.2694	0	1	0.333	100	0	0
80	1	659	0	2	3	0.0500	0.2694	1	1	0.461	9	0	82
80	1	660	1	2	2	0.0500	0.2694	0	1	0.295	100	0	0
80	1	661	0	2	2	0.0500	0.2694	0	1	0.327	10	82	82
80	1	662	1	1	3	0.0500	0.2694	0	0	0.317	0	0	0
80	1	663	0	1	2	0.0500	0.2694	0	0	0.324	0	82	82
80	1	664	1	2	1	0.0500	0.2694	1	0	0.351	0	82	0
80	1	665	0	1	1	0.0500	0.2694	0	1	0.363	10	82	82
80	1	666	9	1	1	0.0500	0.2694	0	1	0.268	0	82	82
80	1	667	0	1	1	0.0500	0.2694	1	0	0.673	0	82	0
80	1	668	0	2	1	0.0500	0.2694	0	1	0.340	10	82	82
80	1	669	0	2	3	0.0500	0.2694	0	0	0.407	0	82	82
80	1	670	0	1	1	0.0500	0.2694	0	1	0.339	10	82	82
80	1	671	1	2	3	0.0500	0.2694	0	1	0.240	100	0	0
80	1	672	0	2	2	0.0500	0.2694	1	0	0.216	0	0	82
80	1	673	0	1	3	0.0500	0.2694	1	0	0.368	0	82	0
80	1	674	0	1	2	0.0500	0.2694	0	1	0.647	7	82	82
80	1	675	1	2	3	0.0500	0.2694	0	1	0.409	94	0	0
80	1	676	1	1	1	0.0500	0.2694	1	1	0.349	100	0	82
80	1	677	1	1	3	0.0500	0.2694	1	0	0.417	0	0	82
80	1	678	1	1	1	0.0500	0.2694	1	1	0.382	97	0	82
80	1	679	0	2	3	0.0500	0.2694	1	1	0.617	7	0	82
80	1	680	0	2	2	0.0500	0.2694	1	0	0.229	0	0	82
80	1	681	1	1	1	0.0500	0.2694	0	1	0.306	100	0	0
80	1	682	0	1	3	0.0500	0.2694	0	1	0.446	9	82	82
80	1	683	0	2	2	0.0500	0.2694	1	1	0.364	10	0	82
80	1	684	1	2	3	0.0500	0.2694	0	1	0.313	100	0	0
80	1	685	0	1	3	0.0500	0.2694	1	1	0.454	9	82	0
80	1	686	0	2	2	0.0500	0.2694	0	1	0.299	10	82	82
80	1	687	0	1	3	0.0500	0.2694	0	0	0.239	0	82	82
80	1	688	1	2	2	0.0500	0.2694	0	1	0.280	100	0	0
80	1	689	1	1	3	0.0500	0.2694	1	1	0.464	89	0	82
80	1	690	9	2	3	0.0500	0.2694	0	1	0.258	0	82	82
80	1	691	1	1	1	0.0500	0.2694	0	1	0.444	91	0	0
80	1	692	0	1	1	0.0500	0.2694	0	1	0.319	10	82	82
80	1	693	0	2	3	0.0500	0.2694	0	1	0.254	10	82	82
80	1	694	1	2	3	0.0500	0.2694	1	0	0.075	0	82	0
80	1	695	0	2	2	0.0500	0.2694	1	0	0.313	0	0	82
80	1	696	1	1	2	0.0500	0.2694	0	1	0.348	100	0	0
80	1	697	9	2	2	0.0500	0.2694	0	1	0.336	0	0	0
80	1	698	1	2	3	0.0500	0.2694	0	1	0.273	100	0	0
80	1	699	0	1	1	0.0500	0.2694	1	1	0.292	10	82	0
80	1	700	1	2	3	0.0500	0.2694	1	0	0.257	0	82	0
80	1	701	1	1	1	0.0500	0.2694	1	0	0.329	0	0	82
80	1	702	9	2	2	0.0500	0.2694	1	1	0.428	0	0	82
80	1	703	9	1	1	0.0500	0.2694	0	1	0.376	0	0	0
80	1	704	9	2	3	0.0500	0.2694	0	1	0.461	0	0	0
80	1	705	0	2	3	0.0500	0.2694	1	1	0.440	9	0	82
80	1	706	0	1	2	0.0500	0.2694	0	1	0.349	10	82	82
80	1	707	1	1	3	0.0500	0.2694	0	1	0.306	100	0	0
80	1	708	1	1	3	0.0500	0.2694	1	1	0.353	100	0	82
80	1	709	0	1	2	0.0500	0.2694	1	0	0.341	0	82	0
80	1	710	1	2	3	0.0500	0.2694	1	1	0.440	91	82	0
80	1	711	1	1	1	0.0500	0.2694	0	1	0.275	100	0	0
80	1	712	0	1	3	0.0500	0.2694	0	0	0.399	0	82	82
80	1	713	0	2	3	0.0500	0.2694	1	1	0.421	9	0	82
80	1	714	9	1	3	0.0500	0.2694	0	1	0.334	0	0	0
80	1	715	0	1	3	0.0500	0.2694	1	1	0.595	8	82	0
80	1	716	1	1	1	0.0500	0.2694	0	1	0.245	100	0	0
80	1	717	1	2	3	0.0500	0.2694	0	1	0.277	100	0	0
80	1	718	1	2	3	0.0500	0.2694	1	1	0.289	100	82	0
80	1	719	1	2	3	0.0500	0.2694	1	1	0.549	80	82	0
80	1	720	1	2	3	0.0500	0.2694	1	0	0.293	0	82	0
