sub	sess	t	rew	loc	cue	co1	co2	or	resp	rt	rew_tot	left_col	right_col
35	1	1	1	1	1	0.0547	0.1436	1	1	0.501	85	82	0
35	1	2	0	1	1	0.0547	0.1436	1	1	0.451	9	0	82
35	1	3	1	1	1	0.0547	0.1436	0	0	0.457	0	82	82
35	1	4	1	1	3	0.0547	0.1436	0	1	0.536	81	82	82
35	1	5	0	2	3	0.0547	0.1436	1	1	0.701	6	82	0
35	1	6	1	1	3	0.0547	0.1436	0	1	0.548	80	82	82
35	1	7	0	2	2	0.0547	0.1436	0	1	0.381	10	0	0
35	1	8	9	1	3	0.0547	0.1436	1	1	0.470	0	82	0
35	1	9	1	1	2	0.0547	0.1436	1	0	0.549	0	82	0
35	1	10	9	1	1	0.0547	0.1436	0	1	0.488	0	82	82
35	1	11	0	1	2	0.0547	0.1436	1	1	0.596	8	0	82
35	1	12	1	2	2	0.0547	0.1436	1	1	0.502	85	0	82
35	1	13	0	2	3	0.0547	0.1436	0	1	0.500	9	0	0
35	1	14	1	2	1	0.0547	0.1436	1	1	0.450	90	0	82
35	1	15	1	2	1	0.0547	0.1436	1	1	0.548	80	0	82
35	1	16	1	2	3	0.0547	0.1436	1	1	0.462	89	0	82
35	1	17	0	2	3	0.0547	0.1436	1	1	0.565	8	82	0
35	1	18	0	2	3	0.0547	0.1436	0	1	0.487	9	0	0
35	1	19	9	2	3	0.0547	0.1436	1	1	0.597	0	82	0
35	1	20	1	1	3	0.0547	0.1436	0	1	0.767	58	82	82
35	1	21	0	1	3	0.0547	0.1436	0	1	0.544	8	0	0
35	1	22	0	1	1	0.0547	0.1436	1	0	0.540	0	0	82
35	1	23	0	1	3	0.0547	0.1436	1	1	0.633	7	0	82
35	1	24	0	2	3	0.0547	0.1436	1	1	0.472	9	82	0
35	1	25	0	2	1	0.0547	0.1436	1	1	0.457	9	82	0
35	1	26	1	1	1	0.0547	0.1436	0	1	0.599	75	82	82
35	1	27	0	1	1	0.0547	0.1436	0	1	0.542	8	0	0
35	1	28	0	1	3	0.0547	0.1436	0	1	0.651	7	0	0
35	1	29	0	1	3	0.0547	0.1436	0	1	0.547	8	0	0
35	1	30	1	1	3	0.0547	0.1436	0	1	0.519	83	82	82
35	1	31	0	1	3	0.0547	0.1436	0	1	0.453	9	0	0
35	1	32	0	1	3	0.0547	0.1436	0	1	0.499	9	0	0
35	1	33	1	2	3	0.0547	0.1436	0	1	0.522	83	82	82
35	1	34	0	1	3	0.0547	0.1436	1	0	0.799	0	0	82
35	1	35	9	2	2	0.0547	0.1436	1	1	0.634	0	82	0
35	1	36	0	1	3	0.0547	0.1436	1	1	0.819	5	0	82
35	1	37	1	2	3	0.0547	0.1436	0	1	0.410	94	82	82
35	1	38	0	1	2	0.0547	0.1436	0	1	0.630	7	0	0
35	1	39	0	2	2	0.0547	0.1436	0	1	0.373	10	0	0
35	1	40	0	1	1	0.0547	0.1436	0	1	0.543	8	0	0
35	1	41	0	1	1	0.0547	0.1436	0	1	0.468	9	0	0
35	1	42	1	2	2	0.0547	0.1436	1	1	0.411	94	0	82
35	1	43	1	1	3	0.0547	0.1436	0	1	0.660	69	82	82
35	1	44	1	2	1	0.0547	0.1436	1	1	0.473	88	0	82
35	1	45	0	2	3	0.0547	0.1436	0	1	0.482	9	0	0
35	1	46	0	1	1	0.0547	0.1436	0	1	0.473	9	0	0
35	1	47	0	2	2	0.0547	0.1436	1	1	0.527	8	82	0
35	1	48	0	1	3	0.0547	0.1436	0	1	0.709	6	0	0
35	1	49	0	2	3	0.0547	0.1436	1	0	0.603	0	82	0
35	1	50	0	1	3	0.0547	0.1436	1	0	0.869	0	0	82
35	1	51	9	2	2	0.0547	0.1436	0	1	0.451	0	82	82
35	1	52	1	1	3	0.0547	0.1436	0	1	0.639	71	82	82
35	1	53	9	2	2	0.0547	0.1436	1	1	0.567	0	0	82
35	1	54	0	2	3	0.0547	0.1436	0	1	0.402	9	0	0
35	1	55	9	2	3	0.0547	0.1436	0	1	0.397	0	0	0
35	1	56	1	2	3	0.0547	0.1436	1	1	0.518	83	0	82
35	1	57	1	1	3	0.0547	0.1436	1	1	0.531	82	82	0
35	1	58	9	2	1	0.0547	0.1436	0	1	0.417	0	0	0
35	1	59	0	1	3	0.0547	0.1436	0	1	0.752	6	0	0
35	1	60	0	1	1	0.0547	0.1436	1	1	0.658	7	0	82
35	1	61	1	1	3	0.0547	0.1436	1	1	0.698	65	82	0
35	1	62	1	2	2	0.0547	0.1436	0	1	0.438	91	82	82
35	1	63	0	1	1	0.0547	0.1436	1	1	0.664	7	0	82
35	1	64	1	2	3	0.0547	0.1436	0	1	0.448	90	82	82
35	1	65	1	1	1	0.0547	0.1436	1	1	0.466	88	82	0
35	1	66	0	2	2	0.0547	0.1436	1	1	0.655	7	82	0
35	1	67	1	2	3	0.0547	0.1436	1	1	0.439	91	0	82
35	1	68	0	1	2	0.0547	0.1436	0	0	0.519	0	0	0
35	1	69	1	1	2	0.0547	0.1436	0	1	0.676	67	82	82
35	1	70	9	2	3	0.0547	0.1436	1	1	0.434	0	0	82
35	1	71	1	1	3	0.0547	0.1436	1	1	0.460	89	82	0
35	1	72	0	1	3	0.0547	0.1436	0	1	0.544	8	0	0
35	1	73	0	2	2	0.0547	0.1436	0	1	0.404	9	0	0
35	1	74	0	2	2	0.0547	0.1436	0	1	0.372	10	0	0
35	1	75	0	2	2	0.0547	0.1436	0	1	0.441	9	0	0
35	1	76	1	1	2	0.0547	0.1436	1	1	0.432	92	82	0
35	1	77	0	1	3	0.0547	0.1436	1	0	0.659	0	0	82
35	1	78	1	1	2	0.0547	0.1436	0	0	0.580	0	82	82
35	1	79	1	1	1	0.0547	0.1436	1	1	0.463	89	82	0
35	1	80	1	1	1	0.0547	0.1436	0	0	0.502	0	82	82
35	1	81	1	2	3	0.0547	0.1436	0	1	0.560	79	82	82
35	1	82	1	2	2	0.0547	0.1436	1	1	0.452	90	0	82
35	1	83	0	1	3	0.0547	0.1436	1	1	0.716	6	0	82
35	1	84	0	2	2	0.0547	0.1436	0	1	0.378	10	0	0
35	1	85	0	2	2	0.0547	0.1436	0	1	0.380	10	0	0
35	1	86	1	2	3	0.0547	0.1436	0	1	0.488	86	82	82
35	1	87	0	1	1	0.0547	0.1436	1	1	0.600	8	0	82
35	1	88	0	1	1	0.0547	0.1436	1	1	0.593	8	0	82
35	1	89	9	2	1	0.0547	0.1436	1	1	0.762	0	82	0
35	1	90	1	1	3	0.0547	0.1436	0	1	0.557	79	82	82
35	1	91	9	1	3	0.0547	0.1436	1	0	0.520	0	0	82
35	1	92	9	2	3	0.0547	0.1436	0	1	0.454	0	82	82
35	1	93	1	1	1	0.0547	0.1436	0	1	0.692	66	82	82
35	1	94	1	1	3	0.0547	0.1436	1	1	0.352	100	82	0
35	1	95	9	2	3	0.0547	0.1436	0	1	0.437	0	82	82
35	1	96	0	1	3	0.0547	0.1436	1	1	0.583	8	0	82
35	1	97	9	1	1	0.0547	0.1436	0	1	0.633	0	0	0
35	1	98	1	2	2	0.0547	0.1436	0	1	0.483	87	82	82
35	1	99	9	1	3	0.0547	0.1436	1	1	0.427	0	82	0
35	1	100	1	1	3	0.0547	0.1436	1	1	0.550	80	82	0
35	1	101	1	2	2	0.0547	0.1436	0	1	0.399	95	82	82
35	1	102	9	2	3	0.0547	0.1436	0	1	0.369	0	82	82
35	1	103	1	2	1	0.0547	0.1436	1	0	0.252	0	0	82
35	1	104	0	2	2	0.0547	0.1436	0	1	0.347	10	0	0
35	1	105	1	1	3	0.0547	0.1436	1	1	0.373	98	82	0
35	1	106	1	1	3	0.0547	0.1436	0	0	0.545	0	82	82
35	1	107	1	2	3	0.0547	0.1436	1	1	0.852	50	0	82
35	1	108	9	1	1	0.0547	0.1436	1	1	0.421	0	82	0
35	1	109	1	2	2	0.0547	0.1436	0	1	0.276	100	82	82
35	1	110	0	2	3	0.0547	0.1436	1	0	0.589	0	82	0
35	1	111	9	1	2	0.0547	0.1436	1	1	0.390	0	82	0
35	1	112	0	2	3	0.0547	0.1436	0	1	0.422	9	0	0
35	1	113	0	1	3	0.0547	0.1436	0	0	0.512	0	0	0
35	1	114	9	2	3	0.0547	0.1436	1	1	0.318	0	0	82
35	1	115	1	2	3	0.0547	0.1436	0	1	0.449	90	82	82
35	1	116	1	1	1	0.0547	0.1436	1	1	0.442	91	82	0
35	1	117	1	2	3	0.0547	0.1436	1	1	0.335	100	0	82
35	1	118	9	1	3	0.0547	0.1436	1	1	0.371	0	82	0
35	1	119	1	1	1	0.0547	0.1436	1	1	0.374	98	82	0
35	1	120	9	1	1	0.0547	0.1436	1	1	0.417	0	82	0
35	1	121	1	1	1	0.0547	0.1436	1	1	0.438	91	82	0
35	1	122	0	1	3	0.0547	0.1436	0	1	0.463	9	0	0
35	1	123	1	2	2	0.0547	0.1436	0	1	0.358	99	82	82
35	1	124	9	1	1	0.0547	0.1436	1	1	0.544	0	0	82
35	1	125	1	2	2	0.0547	0.1436	0	1	0.429	92	82	82
35	1	126	0	2	2	0.0547	0.1436	1	1	0.613	7	82	0
35	1	127	0	1	1	0.0547	0.1436	0	0	0.509	0	0	0
35	1	128	9	2	3	0.0547	0.1436	1	0	0.603	0	82	0
35	1	129	9	1	3	0.0547	0.1436	0	1	0.539	0	0	0
35	1	130	1	2	2	0.0547	0.1436	1	1	0.318	100	0	82
35	1	131	9	2	3	0.0547	0.1436	1	0	0.428	0	82	0
35	1	132	1	2	2	0.0547	0.1436	0	1	0.523	83	82	82
35	1	133	1	2	2	0.0547	0.1436	0	1	0.408	94	82	82
35	1	134	1	2	2	0.0547	0.1436	1	0	0.283	0	0	82
35	1	135	0	2	2	0.0547	0.1436	0	1	0.459	9	0	0
35	1	136	1	1	3	0.0547	0.1436	1	1	0.355	100	82	0
35	1	137	0	1	3	0.0547	0.1436	1	0	0.742	0	0	82
35	1	138	9	1	1	0.0547	0.1436	0	1	0.602	0	0	0
35	1	139	0	2	2	0.0547	0.1436	1	1	0.692	7	82	0
35	1	140	1	2	2	0.0547	0.1436	1	1	0.555	80	0	82
35	1	141	0	2	3	0.0547	0.1436	1	1	0.597	8	82	0
35	1	142	0	1	3	0.0547	0.1436	1	1	0.727	6	0	82
35	1	143	1	2	3	0.0547	0.1436	0	1	0.396	95	82	82
35	1	144	0	2	2	0.0547	0.1436	1	1	0.613	7	82	0
35	1	145	0	1	2	0.0547	0.1436	1	1	0.535	8	0	82
35	1	146	9	1	2	0.0547	0.1436	0	0	0.459	0	0	0
35	1	147	9	1	1	0.0547	0.1436	0	0	0.499	0	82	82
35	1	148	0	2	3	0.0547	0.1436	1	1	0.615	7	82	0
35	1	149	1	2	3	0.0547	0.1436	0	1	0.401	95	82	82
35	1	150	9	2	3	0.0547	0.1436	0	1	0.393	0	82	82
35	1	151	1	2	2	0.0547	0.1436	0	1	0.418	93	82	82
35	1	152	1	1	1	0.0547	0.1436	0	1	0.697	65	82	82
35	1	153	1	2	2	0.0547	0.1436	0	1	0.326	100	82	82
35	1	154	9	2	3	0.0547	0.1436	0	1	0.401	0	0	0
35	1	155	0	1	1	0.0547	0.1436	0	1	0.659	7	0	0
35	1	156	9	2	1	0.0547	0.1436	1	0	0.437	0	0	82
35	1	157	0	2	3	0.0547	0.1436	0	1	0.335	10	0	0
35	1	158	1	1	1	0.0547	0.1436	0	1	0.575	78	82	82
35	1	159	1	1	3	0.0547	0.1436	0	1	0.587	76	82	82
35	1	160	1	1	1	0.0547	0.1436	0	1	0.573	78	82	82
35	1	161	0	1	3	0.0547	0.1436	0	1	0.412	9	0	0
35	1	162	0	1	3	0.0547	0.1436	0	1	0.517	8	0	0
35	1	163	0	2	2	0.0547	0.1436	1	0	0.604	0	82	0
35	1	164	0	1	1	0.0547	0.1436	1	0	0.326	0	0	82
35	1	165	0	2	3	0.0547	0.1436	0	1	0.364	10	0	0
35	1	166	9	1	3	0.0547	0.1436	0	1	0.528	0	0	0
35	1	167	9	1	3	0.0547	0.1436	0	1	0.454	0	82	82
35	1	168	9	1	1	0.0547	0.1436	0	1	0.534	0	0	0
35	1	169	0	2	2	0.0547	0.1436	1	1	0.680	7	82	0
35	1	170	1	1	3	0.0547	0.1436	1	1	0.420	93	82	0
35	1	171	9	2	2	0.0547	0.1436	1	0	0.445	0	0	82
35	1	172	9	2	2	0.0547	0.1436	0	1	0.486	0	0	0
35	1	173	9	2	3	0.0547	0.1436	1	1	0.331	0	0	82
35	1	174	0	1	3	0.0547	0.1436	1	1	0.690	7	0	82
35	1	175	0	1	1	0.0547	0.1436	1	1	0.594	8	0	82
35	1	176	0	1	2	0.0547	0.1436	1	1	0.571	8	0	82
35	1	177	9	1	3	0.0547	0.1436	0	1	0.520	0	0	0
35	1	178	9	1	3	0.0547	0.1436	0	1	0.702	0	82	82
35	1	179	0	1	3	0.0547	0.1436	0	1	0.540	8	0	0
35	1	180	0	2	1	0.0547	0.1436	0	1	0.442	9	0	0
35	1	181	9	2	1	0.0547	0.1436	0	1	0.512	0	82	82
35	1	182	0	2	3	0.0547	0.1436	0	1	0.316	10	0	0
35	1	183	1	2	2	0.0547	0.1436	1	1	0.435	92	0	82
35	1	184	1	1	1	0.0547	0.1436	1	1	0.403	95	82	0
35	1	185	0	2	2	0.0547	0.1436	0	1	0.447	9	0	0
35	1	186	0	1	1	0.0547	0.1436	0	0	0.437	0	0	0
35	1	187	1	1	3	0.0547	0.1436	1	1	0.384	97	82	0
35	1	188	9	2	2	0.0547	0.1436	0	1	0.464	0	82	82
35	1	189	0	1	1	0.0547	0.1436	1	0	0.568	0	0	82
35	1	190	0	1	1	0.0547	0.1436	0	1	0.548	8	0	0
35	1	191	0	2	3	0.0547	0.1436	1	1	0.624	7	82	0
35	1	192	0	2	1	0.0547	0.1436	1	0	0.600	0	82	0
35	1	193	0	1	1	0.0547	0.1436	1	1	0.563	8	0	82
35	1	194	9	2	2	0.0547	0.1436	1	1	0.662	0	82	0
35	1	195	0	2	2	0.0547	0.1436	1	1	0.558	8	82	0
35	1	196	0	2	2	0.0547	0.1436	0	1	0.440	9	0	0
35	1	197	1	2	3	0.0547	0.1436	0	1	0.471	88	82	82
35	1	198	0	1	1	0.0547	0.1436	1	1	0.860	5	0	82
35	1	199	0	1	1	0.0547	0.1436	0	1	0.562	8	0	0
35	1	200	1	2	2	0.0547	0.1436	0	1	0.526	82	82	82
35	1	201	1	2	3	0.0547	0.1436	1	1	0.422	93	0	82
35	1	202	0	2	2	0.0547	0.1436	1	1	0.600	7	82	0
35	1	203	1	1	1	0.0547	0.1436	1	1	0.706	64	82	0
35	1	204	0	2	2	0.0547	0.1436	1	1	0.487	9	82	0
35	1	205	0	1	3	0.0547	0.1436	1	1	0.575	8	0	82
35	1	206	0	2	3	0.0547	0.1436	1	0	5.208	0	82	0
35	1	207	9	1	2	0.0547	0.1436	1	1	0.844	0	0	82
35	1	208	9	2	2	0.0547	0.1436	1	1	0.701	0	82	0
35	1	209	9	2	3	0.0547	0.1436	0	1	0.492	0	0	0
35	1	210	0	1	1	0.0547	0.1436	1	0	0.738	0	0	82
35	1	211	0	2	3	0.0547	0.1436	1	1	0.606	7	82	0
35	1	212	0	1	3	0.0547	0.1436	1	0	0.656	0	0	82
35	1	213	0	2	2	0.0547	0.1436	1	1	0.568	8	82	0
35	1	214	0	2	2	0.0547	0.1436	0	0	2.373	0	0	0
35	1	215	9	2	2	0.0547	0.1436	1	1	0.519	0	0	82
35	1	216	1	1	3	0.0547	0.1436	1	1	0.578	77	82	0
35	1	217	0	2	2	0.0547	0.1436	1	1	0.604	7	82	0
35	1	218	9	1	1	0.0547	0.1436	1	0	0.588	0	82	0
35	1	219	0	2	1	0.0547	0.1436	0	1	0.510	8	0	0
35	1	220	1	2	2	0.0547	0.1436	1	1	0.468	88	0	82
35	1	221	0	2	3	0.0547	0.1436	0	1	0.442	9	0	0
35	1	222	1	1	1	0.0547	0.1436	1	1	0.411	94	82	0
35	1	223	0	1	3	0.0547	0.1436	1	0	0.740	0	0	82
35	1	224	1	1	1	0.0547	0.1436	0	1	1.529	50	82	82
35	1	225	1	1	3	0.0547	0.1436	0	1	0.628	72	82	82
35	1	226	1	2	3	0.0547	0.1436	1	1	0.526	82	0	82
35	1	227	1	2	3	0.0547	0.1436	0	1	0.882	50	82	82
35	1	228	1	2	2	0.0547	0.1436	0	1	2.737	50	82	82
35	1	229	0	1	2	0.0547	0.1436	0	1	0.381	10	0	0
35	1	230	1	1	1	0.0547	0.1436	0	1	0.640	71	82	82
35	1	231	9	1	1	0.0547	0.1436	0	0	0.601	0	82	82
35	1	232	1	2	3	0.0547	0.1436	1	0	1.705	0	0	82
35	1	233	0	2	3	0.0547	0.1436	0	1	0.455	9	0	0
35	1	234	1	2	1	0.0547	0.1436	0	1	0.454	90	82	82
35	1	235	1	1	3	0.0547	0.1436	0	0	0.469	0	82	82
35	1	236	9	2	2	0.0547	0.1436	0	1	0.412	0	82	82
35	1	237	0	2	2	0.0547	0.1436	1	1	0.564	8	82	0
35	1	238	1	2	2	0.0547	0.1436	1	0	0.431	0	0	82
35	1	239	1	2	3	0.0547	0.1436	0	1	0.505	85	82	82
35	1	240	9	1	3	0.0547	0.1436	1	0	0.660	0	0	82
35	1	241	0	2	2	0.0547	0.1436	0	1	0.348	10	0	0
35	1	242	9	2	3	0.0547	0.1436	1	1	0.624	0	82	0
35	1	243	1	2	2	0.0547	0.1436	0	1	0.423	93	82	82
35	1	244	1	2	1	0.0547	0.1436	0	1	0.505	84	82	82
35	1	245	1	1	3	0.0547	0.1436	0	0	0.630	0	82	82
35	1	246	1	2	3	0.0547	0.1436	0	1	0.366	98	82	82
35	1	247	1	1	1	0.0547	0.1436	0	1	0.648	70	82	82
35	1	248	9	2	3	0.0547	0.1436	0	1	0.399	0	0	0
35	1	249	9	1	3	0.0547	0.1436	1	0	0.669	0	0	82
35	1	250	0	2	2	0.0547	0.1436	1	0	0.565	0	82	0
35	1	251	0	2	1	0.0547	0.1436	1	1	0.551	8	82	0
35	1	252	0	2	3	0.0547	0.1436	0	1	0.474	9	0	0
35	1	253	9	2	2	0.0547	0.1436	0	1	0.242	0	0	0
35	1	254	9	2	2	0.0547	0.1436	0	1	0.610	0	0	0
35	1	255	9	1	1	0.0547	0.1436	1	0	0.685	0	0	82
35	1	256	0	2	3	0.0547	0.1436	0	1	0.419	9	0	0
35	1	257	0	2	1	0.0547	0.1436	0	1	0.467	9	0	0
35	1	258	1	2	3	0.0547	0.1436	1	0	0.337	0	0	82
35	1	259	1	2	3	0.0547	0.1436	1	1	0.395	96	0	82
35	1	260	1	2	2	0.0547	0.1436	1	1	0.486	86	0	82
35	1	261	1	1	3	0.0547	0.1436	1	1	0.436	91	82	0
35	1	262	1	1	3	0.0547	0.1436	1	1	0.499	85	82	0
35	1	263	9	1	3	0.0547	0.1436	0	1	1.799	0	82	82
35	1	264	9	2	2	0.0547	0.1436	0	1	0.435	0	0	0
35	1	265	0	1	1	0.0547	0.1436	1	0	0.506	0	0	82
35	1	266	0	1	2	0.0547	0.1436	1	0	0.569	0	0	82
35	1	267	9	1	1	0.0547	0.1436	0	1	0.699	0	0	0
35	1	268	1	2	2	0.0547	0.1436	1	1	0.449	90	0	82
35	1	269	1	2	1	0.0547	0.1436	0	1	0.408	94	82	82
35	1	270	0	1	1	0.0547	0.1436	0	1	0.583	8	0	0
35	1	271	9	1	1	0.0547	0.1436	1	1	0.506	0	82	0
35	1	272	1	2	1	0.0547	0.1436	0	1	0.704	65	82	82
35	1	273	1	1	1	0.0547	0.1436	1	1	0.404	95	82	0
35	1	274	1	1	2	0.0547	0.1436	0	1	0.684	67	82	82
35	1	275	0	1	2	0.0547	0.1436	0	1	0.562	8	0	0
35	1	276	9	1	3	0.0547	0.1436	1	1	0.415	0	82	0
35	1	277	0	2	2	0.0547	0.1436	1	0	0.729	0	82	0
35	1	278	0	2	3	0.0547	0.1436	1	1	0.695	7	82	0
35	1	279	1	1	3	0.0547	0.1436	0	1	0.518	83	82	82
35	1	280	0	1	1	0.0547	0.1436	0	1	0.546	8	0	0
35	1	281	0	1	1	0.0547	0.1436	0	1	0.516	8	0	0
35	1	282	1	2	2	0.0547	0.1436	1	1	0.543	81	0	82
35	1	283	9	2	2	0.0547	0.1436	1	1	0.884	0	82	0
35	1	284	1	2	2	0.0547	0.1436	0	1	0.522	83	82	82
35	1	285	9	1	3	0.0547	0.1436	0	1	0.480	0	82	82
35	1	286	1	1	1	0.0547	0.1436	0	1	0.616	73	82	82
35	1	287	9	2	2	0.0547	0.1436	1	1	0.459	0	0	82
35	1	288	1	2	3	0.0547	0.1436	0	1	0.553	80	82	82
35	1	289	9	1	3	0.0547	0.1436	0	1	1.172	0	0	0
35	1	290	1	1	3	0.0547	0.1436	0	1	0.489	86	82	82
35	1	291	1	2	3	0.0547	0.1436	1	1	0.438	91	0	82
35	1	292	1	2	3	0.0547	0.1436	0	1	0.672	68	82	82
35	1	293	0	2	3	0.0547	0.1436	1	1	0.848	5	82	0
35	1	294	0	1	3	0.0547	0.1436	0	1	0.767	6	0	0
35	1	295	1	1	3	0.0547	0.1436	1	1	-0.045	100	82	0
35	1	296	0	1	3	0.0547	0.1436	0	1	0.608	7	0	0
35	1	297	1	1	3	0.0547	0.1436	1	1	0.432	92	82	0
35	1	298	9	1	2	0.0547	0.1436	0	1	0.914	0	82	82
35	1	299	0	1	1	0.0547	0.1436	0	1	2.590	5	0	0
35	1	300	1	1	1	0.0547	0.1436	1	1	0.426	92	82	0
35	1	301	0	2	1	0.0547	0.1436	0	1	0.458	9	0	0
35	1	302	1	1	3	0.0547	0.1436	1	1	0.402	95	82	0
35	1	303	0	2	3	0.0547	0.1436	0	1	0.468	9	0	0
35	1	304	1	1	2	0.0547	0.1436	0	1	0.578	77	82	82
35	1	305	0	2	3	0.0547	0.1436	1	0	0.509	0	82	0
35	1	306	0	1	1	0.0547	0.1436	1	0	0.938	0	0	82
35	1	307	1	2	2	0.0547	0.1436	1	1	0.446	90	0	82
35	1	308	1	1	3	0.0547	0.1436	1	1	0.468	88	82	0
35	1	309	1	2	3	0.0547	0.1436	0	1	0.466	88	82	82
35	1	310	9	1	3	0.0547	0.1436	1	0	0.737	0	0	82
35	1	311	0	2	3	0.0547	0.1436	1	0	0.669	0	82	0
35	1	312	1	1	1	0.0547	0.1436	0	1	0.541	81	82	82
35	1	313	1	2	2	0.0547	0.1436	1	1	0.458	89	0	82
35	1	314	9	2	3	0.0547	0.1436	1	1	0.409	0	0	82
35	1	315	0	1	1	0.0547	0.1436	0	0	0.553	0	0	0
35	1	316	1	2	3	0.0547	0.1436	1	1	0.404	95	0	82
35	1	317	0	2	3	0.0547	0.1436	0	1	0.493	9	0	0
35	1	318	9	1	1	0.0547	0.1436	1	1	5.619	0	0	82
35	1	319	1	2	3	0.0547	0.1436	1	1	0.683	67	0	82
35	1	320	1	1	2	0.0547	0.1436	1	1	0.554	80	82	0
35	1	321	0	1	1	0.0547	0.1436	0	1	0.571	8	0	0
35	1	322	0	1	3	0.0547	0.1436	1	0	0.718	0	0	82
35	1	323	1	2	3	0.0547	0.1436	1	1	0.385	96	0	82
35	1	324	1	2	2	0.0547	0.1436	1	1	0.451	90	0	82
35	1	325	1	2	2	0.0547	0.1436	0	1	0.443	91	82	82
35	1	326	1	1	1	0.0547	0.1436	1	1	0.393	96	82	0
35	1	327	0	2	3	0.0547	0.1436	0	1	0.441	9	0	0
35	1	328	9	2	2	0.0547	0.1436	0	1	1.219	0	82	82
35	1	329	1	2	2	0.0547	0.1436	1	1	0.427	92	0	82
35	1	330	1	1	3	0.0547	0.1436	0	1	0.661	69	82	82
35	1	331	0	2	1	0.0547	0.1436	1	1	0.661	7	82	0
35	1	332	0	2	3	0.0547	0.1436	1	1	0.677	7	82	0
35	1	333	0	1	3	0.0547	0.1436	1	1	0.596	8	0	82
35	1	334	1	1	1	0.0547	0.1436	1	0	1.432	0	82	0
35	1	335	0	2	3	0.0547	0.1436	0	1	0.425	9	0	0
35	1	336	1	1	1	0.0547	0.1436	0	1	0.540	81	82	82
35	1	337	1	2	2	0.0547	0.1436	0	1	0.494	86	82	82
35	1	338	1	1	1	0.0547	0.1436	1	1	0.451	90	82	0
35	1	339	0	2	2	0.0547	0.1436	0	1	0.497	9	0	0
35	1	340	1	1	1	0.0547	0.1436	0	1	3.349	50	82	82
35	1	341	1	1	1	0.0547	0.1436	0	1	0.600	75	82	82
35	1	342	0	2	2	0.0547	0.1436	1	1	0.683	7	82	0
35	1	343	1	1	1	0.0547	0.1436	0	1	0.555	80	82	82
35	1	344	9	1	1	0.0547	0.1436	1	0	0.678	0	0	82
35	1	345	0	1	1	0.0547	0.1436	0	1	0.512	8	0	0
35	1	346	0	1	1	0.0547	0.1436	1	0	0.751	0	0	82
35	1	347	1	1	3	0.0547	0.1436	0	1	0.530	82	82	82
35	1	348	1	2	3	0.0547	0.1436	1	1	0.583	77	0	82
35	1	349	1	2	3	0.0547	0.1436	1	1	0.458	89	0	82
35	1	350	1	1	2	0.0547	0.1436	1	0	0.346	0	82	0
35	1	351	1	1	1	0.0547	0.1436	1	1	0.486	86	82	0
35	1	352	0	2	3	0.0547	0.1436	1	1	0.460	9	82	0
35	1	353	9	1	1	0.0547	0.1436	0	0	0.804	0	82	82
35	1	354	1	2	3	0.0547	0.1436	0	1	0.461	89	82	82
35	1	355	0	1	3	0.0547	0.1436	0	1	0.565	8	0	0
35	1	356	1	1	1	0.0547	0.1436	1	0	2.570	0	82	0
35	1	357	0	2	2	0.0547	0.1436	0	1	0.628	7	0	0
35	1	358	0	2	2	0.0547	0.1436	0	1	0.407	9	0	0
35	1	359	0	1	1	0.0547	0.1436	1	1	0.642	7	0	82
35	1	360	0	1	3	0.0547	0.1436	1	0	0.785	0	0	82
35	1	361	1	1	2	0.0547	0.1436	1	1	0.443	91	82	0
35	1	362	1	2	2	0.0547	0.1436	1	1	0.533	82	0	82
35	1	363	0	2	2	0.0547	0.1436	0	1	0.434	9	0	0
35	1	364	1	1	1	0.0547	0.1436	1	0	0.697	0	82	0
35	1	365	0	1	2	0.0547	0.1436	0	1	2.551	5	0	0
35	1	366	9	2	3	0.0547	0.1436	1	0	0.491	0	82	0
35	1	367	0	2	2	0.0547	0.1436	1	1	0.679	7	82	0
35	1	368	1	1	1	0.0547	0.1436	0	1	0.415	93	82	82
35	1	369	0	2	1	0.0547	0.1436	0	1	0.529	8	0	0
35	1	370	0	2	2	0.0547	0.1436	0	1	0.326	10	0	0
35	1	371	1	1	3	0.0547	0.1436	1	1	0.483	87	82	0
35	1	372	0	1	1	0.0547	0.1436	0	1	0.609	7	0	0
35	1	373	1	1	1	0.0547	0.1436	0	1	0.538	81	82	82
35	1	374	0	1	3	0.0547	0.1436	1	0	1.871	0	0	82
35	1	375	1	2	1	0.0547	0.1436	1	0	2.869	0	0	82
35	1	376	0	2	2	0.0547	0.1436	0	1	1.549	5	0	0
35	1	377	9	2	3	0.0547	0.1436	1	1	0.561	0	82	0
35	1	378	1	2	2	0.0547	0.1436	0	1	0.430	92	82	82
35	1	379	1	2	3	0.0547	0.1436	0	1	0.431	92	82	82
35	1	380	0	1	3	0.0547	0.1436	1	1	0.687	7	0	82
35	1	381	0	1	1	0.0547	0.1436	0	1	0.534	8	0	0
35	1	382	9	1	1	0.0547	0.1436	0	1	0.586	0	82	82
35	1	383	1	2	1	0.0547	0.1436	0	1	0.436	91	82	82
35	1	384	0	2	2	0.0547	0.1436	0	1	0.428	9	0	0
35	1	385	0	1	3	0.0547	0.1436	0	1	0.453	9	0	0
35	1	386	0	2	2	0.0547	0.1436	0	1	0.557	8	0	0
35	1	387	9	1	1	0.0547	0.1436	1	1	0.623	0	0	82
35	1	388	0	2	3	0.0547	0.1436	0	1	0.433	9	0	0
35	1	389	0	2	3	0.0547	0.1436	1	1	0.625	7	82	0
35	1	390	1	1	1	0.0547	0.1436	0	1	0.635	71	82	82
35	1	391	0	2	2	0.0547	0.1436	1	0	0.467	0	82	0
35	1	392	0	2	3	0.0547	0.1436	0	1	0.705	6	0	0
35	1	393	0	1	2	0.0547	0.1436	1	0	4.270	0	0	82
35	1	394	1	1	3	0.0547	0.1436	1	1	0.484	87	82	0
35	1	395	0	2	1	0.0547	0.1436	1	1	1.483	5	82	0
35	1	396	9	1	1	0.0547	0.1436	1	1	0.433	0	82	0
35	1	397	0	1	1	0.0547	0.1436	0	0	0.609	0	0	0
35	1	398	1	1	3	0.0547	0.1436	1	1	0.475	88	82	0
35	1	399	1	2	1	0.0547	0.1436	0	1	5.112	50	82	82
35	1	400	1	2	1	0.0547	0.1436	1	1	0.376	97	0	82
35	1	401	9	2	2	0.0547	0.1436	0	1	0.372	0	0	0
35	1	402	0	1	3	0.0547	0.1436	1	1	0.600	8	0	82
35	1	403	0	2	2	0.0547	0.1436	1	1	0.592	8	82	0
35	1	404	1	2	2	0.0547	0.1436	1	1	0.419	93	0	82
35	1	405	1	2	2	0.0547	0.1436	0	1	0.566	78	82	82
35	1	406	0	2	3	0.0547	0.1436	0	1	3.225	5	0	0
35	1	407	1	2	2	0.0547	0.1436	1	0	0.208	0	0	82
35	1	408	1	1	3	0.0547	0.1436	0	1	0.764	59	82	82
35	1	409	1	1	1	0.0547	0.1436	0	1	0.533	82	82	82
35	1	410	1	1	1	0.0547	0.1436	0	1	0.576	77	82	82
35	1	411	1	2	3	0.0547	0.1436	0	1	0.428	92	82	82
35	1	412	0	2	2	0.0547	0.1436	1	0	0.652	0	82	0
35	1	413	1	1	2	0.0547	0.1436	0	0	0.717	0	82	82
35	1	414	0	2	3	0.0547	0.1436	1	0	0.508	0	82	0
35	1	415	1	2	2	0.0547	0.1436	1	1	0.435	91	0	82
35	1	416	0	2	3	0.0547	0.1436	0	1	0.523	8	0	0
35	1	417	9	1	3	0.0547	0.1436	0	1	0.663	0	82	82
35	1	418	0	1	3	0.0547	0.1436	0	1	0.469	9	0	0
35	1	419	1	2	2	0.0547	0.1436	1	1	0.429	92	0	82
35	1	420	0	2	2	0.0547	0.1436	0	1	0.540	8	0	0
35	1	421	0	2	3	0.0547	0.1436	1	1	0.622	7	82	0
35	1	422	0	1	2	0.0547	0.1436	1	1	0.735	6	0	82
35	1	423	0	1	3	0.0547	0.1436	0	1	0.441	9	0	0
35	1	424	1	2	3	0.0547	0.1436	1	1	0.425	92	0	82
35	1	425	1	2	2	0.0547	0.1436	0	1	0.529	82	82	82
35	1	426	9	1	3	0.0547	0.1436	1	0	0.693	0	0	82
35	1	427	1	2	2	0.0547	0.1436	1	1	0.483	87	0	82
35	1	428	0	2	2	0.0547	0.1436	0	1	0.479	9	0	0
35	1	429	0	1	1	0.0547	0.1436	1	0	0.812	0	0	82
35	1	430	1	1	3	0.0547	0.1436	0	1	0.701	65	82	82
35	1	431	1	2	3	0.0547	0.1436	0	1	0.427	92	82	82
35	1	432	9	1	1	0.0547	0.1436	1	0	0.725	0	0	82
35	1	433	1	1	3	0.0547	0.1436	0	1	1.988	50	82	82
35	1	434	0	1	2	0.0547	0.1436	0	1	0.613	7	0	0
35	1	435	1	2	3	0.0547	0.1436	1	1	0.501	85	0	82
35	1	436	0	2	3	0.0547	0.1436	1	1	0.778	6	82	0
35	1	437	1	1	1	0.0547	0.1436	1	1	1.375	50	82	0
35	1	438	9	2	2	0.0547	0.1436	0	0	1.228	0	0	0
35	1	439	0	2	1	0.0547	0.1436	0	1	4.364	5	0	0
35	1	440	9	1	3	0.0547	0.1436	1	1	0.456	0	82	0
35	1	441	9	2	1	0.0547	0.1436	1	1	0.691	0	82	0
35	1	442	1	2	3	0.0547	0.1436	0	1	0.427	92	82	82
35	1	443	1	2	3	0.0547	0.1436	1	1	0.387	96	0	82
35	1	444	1	1	3	0.0547	0.1436	1	1	0.412	94	82	0
35	1	445	0	1	3	0.0547	0.1436	0	0	0.427	0	0	0
35	1	446	1	1	1	0.0547	0.1436	0	1	0.460	89	82	82
35	1	447	9	1	3	0.0547	0.1436	1	1	0.429	0	82	0
35	1	448	1	2	2	0.0547	0.1436	1	1	0.456	89	0	82
35	1	449	0	2	3	0.0547	0.1436	0	1	0.665	7	0	0
35	1	450	9	1	1	0.0547	0.1436	1	0	0.592	0	0	82
35	1	451	0	1	3	0.0547	0.1436	1	0	0.524	0	0	82
35	1	452	0	2	2	0.0547	0.1436	1	0	0.529	0	82	0
35	1	453	0	2	3	0.0547	0.1436	0	1	0.397	10	0	0
35	1	454	0	2	2	0.0547	0.1436	0	1	0.455	9	0	0
35	1	455	0	1	3	0.0547	0.1436	0	1	2.247	5	0	0
35	1	456	1	1	3	0.0547	0.1436	1	1	0.375	97	82	0
35	1	457	9	1	2	0.0547	0.1436	1	0	7.916	0	82	0
35	1	458	9	2	3	0.0547	0.1436	0	1	0.416	0	82	82
35	1	459	9	1	3	0.0547	0.1436	0	1	0.569	0	0	0
35	1	460	1	1	1	0.0547	0.1436	1	1	0.403	95	82	0
35	1	461	1	2	3	0.0547	0.1436	0	1	0.365	99	82	82
35	1	462	0	1	2	0.0547	0.1436	0	1	0.536	8	0	0
35	1	463	9	1	1	0.0547	0.1436	0	1	0.532	0	82	82
35	1	464	0	1	1	0.0547	0.1436	0	1	0.561	8	0	0
35	1	465	0	1	1	0.0547	0.1436	0	1	1.141	5	0	0
35	1	466	1	1	1	0.0547	0.1436	1	1	0.489	86	82	0
35	1	467	0	1	1	0.0547	0.1436	0	1	3.864	5	0	0
35	1	468	1	2	2	0.0547	0.1436	0	1	0.438	91	82	82
35	1	469	9	1	3	0.0547	0.1436	0	1	8.844	0	0	0
35	1	470	1	2	3	0.0547	0.1436	0	1	0.453	90	82	82
35	1	471	1	1	3	0.0547	0.1436	0	1	0.646	70	82	82
35	1	472	1	2	3	0.0547	0.1436	0	1	0.444	91	82	82
35	1	473	0	1	2	0.0547	0.1436	1	0	0.395	0	0	82
35	1	474	0	1	1	0.0547	0.1436	1	0	0.595	0	0	82
35	1	475	1	1	3	0.0547	0.1436	1	1	0.388	96	82	0
35	1	476	1	2	3	0.0547	0.1436	1	1	0.435	91	0	82
35	1	477	1	2	2	0.0547	0.1436	1	1	0.437	91	0	82
35	1	478	1	2	2	0.0547	0.1436	0	1	0.515	84	82	82
35	1	479	1	2	2	0.0547	0.1436	1	1	0.417	93	0	82
35	1	480	0	1	3	0.0547	0.1436	1	1	0.723	6	0	82
35	1	481	0	2	1	0.0547	0.1436	1	0	0.594	0	82	0
35	1	482	0	2	2	0.0547	0.1436	1	0	2.198	0	82	0
35	1	483	0	2	3	0.0547	0.1436	1	0	0.534	0	82	0
35	1	484	0	2	2	0.0547	0.1436	1	1	1.018	5	82	0
35	1	485	0	2	3	0.0547	0.1436	1	0	4.714	0	82	0
35	1	486	1	2	3	0.0547	0.1436	0	1	0.397	95	82	82
35	1	487	1	2	2	0.0547	0.1436	1	1	0.520	83	0	82
35	1	488	1	1	1	0.0547	0.1436	0	1	0.663	69	82	82
35	1	489	1	2	3	0.0547	0.1436	0	1	0.407	94	82	82
35	1	490	1	1	3	0.0547	0.1436	1	1	0.401	95	82	0
35	1	491	0	1	3	0.0547	0.1436	1	1	0.635	7	0	82
35	1	492	0	2	3	0.0547	0.1436	0	1	6.970	5	0	0
35	1	493	1	2	2	0.0547	0.1436	1	1	7.318	50	0	82
35	1	494	9	1	1	0.0547	0.1436	0	1	0.585	0	0	0
35	1	495	0	1	1	0.0547	0.1436	1	1	0.627	7	0	82
35	1	496	9	1	3	0.0547	0.1436	1	1	0.491	0	82	0
35	1	497	9	2	2	0.0547	0.1436	1	1	0.447	0	0	82
35	1	498	0	1	1	0.0547	0.1436	0	1	0.632	7	0	0
35	1	499	1	2	3	0.0547	0.1436	1	1	0.432	92	0	82
35	1	500	1	2	2	0.0547	0.1436	0	1	0.448	90	82	82
35	1	501	1	1	1	0.0547	0.1436	0	0	0.488	0	82	82
35	1	502	9	2	2	0.0547	0.1436	0	1	0.406	0	82	82
35	1	503	9	2	2	0.0547	0.1436	1	1	0.655	0	82	0
35	1	504	0	2	2	0.0547	0.1436	1	1	0.589	8	82	0
35	1	505	0	1	3	0.0547	0.1436	0	1	0.673	7	0	0
35	1	506	9	2	1	0.0547	0.1436	1	1	0.473	0	0	82
35	1	507	1	2	3	0.0547	0.1436	0	1	0.446	90	82	82
35	1	508	1	1	3	0.0547	0.1436	1	1	0.470	88	82	0
35	1	509	0	2	3	0.0547	0.1436	1	1	1.123	5	82	0
35	1	510	9	1	2	0.0547	0.1436	1	0	4.759	0	0	82
35	1	511	9	1	3	0.0547	0.1436	0	1	0.714	0	82	82
35	1	512	9	2	3	0.0547	0.1436	1	0	0.653	0	82	0
35	1	513	9	2	2	0.0547	0.1436	0	1	0.470	0	0	0
35	1	514	0	1	1	0.0547	0.1436	1	1	0.707	6	0	82
35	1	515	9	1	1	0.0547	0.1436	1	1	0.504	0	82	0
35	1	516	9	2	2	0.0547	0.1436	0	1	2.292	0	82	82
35	1	517	0	1	1	0.0547	0.1436	0	1	0.669	7	0	0
35	1	518	0	1	3	0.0547	0.1436	1	0	0.579	0	0	82
35	1	519	1	2	1	0.0547	0.1436	0	1	0.734	62	82	82
35	1	520	9	1	1	0.0547	0.1436	1	1	0.483	0	82	0
35	1	521	1	1	3	0.0547	0.1436	1	1	0.507	84	82	0
35	1	522	1	2	2	0.0547	0.1436	1	1	0.426	92	0	82
35	1	523	1	2	2	0.0547	0.1436	0	1	0.412	94	82	82
35	1	524	0	2	2	0.0547	0.1436	1	1	0.717	6	82	0
35	1	525	9	1	1	0.0547	0.1436	1	1	0.619	0	0	82
35	1	526	1	2	2	0.0547	0.1436	1	1	0.485	86	0	82
35	1	527	9	2	3	0.0547	0.1436	1	0	0.534	0	82	0
35	1	528	1	1	1	0.0547	0.1436	1	1	0.523	83	82	0
35	1	529	9	1	1	0.0547	0.1436	0	1	0.574	0	0	0
35	1	530	0	2	3	0.0547	0.1436	1	1	0.544	8	82	0
35	1	531	1	1	2	0.0547	0.1436	1	1	0.516	83	82	0
35	1	532	1	2	3	0.0547	0.1436	1	1	0.434	92	0	82
35	1	533	1	1	3	0.0547	0.1436	0	1	0.620	73	82	82
35	1	534	1	1	1	0.0547	0.1436	0	0	0.442	0	82	82
35	1	535	9	1	2	0.0547	0.1436	0	1	0.563	0	82	82
35	1	536	1	2	3	0.0547	0.1436	1	1	0.446	90	0	82
35	1	537	1	1	2	0.0547	0.1436	1	1	0.623	73	82	0
35	1	538	1	1	3	0.0547	0.1436	1	1	0.415	93	82	0
35	1	539	1	1	2	0.0547	0.1436	0	1	0.759	59	82	82
35	1	540	9	1	3	0.0547	0.1436	1	0	0.756	0	0	82
35	1	541	0	1	2	0.0547	0.1436	1	1	0.761	6	0	82
35	1	542	9	2	2	0.0547	0.1436	1	1	0.427	0	0	82
35	1	543	0	1	3	0.0547	0.1436	0	1	0.676	7	0	0
35	1	544	0	2	3	0.0547	0.1436	0	1	0.450	9	0	0
35	1	545	1	2	2	0.0547	0.1436	0	1	0.402	95	82	82
35	1	546	1	1	3	0.0547	0.1436	0	1	0.651	70	82	82
35	1	547	0	1	3	0.0547	0.1436	1	1	0.553	8	0	82
35	1	548	0	2	2	0.0547	0.1436	0	1	0.310	10	0	0
35	1	549	1	2	3	0.0547	0.1436	0	1	0.380	97	82	82
35	1	550	1	1	3	0.0547	0.1436	0	1	0.504	85	82	82
35	1	551	1	1	1	0.0547	0.1436	1	1	0.420	93	82	0
35	1	552	0	1	3	0.0547	0.1436	1	0	0.244	0	0	82
35	1	553	0	1	1	0.0547	0.1436	1	0	0.475	0	0	82
35	1	554	1	2	3	0.0547	0.1436	1	1	0.447	90	0	82
35	1	555	9	2	2	0.0547	0.1436	0	1	0.327	0	82	82
35	1	556	0	2	2	0.0547	0.1436	0	1	0.379	10	0	0
35	1	557	0	1	1	0.0547	0.1436	1	1	0.574	8	0	82
35	1	558	1	1	3	0.0547	0.1436	0	1	0.464	89	82	82
35	1	559	1	2	2	0.0547	0.1436	0	1	0.422	93	82	82
35	1	560	0	1	2	0.0547	0.1436	0	1	0.598	8	0	0
35	1	561	0	1	3	0.0547	0.1436	1	0	0.456	0	0	82
35	1	562	0	1	3	0.0547	0.1436	1	1	0.593	8	0	82
35	1	563	1	1	1	0.0547	0.1436	1	1	0.515	83	82	0
35	1	564	0	1	3	0.0547	0.1436	0	1	0.559	8	0	0
35	1	565	0	1	1	0.0547	0.1436	1	1	0.673	7	0	82
35	1	566	9	2	1	0.0547	0.1436	0	1	0.419	0	0	0
35	1	567	1	1	3	0.0547	0.1436	1	1	0.501	85	82	0
35	1	568	0	1	3	0.0547	0.1436	0	1	0.601	7	0	0
35	1	569	0	1	3	0.0547	0.1436	0	1	0.481	9	0	0
35	1	570	0	2	3	0.0547	0.1436	0	1	1.101	5	0	0
35	1	571	1	2	2	0.0547	0.1436	1	0	0.413	0	0	82
35	1	572	9	1	1	0.0547	0.1436	0	1	0.534	0	82	82
35	1	573	0	1	1	0.0547	0.1436	1	0	0.611	0	0	82
35	1	574	1	1	1	0.0547	0.1436	1	1	0.422	93	82	0
35	1	575	1	1	3	0.0547	0.1436	0	1	0.591	76	82	82
35	1	576	9	2	3	0.0547	0.1436	0	1	0.464	0	0	0
35	1	577	1	1	1	0.0547	0.1436	1	1	0.422	93	82	0
35	1	578	9	2	3	0.0547	0.1436	1	1	0.430	0	0	82
35	1	579	0	2	3	0.0547	0.1436	0	1	0.431	9	0	0
35	1	580	1	2	2	0.0547	0.1436	0	1	0.408	94	82	82
35	1	581	0	2	1	0.0547	0.1436	1	0	0.595	0	82	0
35	1	582	1	1	1	0.0547	0.1436	1	1	0.407	94	82	0
35	1	583	1	1	1	0.0547	0.1436	1	1	0.385	96	82	0
35	1	584	1	1	3	0.0547	0.1436	0	1	0.845	51	82	82
35	1	585	0	1	3	0.0547	0.1436	1	1	0.406	9	0	82
35	1	586	9	1	2	0.0547	0.1436	0	1	0.518	0	0	0
35	1	587	1	1	3	0.0547	0.1436	1	0	0.516	0	82	0
35	1	588	0	2	3	0.0547	0.1436	1	0	0.505	0	82	0
35	1	589	1	2	2	0.0547	0.1436	0	1	0.343	100	82	82
35	1	590	1	1	1	0.0547	0.1436	0	0	0.587	0	82	82
35	1	591	1	2	1	0.0547	0.1436	1	1	0.525	83	0	82
35	1	592	0	2	2	0.0547	0.1436	1	1	0.593	8	82	0
35	1	593	1	2	3	0.0547	0.1436	1	1	0.500	85	0	82
35	1	594	9	1	1	0.0547	0.1436	0	1	0.480	0	0	0
35	1	595	0	1	3	0.0547	0.1436	1	0	0.679	0	0	82
35	1	596	9	1	3	0.0547	0.1436	1	1	0.487	0	82	0
35	1	597	0	1	3	0.0547	0.1436	0	1	0.429	9	0	0
35	1	598	1	1	3	0.0547	0.1436	0	1	0.699	65	82	82
35	1	599	0	1	1	0.0547	0.1436	1	0	0.896	0	0	82
35	1	600	0	1	3	0.0547	0.1436	1	0	0.710	0	0	82
35	1	601	0	1	1	0.0547	0.1436	1	1	0.716	6	0	82
35	1	602	0	2	2	0.0547	0.1436	0	1	0.361	10	0	0
35	1	603	0	1	1	0.0547	0.1436	0	1	0.613	7	0	0
35	1	604	1	2	1	0.0547	0.1436	1	1	0.431	92	0	82
35	1	605	1	1	1	0.0547	0.1436	1	1	0.398	95	82	0
35	1	606	1	1	1	0.0547	0.1436	0	1	0.720	63	82	82
35	1	607	9	2	3	0.0547	0.1436	0	1	0.436	0	82	82
35	1	608	1	2	3	0.0547	0.1436	0	1	0.446	90	82	82
35	1	609	0	2	3	0.0547	0.1436	1	0	0.540	0	82	0
35	1	610	0	1	1	0.0547	0.1436	1	0	0.641	0	0	82
35	1	611	1	2	3	0.0547	0.1436	0	1	0.360	99	82	82
35	1	612	0	2	2	0.0547	0.1436	1	1	0.498	9	82	0
35	1	613	0	2	2	0.0547	0.1436	1	1	0.432	9	82	0
35	1	614	1	1	1	0.0547	0.1436	0	1	0.666	68	82	82
35	1	615	0	2	3	0.0547	0.1436	0	1	0.392	10	0	0
35	1	616	0	2	2	0.0547	0.1436	1	0	0.588	0	82	0
35	1	617	9	1	3	0.0547	0.1436	0	1	0.684	0	82	82
35	1	618	0	2	3	0.0547	0.1436	0	1	0.451	9	0	0
35	1	619	9	2	2	0.0547	0.1436	1	1	0.673	0	82	0
35	1	620	1	2	2	0.0547	0.1436	0	1	0.385	97	82	82
35	1	621	0	2	2	0.0547	0.1436	1	1	0.487	9	82	0
35	1	622	9	2	3	0.0547	0.1436	1	1	0.347	0	0	82
35	1	623	1	2	3	0.0547	0.1436	1	1	0.390	96	0	82
35	1	624	0	2	3	0.0547	0.1436	0	1	0.415	9	0	0
35	1	625	1	1	2	0.0547	0.1436	0	1	0.713	64	82	82
35	1	626	9	2	2	0.0547	0.1436	1	1	0.388	0	0	82
35	1	627	0	1	3	0.0547	0.1436	1	1	0.504	8	0	82
35	1	628	0	1	1	0.0547	0.1436	1	1	0.614	7	0	82
35	1	629	0	2	3	0.0547	0.1436	1	1	0.647	7	82	0
35	1	630	1	1	2	0.0547	0.1436	0	1	0.359	99	82	82
35	1	631	0	1	1	0.0547	0.1436	0	0	0.586	0	0	0
35	1	632	0	1	3	0.0547	0.1436	0	1	0.523	8	0	0
35	1	633	9	2	2	0.0547	0.1436	1	1	0.607	0	82	0
35	1	634	9	2	3	0.0547	0.1436	1	1	0.417	0	0	82
35	1	635	9	2	3	0.0547	0.1436	0	1	0.452	0	0	0
35	1	636	1	2	3	0.0547	0.1436	0	1	0.429	92	82	82
35	1	637	1	1	3	0.0547	0.1436	0	0	0.555	0	82	82
35	1	638	0	1	3	0.0547	0.1436	0	1	0.423	9	0	0
35	1	639	1	1	3	0.0547	0.1436	1	1	0.552	80	82	0
35	1	640	9	1	3	0.0547	0.1436	1	0	0.445	0	0	82
35	1	641	0	2	1	0.0547	0.1436	0	1	0.391	10	0	0
35	1	642	9	1	3	0.0547	0.1436	0	1	0.555	0	0	0
35	1	643	1	1	1	0.0547	0.1436	1	1	0.486	86	82	0
35	1	644	1	2	3	0.0547	0.1436	1	0	0.323	0	0	82
35	1	645	1	1	3	0.0547	0.1436	1	1	0.487	86	82	0
35	1	646	1	2	3	0.0547	0.1436	0	1	0.348	100	82	82
35	1	647	0	1	3	0.0547	0.1436	0	1	0.872	5	0	0
35	1	648	1	2	2	0.0547	0.1436	0	1	0.501	85	82	82
35	1	649	1	1	1	0.0547	0.1436	0	1	0.580	77	82	82
35	1	650	1	1	3	0.0547	0.1436	0	1	0.575	78	82	82
35	1	651	1	2	3	0.0547	0.1436	0	1	0.394	96	82	82
35	1	652	9	1	3	0.0547	0.1436	1	0	1.139	0	0	82
35	1	653	0	1	1	0.0547	0.1436	1	1	0.664	7	0	82
35	1	654	9	1	3	0.0547	0.1436	0	0	0.687	0	82	82
35	1	655	0	1	1	0.0547	0.1436	0	0	0.484	0	0	0
35	1	656	0	2	3	0.0547	0.1436	0	1	0.416	9	0	0
35	1	657	1	2	3	0.0547	0.1436	1	1	0.450	90	0	82
35	1	658	0	1	3	0.0547	0.1436	0	0	0.459	0	0	0
35	1	659	9	2	2	0.0547	0.1436	1	1	0.635	0	82	0
35	1	660	1	2	2	0.0547	0.1436	1	1	0.450	90	0	82
35	1	661	0	2	2	0.0547	0.1436	1	1	0.573	8	82	0
35	1	662	0	2	2	0.0547	0.1436	0	1	0.530	8	0	0
35	1	663	1	2	2	0.0547	0.1436	0	1	0.447	90	82	82
35	1	664	0	1	1	0.0547	0.1436	0	1	0.542	8	0	0
35	1	665	0	1	3	0.0547	0.1436	0	1	0.532	8	0	0
35	1	666	0	2	3	0.0547	0.1436	0	1	0.336	10	0	0
35	1	667	0	2	2	0.0547	0.1436	0	1	0.380	10	0	0
35	1	668	9	2	2	0.0547	0.1436	1	0	0.272	0	0	82
35	1	669	9	2	3	0.0547	0.1436	0	1	0.415	0	82	82
35	1	670	0	2	3	0.0547	0.1436	1	1	0.592	8	82	0
35	1	671	9	1	1	0.0547	0.1436	1	1	0.404	0	82	0
35	1	672	9	2	3	0.0547	0.1436	0	1	0.431	0	82	82
35	1	673	9	1	1	0.0547	0.1436	0	1	0.495	0	82	82
35	1	674	1	2	3	0.0547	0.1436	1	1	0.406	94	0	82
35	1	675	1	1	3	0.0547	0.1436	1	1	0.390	96	82	0
35	1	676	1	1	3	0.0547	0.1436	0	0	0.426	0	82	82
35	1	677	0	2	1	0.0547	0.1436	0	1	0.411	9	0	0
35	1	678	9	2	2	0.0547	0.1436	0	1	0.308	0	0	0
35	1	679	0	1	1	0.0547	0.1436	1	1	0.624	7	0	82
35	1	680	1	1	2	0.0547	0.1436	1	1	0.459	89	82	0
35	1	681	0	2	1	0.0547	0.1436	1	0	0.514	0	82	0
35	1	682	1	2	3	0.0547	0.1436	1	1	0.365	98	0	82
35	1	683	1	2	1	0.0547	0.1436	0	1	0.425	92	82	82
35	1	684	1	2	2	0.0547	0.1436	1	1	0.380	97	0	82
35	1	685	0	1	1	0.0547	0.1436	0	0	0.437	0	0	0
35	1	686	1	1	1	0.0547	0.1436	0	0	0.424	0	82	82
35	1	687	1	1	1	0.0547	0.1436	0	1	0.479	87	82	82
35	1	688	1	1	1	0.0547	0.1436	1	1	0.406	94	82	0
35	1	689	0	2	2	0.0547	0.1436	0	1	0.302	10	0	0
35	1	690	0	2	2	0.0547	0.1436	0	1	0.301	10	0	0
35	1	691	9	1	1	0.0547	0.1436	0	0	0.474	0	0	0
35	1	692	1	1	1	0.0547	0.1436	1	1	0.370	98	82	0
35	1	693	0	2	2	0.0547	0.1436	1	0	0.470	0	82	0
35	1	694	1	2	3	0.0547	0.1436	1	1	0.382	97	0	82
35	1	695	0	2	3	0.0547	0.1436	1	0	0.545	0	82	0
35	1	696	9	2	1	0.0547	0.1436	0	1	0.421	0	82	82
35	1	697	0	2	3	0.0547	0.1436	1	0	0.589	0	82	0
35	1	698	9	2	3	0.0547	0.1436	1	1	0.390	0	0	82
35	1	699	1	2	2	0.0547	0.1436	0	1	0.367	98	82	82
35	1	700	0	2	2	0.0547	0.1436	0	1	0.402	9	0	0
35	1	701	9	2	3	0.0547	0.1436	0	1	0.298	0	0	0
35	1	702	1	1	1	0.0547	0.1436	0	1	0.343	100	82	82
35	1	703	0	1	1	0.0547	0.1436	1	1	0.539	8	0	82
35	1	704	9	2	2	0.0547	0.1436	0	1	0.261	0	82	82
35	1	705	1	2	3	0.0547	0.1436	1	1	0.423	93	0	82
35	1	706	0	2	3	0.0547	0.1436	1	0	0.456	0	82	0
35	1	707	1	1	1	0.0547	0.1436	1	1	0.401	95	82	0
35	1	708	1	1	3	0.0547	0.1436	0	1	0.522	83	82	82
35	1	709	0	2	3	0.0547	0.1436	1	0	0.487	0	82	0
35	1	710	1	1	3	0.0547	0.1436	1	1	0.479	87	82	0
35	1	711	0	1	1	0.0547	0.1436	0	1	0.632	7	0	0
35	1	712	0	1	1	0.0547	0.1436	0	1	0.478	9	0	0
35	1	713	0	1	1	0.0547	0.1436	1	0	0.540	0	0	82
35	1	714	1	1	3	0.0547	0.1436	0	1	0.505	84	82	82
35	1	715	0	1	3	0.0547	0.1436	1	0	0.584	0	0	82
35	1	716	0	2	3	0.0547	0.1436	0	1	0.387	10	0	0
35	1	717	9	2	3	0.0547	0.1436	0	1	0.508	0	0	0
35	1	718	9	1	3	0.0547	0.1436	0	1	0.570	0	0	0
35	1	719	1	2	2	0.0547	0.1436	0	1	0.438	91	82	82
35	1	720	0	1	1	0.0547	0.1436	0	0	0.527	0	0	0
