sub	sess	t	rew	loc	cue	co1	co2	or	resp	rt	rew_tot	left_col	right_col
40	1	1	1	2	3	0.3142	0.2463	0	1	2.187	50	0	0
40	1	2	1	2	1	0.3142	0.2463	1	1	0.671	68	82	0
40	1	3	1	2	2	0.3142	0.2463	0	1	0.781	57	0	0
40	1	4	0	2	1	0.3142	0.2463	0	1	0.709	6	82	82
40	1	5	0	1	2	0.3142	0.2463	1	1	0.747	6	82	0
40	1	6	1	1	1	0.3142	0.2463	0	1	0.910	50	0	0
40	1	7	1	1	1	0.3142	0.2463	1	1	0.938	50	0	82
40	1	8	9	2	3	0.3142	0.2463	1	1	0.880	0	0	82
40	1	9	1	2	3	0.3142	0.2463	0	1	0.737	61	0	0
40	1	10	9	1	3	0.3142	0.2463	0	1	0.582	0	82	82
40	1	11	0	2	2	0.3142	0.2463	0	1	0.670	7	82	82
40	1	12	1	2	2	0.3142	0.2463	0	0	0.991	0	0	0
40	1	13	0	1	3	0.3142	0.2463	1	1	0.759	6	82	0
40	1	14	9	1	1	0.3142	0.2463	0	1	0.643	0	82	82
40	1	15	1	1	3	0.3142	0.2463	0	1	0.610	74	0	0
40	1	16	1	1	3	0.3142	0.2463	0	1	0.492	86	0	0
40	1	17	9	1	3	0.3142	0.2463	1	1	0.531	0	82	0
40	1	18	1	1	3	0.3142	0.2463	1	0	0.589	0	0	82
40	1	19	1	2	2	0.3142	0.2463	1	1	0.552	80	82	0
40	1	20	0	2	3	0.3142	0.2463	0	0	0.794	0	82	82
40	1	21	9	2	2	0.3142	0.2463	0	1	1.125	0	0	0
40	1	22	9	2	1	0.3142	0.2463	0	1	0.737	0	0	0
40	1	23	1	1	3	0.3142	0.2463	0	1	0.622	73	0	0
40	1	24	0	1	3	0.3142	0.2463	0	1	0.552	8	82	82
40	1	25	0	2	2	0.3142	0.2463	0	1	0.662	7	82	82
40	1	26	0	2	2	0.3142	0.2463	1	1	0.686	7	0	82
40	1	27	1	1	3	0.3142	0.2463	1	1	0.549	80	0	82
40	1	28	0	1	2	0.3142	0.2463	1	1	0.527	8	82	0
40	1	29	1	1	1	0.3142	0.2463	0	1	0.445	90	0	0
40	1	30	0	2	3	0.3142	0.2463	0	1	0.716	6	82	82
40	1	31	9	1	1	0.3142	0.2463	1	1	0.625	0	82	0
40	1	32	9	1	3	0.3142	0.2463	0	1	0.450	0	0	0
40	1	33	1	1	1	0.3142	0.2463	0	1	0.479	87	0	0
40	1	34	9	2	3	0.3142	0.2463	0	1	0.943	0	0	0
40	1	35	9	1	3	0.3142	0.2463	0	1	0.518	0	82	82
40	1	36	0	1	1	0.3142	0.2463	0	1	0.434	9	82	82
40	1	37	0	2	3	0.3142	0.2463	1	1	0.739	6	0	82
40	1	38	1	1	1	0.3142	0.2463	1	1	0.855	50	0	82
40	1	39	9	2	1	0.3142	0.2463	1	0	0.574	0	0	82
40	1	40	0	1	3	0.3142	0.2463	1	1	0.602	7	82	0
40	1	41	0	2	2	0.3142	0.2463	0	1	1.551	5	82	82
40	1	42	1	1	2	0.3142	0.2463	0	1	0.753	60	0	0
40	1	43	1	1	2	0.3142	0.2463	1	1	0.500	85	0	82
40	1	44	0	2	3	0.3142	0.2463	1	1	0.809	5	0	82
40	1	45	1	1	2	0.3142	0.2463	1	1	0.828	52	0	82
40	1	46	1	2	3	0.3142	0.2463	0	0	0.644	0	0	0
40	1	47	1	2	2	0.3142	0.2463	1	1	0.499	85	82	0
40	1	48	1	2	1	0.3142	0.2463	0	1	0.703	65	0	0
40	1	49	0	1	1	0.3142	0.2463	0	1	0.470	9	82	82
40	1	50	1	2	2	0.3142	0.2463	0	1	0.772	58	0	0
40	1	51	0	2	2	0.3142	0.2463	1	1	0.501	8	0	82
40	1	52	0	1	1	0.3142	0.2463	0	1	0.517	8	82	82
40	1	53	9	2	3	0.3142	0.2463	0	0	0.561	0	82	82
40	1	54	0	1	1	0.3142	0.2463	1	1	0.605	7	82	0
40	1	55	0	1	3	0.3142	0.2463	1	1	0.572	8	82	0
40	1	56	0	1	3	0.3142	0.2463	1	1	0.705	6	82	0
40	1	57	9	1	3	0.3142	0.2463	0	1	0.600	0	82	82
40	1	58	1	2	3	0.3142	0.2463	0	1	0.657	69	0	0
40	1	59	0	1	3	0.3142	0.2463	0	1	0.512	8	82	82
40	1	60	0	2	2	0.3142	0.2463	1	1	0.445	9	0	82
40	1	61	1	1	2	0.3142	0.2463	0	1	0.590	76	0	0
40	1	62	9	1	3	0.3142	0.2463	1	1	0.632	0	0	82
40	1	63	9	1	3	0.3142	0.2463	1	1	0.510	0	82	0
40	1	64	0	1	1	0.3142	0.2463	1	1	0.476	9	82	0
40	1	65	1	2	1	0.3142	0.2463	1	0	0.539	0	82	0
40	1	66	1	1	1	0.3142	0.2463	0	1	0.503	85	0	0
40	1	67	1	1	1	0.3142	0.2463	1	1	0.557	79	0	82
40	1	68	9	2	2	0.3142	0.2463	0	1	0.827	0	82	82
40	1	69	0	2	3	0.3142	0.2463	0	1	0.578	8	82	82
40	1	70	9	2	2	0.3142	0.2463	0	1	0.567	0	82	82
40	1	71	0	1	1	0.3142	0.2463	1	1	0.615	7	82	0
40	1	72	9	1	2	0.3142	0.2463	1	1	0.758	0	82	0
40	1	73	9	1	2	0.3142	0.2463	0	0	0.530	0	82	82
40	1	74	0	2	2	0.3142	0.2463	0	1	0.879	5	82	82
40	1	75	9	2	1	0.3142	0.2463	1	1	1.373	0	82	0
40	1	76	0	1	1	0.3142	0.2463	0	1	0.769	6	82	82
40	1	77	0	1	3	0.3142	0.2463	0	1	0.532	8	82	82
40	1	78	0	2	1	0.3142	0.2463	0	1	0.689	7	82	82
40	1	79	0	1	2	0.3142	0.2463	1	0	0.751	0	82	0
40	1	80	9	2	2	0.3142	0.2463	0	1	0.700	0	82	82
40	1	81	1	2	3	0.3142	0.2463	1	1	0.656	69	82	0
40	1	82	1	2	2	0.3142	0.2463	0	1	0.744	61	0	0
40	1	83	0	1	3	0.3142	0.2463	1	1	0.731	6	82	0
40	1	84	0	1	1	0.3142	0.2463	0	1	0.591	8	82	82
40	1	85	0	2	3	0.3142	0.2463	0	1	1.041	5	82	82
40	1	86	1	2	3	0.3142	0.2463	0	1	0.737	61	0	0
40	1	87	1	2	2	0.3142	0.2463	0	1	0.486	86	0	0
40	1	88	9	1	1	0.3142	0.2463	0	1	0.516	0	82	82
40	1	89	1	1	1	0.3142	0.2463	1	1	0.768	58	0	82
40	1	90	1	2	2	0.3142	0.2463	1	1	0.489	86	82	0
40	1	91	1	1	3	0.3142	0.2463	1	1	0.440	91	0	82
40	1	92	1	2	3	0.3142	0.2463	1	1	0.375	97	82	0
40	1	93	9	2	3	0.3142	0.2463	0	1	0.666	0	82	82
40	1	94	1	1	3	0.3142	0.2463	1	1	0.385	97	0	82
40	1	95	0	1	3	0.3142	0.2463	1	0	1.516	0	82	0
40	1	96	9	2	3	0.3142	0.2463	0	1	0.786	0	0	0
40	1	97	9	1	3	0.3142	0.2463	0	1	0.635	0	82	82
40	1	98	9	1	3	0.3142	0.2463	0	1	0.570	0	0	0
40	1	99	0	1	1	0.3142	0.2463	1	1	0.916	5	82	0
40	1	100	0	1	3	0.3142	0.2463	0	1	0.752	6	82	82
40	1	101	9	2	2	0.3142	0.2463	1	1	0.986	0	0	82
40	1	102	0	1	3	0.3142	0.2463	1	1	0.779	6	82	0
40	1	103	1	1	1	0.3142	0.2463	0	1	0.591	76	0	0
40	1	104	9	2	3	0.3142	0.2463	1	1	0.778	0	82	0
40	1	105	0	1	3	0.3142	0.2463	1	1	0.814	5	82	0
40	1	106	9	2	3	0.3142	0.2463	1	0	0.599	0	82	0
40	1	107	1	1	3	0.3142	0.2463	0	1	0.559	79	0	0
40	1	108	1	2	2	0.3142	0.2463	1	0	2.141	0	82	0
40	1	109	0	2	3	0.3142	0.2463	1	1	0.786	6	0	82
40	1	110	0	2	3	0.3142	0.2463	1	1	0.684	7	0	82
40	1	111	1	2	3	0.3142	0.2463	1	1	0.528	82	82	0
40	1	112	0	2	2	0.3142	0.2463	0	1	0.773	6	82	82
40	1	113	0	1	3	0.3142	0.2463	0	1	0.712	6	82	82
40	1	114	1	2	2	0.3142	0.2463	1	1	0.500	85	82	0
40	1	115	0	1	1	0.3142	0.2463	1	1	0.923	5	82	0
40	1	116	0	1	3	0.3142	0.2463	0	1	0.570	8	82	82
40	1	117	9	2	2	0.3142	0.2463	1	1	0.381	0	82	0
40	1	118	1	1	1	0.3142	0.2463	1	1	0.431	92	0	82
40	1	119	1	2	2	0.3142	0.2463	1	1	0.359	99	82	0
40	1	120	1	1	1	0.3142	0.2463	1	1	0.403	95	0	82
40	1	121	9	1	3	0.3142	0.2463	1	1	0.757	0	82	0
40	1	122	1	1	3	0.3142	0.2463	0	1	0.473	88	0	0
40	1	123	0	2	1	0.3142	0.2463	1	1	0.625	7	0	82
40	1	124	1	1	1	0.3142	0.2463	0	1	0.364	99	0	0
40	1	125	1	2	2	0.3142	0.2463	1	1	0.408	94	82	0
40	1	126	9	1	1	0.3142	0.2463	0	1	0.515	0	0	0
40	1	127	1	2	3	0.3142	0.2463	1	1	0.569	78	82	0
40	1	128	0	2	2	0.3142	0.2463	1	1	0.547	8	0	82
40	1	129	0	1	3	0.3142	0.2463	0	1	0.487	9	82	82
40	1	130	0	1	1	0.3142	0.2463	0	1	0.452	9	82	82
40	1	131	0	1	3	0.3142	0.2463	0	1	0.436	9	82	82
40	1	132	9	2	2	0.3142	0.2463	1	0	0.598	0	0	82
40	1	133	0	2	2	0.3142	0.2463	1	1	0.680	7	0	82
40	1	134	1	1	3	0.3142	0.2463	0	1	1.000	50	0	0
40	1	135	0	2	3	0.3142	0.2463	0	1	0.697	7	82	82
40	1	136	0	2	2	0.3142	0.2463	1	1	0.582	8	0	82
40	1	137	1	1	1	0.3142	0.2463	0	1	0.350	100	0	0
40	1	138	1	2	2	0.3142	0.2463	0	0	0.623	0	0	0
40	1	139	1	1	1	0.3142	0.2463	1	1	0.528	82	0	82
40	1	140	0	1	3	0.3142	0.2463	0	1	0.412	9	82	82
40	1	141	1	2	2	0.3142	0.2463	0	1	0.890	50	0	0
40	1	142	1	2	2	0.3142	0.2463	1	1	0.512	84	82	0
40	1	143	9	2	3	0.3142	0.2463	1	1	0.773	0	0	82
40	1	144	0	1	1	0.3142	0.2463	1	1	0.626	7	82	0
40	1	145	9	1	1	0.3142	0.2463	1	1	0.507	0	82	0
40	1	146	0	2	2	0.3142	0.2463	0	1	0.631	7	82	82
40	1	147	9	1	3	0.3142	0.2463	1	1	0.543	0	0	82
40	1	148	1	1	1	0.3142	0.2463	0	1	0.355	100	0	0
40	1	149	1	2	2	0.3142	0.2463	1	1	0.453	90	82	0
40	1	150	1	2	2	0.3142	0.2463	1	1	0.445	90	82	0
40	1	151	1	2	2	0.3142	0.2463	0	1	0.293	100	0	0
40	1	152	1	2	3	0.3142	0.2463	1	1	0.276	100	82	0
40	1	153	9	2	2	0.3142	0.2463	0	1	0.482	0	0	0
40	1	154	0	1	3	0.3142	0.2463	0	1	0.350	10	82	82
40	1	155	0	2	2	0.3142	0.2463	0	0	0.449	0	82	82
40	1	156	0	2	2	0.3142	0.2463	0	1	0.594	8	82	82
40	1	157	1	1	3	0.3142	0.2463	0	1	0.709	64	0	0
40	1	158	1	1	3	0.3142	0.2463	1	1	0.418	93	0	82
40	1	159	1	1	1	0.3142	0.2463	0	1	0.426	92	0	0
40	1	160	0	1	1	0.3142	0.2463	1	0	0.540	0	82	0
40	1	161	0	2	3	0.3142	0.2463	1	1	0.588	8	0	82
40	1	162	0	2	2	0.3142	0.2463	1	1	0.560	8	0	82
40	1	163	9	1	3	0.3142	0.2463	1	0	0.523	0	82	0
40	1	164	1	1	1	0.3142	0.2463	1	1	0.566	78	0	82
40	1	165	0	1	3	0.3142	0.2463	1	1	0.436	9	82	0
40	1	166	1	1	1	0.3142	0.2463	0	1	0.515	83	0	0
40	1	167	9	1	1	0.3142	0.2463	0	1	0.840	0	0	0
40	1	168	1	2	3	0.3142	0.2463	0	1	0.706	64	0	0
40	1	169	0	2	2	0.3142	0.2463	0	1	1.440	5	82	82
40	1	170	0	1	1	0.3142	0.2463	0	1	0.547	8	82	82
40	1	171	0	1	1	0.3142	0.2463	1	1	0.757	6	82	0
40	1	172	9	1	1	0.3142	0.2463	0	1	0.448	0	82	82
40	1	173	0	1	3	0.3142	0.2463	1	0	0.607	0	82	0
40	1	174	1	1	2	0.3142	0.2463	1	1	0.449	90	0	82
40	1	175	9	2	3	0.3142	0.2463	0	1	0.785	0	82	82
40	1	176	0	1	1	0.3142	0.2463	0	1	0.443	9	82	82
40	1	177	1	1	3	0.3142	0.2463	0	1	0.532	82	0	0
40	1	178	9	1	1	0.3142	0.2463	0	1	0.342	0	0	0
40	1	179	0	2	2	0.3142	0.2463	1	1	0.541	8	0	82
40	1	180	9	2	3	0.3142	0.2463	0	1	1.138	0	82	82
40	1	181	9	2	2	0.3142	0.2463	1	1	0.437	0	82	0
40	1	182	0	2	2	0.3142	0.2463	1	1	0.567	8	0	82
40	1	183	0	2	2	0.3142	0.2463	0	1	0.738	6	82	82
40	1	184	0	2	2	0.3142	0.2463	1	1	0.719	6	0	82
40	1	185	0	1	3	0.3142	0.2463	0	1	0.443	9	82	82
40	1	186	0	2	3	0.3142	0.2463	0	1	0.626	7	82	82
40	1	187	0	2	3	0.3142	0.2463	0	1	0.557	8	82	82
40	1	188	0	1	1	0.3142	0.2463	1	1	0.615	7	82	0
40	1	189	1	1	3	0.3142	0.2463	1	1	0.489	86	0	82
40	1	190	1	1	1	0.3142	0.2463	1	1	0.368	98	0	82
40	1	191	0	2	3	0.3142	0.2463	0	1	0.561	8	82	82
40	1	192	0	2	3	0.3142	0.2463	1	1	0.789	6	0	82
40	1	193	1	1	3	0.3142	0.2463	1	1	0.454	90	0	82
40	1	194	0	1	1	0.3142	0.2463	1	1	0.600	8	82	0
40	1	195	0	2	3	0.3142	0.2463	1	1	0.706	6	0	82
40	1	196	0	1	3	0.3142	0.2463	1	1	0.655	7	82	0
40	1	197	0	2	3	0.3142	0.2463	0	1	0.670	7	82	82
40	1	198	0	1	1	0.3142	0.2463	0	0	0.606	0	82	82
40	1	199	9	1	1	0.3142	0.2463	1	0	0.641	0	0	82
40	1	200	1	2	3	0.3142	0.2463	0	0	0.576	0	0	0
40	1	201	0	2	3	0.3142	0.2463	0	1	0.858	5	82	82
40	1	202	1	2	3	0.3142	0.2463	1	1	0.521	83	82	0
40	1	203	1	2	3	0.3142	0.2463	1	1	0.437	91	82	0
40	1	204	1	2	2	0.3142	0.2463	0	1	1.525	50	0	0
40	1	205	9	1	1	0.3142	0.2463	0	1	2.186	0	82	82
40	1	206	1	2	3	0.3142	0.2463	0	1	0.732	62	0	0
40	1	207	0	2	3	0.3142	0.2463	1	1	0.567	8	0	82
40	1	208	1	1	1	0.3142	0.2463	0	1	0.568	78	0	0
40	1	209	0	1	2	0.3142	0.2463	0	1	0.595	8	82	82
40	1	210	1	2	3	0.3142	0.2463	1	1	0.542	81	82	0
40	1	211	1	2	3	0.3142	0.2463	1	1	0.473	88	82	0
40	1	212	0	2	2	0.3142	0.2463	1	1	0.561	8	0	82
40	1	213	1	2	3	0.3142	0.2463	0	0	0.836	0	0	0
40	1	214	1	1	3	0.3142	0.2463	1	1	0.543	81	0	82
40	1	215	9	2	3	0.3142	0.2463	1	1	0.561	0	0	82
40	1	216	1	2	2	0.3142	0.2463	0	0	0.422	0	0	0
40	1	217	0	1	1	0.3142	0.2463	0	1	0.557	8	82	82
40	1	218	1	1	2	0.3142	0.2463	1	1	1.007	50	0	82
40	1	219	0	1	1	0.3142	0.2463	0	1	0.659	7	82	82
40	1	220	1	1	3	0.3142	0.2463	0	1	0.540	81	0	0
40	1	221	9	2	2	0.3142	0.2463	1	1	0.618	0	82	0
40	1	222	9	1	3	0.3142	0.2463	0	1	0.618	0	0	0
40	1	223	9	2	3	0.3142	0.2463	1	1	0.906	0	82	0
40	1	224	9	2	2	0.3142	0.2463	0	1	0.976	0	0	0
40	1	225	1	1	3	0.3142	0.2463	1	1	0.459	89	0	82
40	1	226	1	1	1	0.3142	0.2463	1	1	0.555	80	0	82
40	1	227	1	2	2	0.3142	0.2463	1	1	0.486	86	82	0
40	1	228	1	2	3	0.3142	0.2463	0	1	0.557	79	0	0
40	1	229	0	1	3	0.3142	0.2463	1	1	0.657	7	82	0
40	1	230	1	1	3	0.3142	0.2463	0	1	0.473	88	0	0
40	1	231	1	1	3	0.3142	0.2463	1	1	0.360	99	0	82
40	1	232	0	1	3	0.3142	0.2463	0	1	0.478	9	82	82
40	1	233	0	1	3	0.3142	0.2463	0	1	0.547	8	82	82
40	1	234	1	2	3	0.3142	0.2463	1	1	0.334	100	82	0
40	1	235	0	1	1	0.3142	0.2463	0	1	0.410	9	82	82
40	1	236	9	1	1	0.3142	0.2463	1	1	0.330	0	0	82
40	1	237	1	1	1	0.3142	0.2463	0	1	0.423	93	0	0
40	1	238	9	2	2	0.3142	0.2463	1	1	0.758	0	0	82
40	1	239	1	1	1	0.3142	0.2463	1	1	0.442	91	0	82
40	1	240	1	1	1	0.3142	0.2463	1	1	0.378	97	0	82
40	1	241	1	1	1	0.3142	0.2463	0	1	0.452	90	0	0
40	1	242	1	1	3	0.3142	0.2463	0	1	0.413	94	0	0
40	1	243	1	1	3	0.3142	0.2463	0	1	0.350	100	0	0
40	1	244	1	1	1	0.3142	0.2463	1	1	0.441	91	0	82
40	1	245	0	2	3	0.3142	0.2463	1	1	0.736	6	0	82
40	1	246	9	2	1	0.3142	0.2463	0	0	0.619	0	82	82
40	1	247	9	1	1	0.3142	0.2463	1	1	0.613	0	82	0
40	1	248	0	1	1	0.3142	0.2463	1	1	0.457	9	82	0
40	1	249	0	2	1	0.3142	0.2463	0	1	0.897	5	82	82
40	1	250	1	1	1	0.3142	0.2463	1	1	0.361	99	0	82
40	1	251	1	2	2	0.3142	0.2463	0	1	0.533	82	0	0
40	1	252	1	2	3	0.3142	0.2463	1	1	0.570	78	82	0
40	1	253	1	2	1	0.3142	0.2463	0	1	0.846	50	0	0
40	1	254	1	1	1	0.3142	0.2463	0	1	0.429	92	0	0
40	1	255	0	2	2	0.3142	0.2463	0	0	0.455	0	82	82
40	1	256	9	1	1	0.3142	0.2463	1	1	0.472	0	0	82
40	1	257	9	1	1	0.3142	0.2463	1	1	0.368	0	0	82
40	1	258	1	1	3	0.3142	0.2463	1	1	0.337	100	0	82
40	1	259	0	1	3	0.3142	0.2463	0	1	0.517	8	82	82
40	1	260	0	2	2	0.3142	0.2463	1	1	0.738	6	0	82
40	1	261	0	1	3	0.3142	0.2463	1	1	0.716	6	82	0
40	1	262	1	2	3	0.3142	0.2463	0	1	0.648	70	0	0
40	1	263	0	1	3	0.3142	0.2463	1	1	0.544	8	82	0
40	1	264	1	1	3	0.3142	0.2463	1	1	0.310	100	0	82
40	1	265	0	2	3	0.3142	0.2463	1	1	0.948	5	0	82
40	1	266	9	1	1	0.3142	0.2463	1	1	0.471	0	82	0
40	1	267	0	2	3	0.3142	0.2463	1	1	0.576	8	0	82
40	1	268	0	2	3	0.3142	0.2463	0	1	0.697	7	82	82
40	1	269	9	1	3	0.3142	0.2463	0	1	0.912	0	0	0
40	1	270	1	2	3	0.3142	0.2463	1	1	0.356	99	82	0
40	1	271	9	1	2	0.3142	0.2463	0	1	0.438	0	0	0
40	1	272	0	2	1	0.3142	0.2463	1	1	0.552	8	0	82
40	1	273	1	1	1	0.3142	0.2463	0	1	0.339	100	0	0
40	1	274	9	1	1	0.3142	0.2463	0	1	0.343	0	0	0
40	1	275	1	2	2	0.3142	0.2463	1	1	0.433	92	82	0
40	1	276	1	2	3	0.3142	0.2463	1	1	0.433	92	82	0
40	1	277	1	2	3	0.3142	0.2463	1	1	0.336	100	82	0
40	1	278	0	1	3	0.3142	0.2463	1	1	0.748	6	82	0
40	1	279	0	1	2	0.3142	0.2463	0	1	0.432	9	82	82
40	1	280	1	2	2	0.3142	0.2463	0	1	1.449	50	0	0
40	1	281	0	2	3	0.3142	0.2463	1	1	0.850	5	0	82
40	1	282	1	2	2	0.3142	0.2463	0	1	1.385	50	0	0
40	1	283	9	1	3	0.3142	0.2463	1	1	0.458	0	0	82
40	1	284	0	1	1	0.3142	0.2463	1	1	0.689	7	82	0
40	1	285	0	2	3	0.3142	0.2463	0	1	0.532	8	82	82
40	1	286	0	1	2	0.3142	0.2463	0	1	0.800	5	82	82
40	1	287	0	2	2	0.3142	0.2463	0	1	0.763	6	82	82
40	1	288	1	2	3	0.3142	0.2463	1	1	0.574	78	82	0
40	1	289	9	2	3	0.3142	0.2463	1	1	0.736	0	0	82
40	1	290	0	1	1	0.3142	0.2463	1	1	0.710	6	82	0
40	1	291	1	2	1	0.3142	0.2463	1	1	0.444	91	82	0
40	1	292	0	2	2	0.3142	0.2463	1	1	0.557	8	0	82
40	1	293	1	2	2	0.3142	0.2463	1	1	0.311	100	82	0
40	1	294	1	1	3	0.3142	0.2463	1	1	0.454	90	0	82
40	1	295	1	2	2	0.3142	0.2463	0	1	0.447	90	0	0
40	1	296	0	1	1	0.3142	0.2463	0	1	0.705	6	82	82
40	1	297	9	2	3	0.3142	0.2463	1	1	0.406	0	82	0
40	1	298	9	2	3	0.3142	0.2463	0	0	0.479	0	0	0
40	1	299	0	1	1	0.3142	0.2463	1	1	0.799	6	82	0
40	1	300	1	2	1	0.3142	0.2463	1	1	0.454	90	82	0
40	1	301	0	2	3	0.3142	0.2463	1	1	0.699	7	0	82
40	1	302	1	2	1	0.3142	0.2463	0	1	0.418	93	0	0
40	1	303	0	2	3	0.3142	0.2463	0	0	0.378	0	82	82
40	1	304	1	1	3	0.3142	0.2463	0	1	0.389	96	0	0
40	1	305	0	1	1	0.3142	0.2463	0	1	0.456	9	82	82
40	1	306	0	2	3	0.3142	0.2463	0	1	0.609	7	82	82
40	1	307	1	1	1	0.3142	0.2463	0	1	0.474	88	0	0
40	1	308	0	2	2	0.3142	0.2463	0	0	0.504	0	82	82
40	1	309	1	2	2	0.3142	0.2463	0	1	0.653	70	0	0
40	1	310	0	2	2	0.3142	0.2463	1	1	0.589	8	0	82
40	1	311	1	1	3	0.3142	0.2463	0	1	0.497	85	0	0
40	1	312	9	2	2	0.3142	0.2463	1	1	0.428	0	82	0
40	1	313	1	2	3	0.3142	0.2463	0	1	0.750	60	0	0
40	1	314	0	2	2	0.3142	0.2463	0	1	0.579	8	82	82
40	1	315	0	2	3	0.3142	0.2463	0	1	0.485	9	82	82
40	1	316	9	2	2	0.3142	0.2463	0	1	0.413	0	82	82
40	1	317	0	1	3	0.3142	0.2463	0	1	0.575	8	82	82
40	1	318	0	2	2	0.3142	0.2463	0	1	0.401	9	82	82
40	1	319	0	2	2	0.3142	0.2463	0	1	0.434	9	82	82
40	1	320	1	1	3	0.3142	0.2463	0	1	0.426	92	0	0
40	1	321	1	2	3	0.3142	0.2463	0	1	0.848	50	0	0
40	1	322	9	2	2	0.3142	0.2463	0	1	0.625	0	0	0
40	1	323	1	2	1	0.3142	0.2463	0	1	0.539	81	0	0
40	1	324	1	1	2	0.3142	0.2463	0	1	0.761	59	0	0
40	1	325	0	1	2	0.3142	0.2463	1	1	0.853	5	82	0
40	1	326	1	2	2	0.3142	0.2463	0	1	0.491	86	0	0
40	1	327	0	2	3	0.3142	0.2463	1	1	0.872	5	0	82
40	1	328	0	2	3	0.3142	0.2463	1	1	0.589	8	0	82
40	1	329	1	1	3	0.3142	0.2463	1	1	0.480	87	0	82
40	1	330	9	2	3	0.3142	0.2463	0	1	0.960	0	0	0
40	1	331	0	1	1	0.3142	0.2463	0	1	0.522	8	82	82
40	1	332	1	2	3	0.3142	0.2463	0	1	1.310	50	0	0
40	1	333	1	2	3	0.3142	0.2463	0	1	0.628	72	0	0
40	1	334	9	1	3	0.3142	0.2463	1	1	0.495	0	0	82
40	1	335	1	1	3	0.3142	0.2463	0	1	0.292	100	0	0
40	1	336	0	2	2	0.3142	0.2463	1	1	0.675	7	0	82
40	1	337	1	1	2	0.3142	0.2463	0	1	0.348	100	0	0
40	1	338	0	2	1	0.3142	0.2463	1	1	0.517	8	0	82
40	1	339	1	1	1	0.3142	0.2463	1	1	0.737	61	0	82
40	1	340	9	1	2	0.3142	0.2463	1	1	0.813	0	0	82
40	1	341	1	1	3	0.3142	0.2463	1	1	0.469	88	0	82
40	1	342	0	1	3	0.3142	0.2463	0	1	0.710	6	82	82
40	1	343	0	2	3	0.3142	0.2463	0	1	0.876	5	82	82
40	1	344	0	2	1	0.3142	0.2463	0	1	1.290	5	82	82
40	1	345	1	2	2	0.3142	0.2463	1	1	0.482	87	82	0
40	1	346	0	1	2	0.3142	0.2463	0	1	0.551	8	82	82
40	1	347	0	1	1	0.3142	0.2463	0	1	0.459	9	82	82
40	1	348	1	2	3	0.3142	0.2463	1	1	0.345	100	82	0
40	1	349	0	1	1	0.3142	0.2463	1	1	0.749	6	82	0
40	1	350	1	1	1	0.3142	0.2463	1	1	0.417	93	0	82
40	1	351	1	2	2	0.3142	0.2463	1	1	0.364	99	82	0
40	1	352	1	2	3	0.3142	0.2463	0	0	0.397	0	0	0
40	1	353	9	2	2	0.3142	0.2463	1	1	0.584	0	0	82
40	1	354	0	1	3	0.3142	0.2463	1	1	1.307	5	82	0
40	1	355	0	2	2	0.3142	0.2463	1	1	0.599	8	0	82
40	1	356	1	2	2	0.3142	0.2463	1	1	0.424	93	82	0
40	1	357	0	2	1	0.3142	0.2463	1	1	0.779	6	0	82
40	1	358	1	1	3	0.3142	0.2463	1	1	0.540	81	0	82
40	1	359	0	2	3	0.3142	0.2463	1	1	0.618	7	0	82
40	1	360	0	1	1	0.3142	0.2463	1	1	0.651	7	82	0
40	1	361	9	1	2	0.3142	0.2463	1	1	0.709	0	0	82
40	1	362	9	1	3	0.3142	0.2463	0	1	0.484	0	0	0
40	1	363	0	2	3	0.3142	0.2463	1	1	0.490	9	0	82
40	1	364	0	1	3	0.3142	0.2463	0	1	0.401	9	82	82
40	1	365	1	1	3	0.3142	0.2463	1	1	0.660	69	0	82
40	1	366	1	2	2	0.3142	0.2463	0	1	0.620	73	0	0
40	1	367	1	1	1	0.3142	0.2463	0	1	0.332	100	0	0
40	1	368	0	1	2	0.3142	0.2463	0	0	0.271	0	82	82
40	1	369	0	2	2	0.3142	0.2463	1	1	0.567	8	0	82
40	1	370	1	2	2	0.3142	0.2463	1	1	0.380	97	82	0
40	1	371	9	1	1	0.3142	0.2463	1	1	0.444	0	0	82
40	1	372	1	1	2	0.3142	0.2463	1	1	0.349	100	0	82
40	1	373	0	2	2	0.3142	0.2463	1	1	0.608	7	0	82
40	1	374	0	2	1	0.3142	0.2463	1	1	0.401	9	0	82
40	1	375	9	2	1	0.3142	0.2463	1	1	0.747	0	82	0
40	1	376	1	2	2	0.3142	0.2463	1	1	0.462	89	82	0
40	1	377	9	2	2	0.3142	0.2463	0	0	0.405	0	0	0
40	1	378	9	2	3	0.3142	0.2463	0	0	0.500	0	0	0
40	1	379	1	1	3	0.3142	0.2463	1	1	0.447	90	0	82
40	1	380	0	2	2	0.3142	0.2463	1	1	0.581	8	0	82
40	1	381	9	1	1	0.3142	0.2463	0	1	0.519	0	0	0
40	1	382	0	2	2	0.3142	0.2463	1	1	0.461	9	0	82
40	1	383	0	1	3	0.3142	0.2463	1	1	0.627	7	82	0
40	1	384	0	1	2	0.3142	0.2463	1	1	0.598	8	82	0
40	1	385	9	2	3	0.3142	0.2463	0	1	0.719	0	82	82
40	1	386	0	1	3	0.3142	0.2463	0	1	0.541	8	82	82
40	1	387	1	1	3	0.3142	0.2463	0	1	0.457	89	0	0
40	1	388	1	2	1	0.3142	0.2463	1	1	0.618	73	82	0
40	1	389	0	2	3	0.3142	0.2463	0	1	0.578	8	82	82
40	1	390	0	1	3	0.3142	0.2463	1	1	0.598	8	82	0
40	1	391	0	1	2	0.3142	0.2463	1	1	0.624	7	82	0
40	1	392	1	2	2	0.3142	0.2463	0	1	0.327	100	0	0
40	1	393	0	1	3	0.3142	0.2463	0	1	0.684	7	82	82
40	1	394	0	1	1	0.3142	0.2463	0	1	0.346	10	82	82
40	1	395	9	2	3	0.3142	0.2463	0	0	0.382	0	82	82
40	1	396	9	2	3	0.3142	0.2463	0	1	0.310	0	0	0
40	1	397	9	1	1	0.3142	0.2463	1	1	0.435	0	0	82
40	1	398	0	2	3	0.3142	0.2463	0	0	0.468	0	82	82
40	1	399	1	2	2	0.3142	0.2463	1	1	0.593	76	82	0
40	1	400	1	2	1	0.3142	0.2463	0	1	1.314	50	0	0
40	1	401	9	2	2	0.3142	0.2463	0	0	0.527	0	0	0
40	1	402	0	2	2	0.3142	0.2463	0	1	0.650	7	82	82
40	1	403	1	1	1	0.3142	0.2463	1	1	0.442	91	0	82
40	1	404	0	2	2	0.3142	0.2463	1	1	0.890	5	0	82
40	1	405	1	1	3	0.3142	0.2463	0	1	0.382	97	0	0
40	1	406	9	1	1	0.3142	0.2463	0	1	0.434	0	82	82
40	1	407	1	1	1	0.3142	0.2463	1	1	0.346	100	0	82
40	1	408	1	2	3	0.3142	0.2463	1	1	0.660	69	82	0
40	1	409	0	1	3	0.3142	0.2463	1	0	0.675	0	82	0
40	1	410	1	2	2	0.3142	0.2463	0	1	0.715	64	0	0
40	1	411	0	2	3	0.3142	0.2463	0	0	0.464	0	82	82
40	1	412	9	1	1	0.3142	0.2463	1	1	1.118	0	82	0
40	1	413	0	1	1	0.3142	0.2463	1	1	0.452	9	82	0
40	1	414	0	1	3	0.3142	0.2463	0	1	0.558	8	82	82
40	1	415	1	1	2	0.3142	0.2463	0	1	0.802	55	0	0
40	1	416	1	1	2	0.3142	0.2463	1	1	0.427	92	0	82
40	1	417	1	1	3	0.3142	0.2463	1	1	0.323	100	0	82
40	1	418	0	1	3	0.3142	0.2463	1	1	0.655	7	82	0
40	1	419	1	1	3	0.3142	0.2463	1	1	0.430	92	0	82
40	1	420	0	1	3	0.3142	0.2463	0	1	0.526	8	82	82
40	1	421	1	1	2	0.3142	0.2463	0	1	0.546	80	0	0
40	1	422	0	1	3	0.3142	0.2463	0	1	0.503	8	82	82
40	1	423	1	1	1	0.3142	0.2463	1	1	0.397	95	0	82
40	1	424	0	2	2	0.3142	0.2463	0	0	0.774	0	82	82
40	1	425	1	1	3	0.3142	0.2463	1	1	0.394	96	0	82
40	1	426	0	2	2	0.3142	0.2463	0	0	0.636	0	82	82
40	1	427	1	1	1	0.3142	0.2463	1	1	0.356	99	0	82
40	1	428	1	2	2	0.3142	0.2463	1	1	0.433	92	82	0
40	1	429	1	1	3	0.3142	0.2463	0	1	0.394	96	0	0
40	1	430	0	2	3	0.3142	0.2463	0	0	0.636	0	82	82
40	1	431	0	2	2	0.3142	0.2463	0	1	0.629	7	82	82
40	1	432	9	2	2	0.3142	0.2463	1	1	0.700	0	82	0
40	1	433	1	2	3	0.3142	0.2463	0	0	1.164	0	0	0
40	1	434	1	1	1	0.3142	0.2463	1	1	0.494	86	0	82
40	1	435	0	2	2	0.3142	0.2463	0	1	0.708	6	82	82
40	1	436	0	1	1	0.3142	0.2463	0	1	0.466	9	82	82
40	1	437	0	1	3	0.3142	0.2463	1	1	0.835	5	82	0
40	1	438	1	1	1	0.3142	0.2463	0	1	0.371	98	0	0
40	1	439	1	1	3	0.3142	0.2463	1	1	0.444	91	0	82
40	1	440	1	2	2	0.3142	0.2463	1	1	0.389	96	82	0
40	1	441	1	2	2	0.3142	0.2463	0	1	0.961	50	0	0
40	1	442	1	2	3	0.3142	0.2463	1	1	0.357	99	82	0
40	1	443	0	1	1	0.3142	0.2463	1	1	1.006	5	82	0
40	1	444	0	1	3	0.3142	0.2463	1	1	0.624	7	82	0
40	1	445	0	2	3	0.3142	0.2463	1	1	0.568	8	0	82
40	1	446	1	1	3	0.3142	0.2463	0	1	0.452	90	0	0
40	1	447	1	2	2	0.3142	0.2463	1	1	0.426	92	82	0
40	1	448	1	1	1	0.3142	0.2463	0	1	0.322	100	0	0
40	1	449	1	2	2	0.3142	0.2463	1	1	0.345	100	82	0
40	1	450	1	1	3	0.3142	0.2463	1	1	0.477	87	0	82
40	1	451	9	2	2	0.3142	0.2463	0	1	0.971	0	0	0
40	1	452	0	1	3	0.3142	0.2463	1	1	0.564	8	82	0
40	1	453	0	1	1	0.3142	0.2463	0	1	0.416	9	82	82
40	1	454	0	1	1	0.3142	0.2463	1	1	1.321	5	82	0
40	1	455	1	2	1	0.3142	0.2463	0	1	1.008	50	0	0
40	1	456	1	2	2	0.3142	0.2463	0	0	0.770	0	0	0
40	1	457	9	1	1	0.3142	0.2463	0	1	0.613	0	0	0
40	1	458	0	1	2	0.3142	0.2463	1	1	0.654	7	82	0
40	1	459	9	1	3	0.3142	0.2463	0	1	0.469	0	82	82
40	1	460	0	2	1	0.3142	0.2463	1	1	0.652	7	0	82
40	1	461	9	1	1	0.3142	0.2463	1	1	0.619	0	82	0
40	1	462	0	2	3	0.3142	0.2463	0	0	0.756	0	82	82
40	1	463	9	1	3	0.3142	0.2463	0	1	0.439	0	82	82
40	1	464	1	1	3	0.3142	0.2463	0	1	0.440	91	0	0
40	1	465	0	1	1	0.3142	0.2463	0	1	0.375	10	82	82
40	1	466	9	1	3	0.3142	0.2463	0	1	0.445	0	82	82
40	1	467	0	1	1	0.3142	0.2463	0	1	0.307	10	82	82
40	1	468	0	1	1	0.3142	0.2463	1	0	0.384	0	82	0
40	1	469	0	1	1	0.3142	0.2463	1	1	0.690	7	82	0
40	1	470	1	2	2	0.3142	0.2463	0	0	0.721	0	0	0
40	1	471	1	1	3	0.3142	0.2463	1	0	0.544	0	0	82
40	1	472	1	2	1	0.3142	0.2463	0	1	1.243	50	0	0
40	1	473	1	2	3	0.3142	0.2463	1	1	0.465	88	82	0
40	1	474	0	1	3	0.3142	0.2463	0	1	0.561	8	82	82
40	1	475	9	1	3	0.3142	0.2463	0	1	0.468	0	0	0
40	1	476	1	2	2	0.3142	0.2463	0	1	0.780	57	0	0
40	1	477	0	2	2	0.3142	0.2463	1	1	0.638	7	0	82
40	1	478	0	2	3	0.3142	0.2463	0	1	0.894	5	82	82
40	1	479	9	2	2	0.3142	0.2463	1	1	0.781	0	0	82
40	1	480	0	1	1	0.3142	0.2463	0	1	0.455	9	82	82
40	1	481	0	1	1	0.3142	0.2463	1	1	0.596	8	82	0
40	1	482	1	2	3	0.3142	0.2463	1	1	0.422	93	82	0
40	1	483	1	2	2	0.3142	0.2463	1	1	0.342	100	82	0
40	1	484	0	2	3	0.3142	0.2463	1	1	0.479	9	0	82
40	1	485	0	2	3	0.3142	0.2463	0	1	0.615	7	82	82
40	1	486	9	1	3	0.3142	0.2463	0	1	0.504	0	0	0
40	1	487	9	1	2	0.3142	0.2463	0	1	0.511	0	82	82
40	1	488	0	2	3	0.3142	0.2463	0	0	0.572	0	82	82
40	1	489	9	2	2	0.3142	0.2463	1	1	0.456	0	82	0
40	1	490	0	2	2	0.3142	0.2463	0	0	0.888	0	82	82
40	1	491	1	2	1	0.3142	0.2463	0	1	0.837	51	0	0
40	1	492	1	1	3	0.3142	0.2463	0	1	0.398	95	0	0
40	1	493	9	2	3	0.3142	0.2463	1	1	0.671	0	0	82
40	1	494	0	2	3	0.3142	0.2463	1	1	0.600	7	0	82
40	1	495	0	2	1	0.3142	0.2463	0	0	0.971	0	82	82
40	1	496	1	1	3	0.3142	0.2463	1	1	0.503	85	0	82
40	1	497	1	2	2	0.3142	0.2463	0	1	1.494	50	0	0
40	1	498	0	1	1	0.3142	0.2463	1	1	0.644	7	82	0
40	1	499	1	1	1	0.3142	0.2463	0	1	0.541	81	0	0
40	1	500	0	2	3	0.3142	0.2463	1	1	0.498	9	0	82
40	1	501	1	2	2	0.3142	0.2463	1	1	0.335	100	82	0
40	1	502	1	2	3	0.3142	0.2463	1	1	0.346	100	82	0
40	1	503	0	2	3	0.3142	0.2463	1	1	0.567	8	0	82
40	1	504	1	1	1	0.3142	0.2463	1	1	0.449	90	0	82
40	1	505	1	2	1	0.3142	0.2463	1	1	0.352	100	82	0
40	1	506	1	2	3	0.3142	0.2463	0	0	0.347	0	0	0
40	1	507	0	1	3	0.3142	0.2463	1	1	0.639	7	82	0
40	1	508	1	1	3	0.3142	0.2463	0	1	0.831	52	0	0
40	1	509	0	1	3	0.3142	0.2463	0	1	0.496	9	82	82
40	1	510	0	2	1	0.3142	0.2463	0	1	0.582	8	82	82
40	1	511	0	2	3	0.3142	0.2463	1	1	0.705	6	0	82
40	1	512	0	2	2	0.3142	0.2463	1	1	0.616	7	0	82
40	1	513	0	2	2	0.3142	0.2463	0	1	1.201	5	82	82
40	1	514	0	2	3	0.3142	0.2463	0	1	0.410	9	82	82
40	1	515	1	1	1	0.3142	0.2463	0	1	0.490	86	0	0
40	1	516	9	2	1	0.3142	0.2463	0	1	0.839	0	82	82
40	1	517	0	1	1	0.3142	0.2463	1	1	0.656	7	82	0
40	1	518	1	1	3	0.3142	0.2463	0	1	0.429	92	0	0
40	1	519	0	1	3	0.3142	0.2463	1	1	0.612	7	82	0
40	1	520	1	2	2	0.3142	0.2463	1	1	0.814	54	82	0
40	1	521	1	2	3	0.3142	0.2463	1	0	1.730	0	82	0
40	1	522	9	2	2	0.3142	0.2463	0	1	0.832	0	82	82
40	1	523	0	1	1	0.3142	0.2463	1	1	0.789	6	82	0
40	1	524	1	2	2	0.3142	0.2463	0	1	0.600	75	0	0
40	1	525	9	2	3	0.3142	0.2463	0	1	0.562	0	0	0
40	1	526	9	2	3	0.3142	0.2463	0	1	0.605	0	82	82
40	1	527	1	2	3	0.3142	0.2463	1	0	0.381	0	82	0
40	1	528	0	1	1	0.3142	0.2463	0	1	0.670	7	82	82
40	1	529	0	2	2	0.3142	0.2463	0	1	0.614	7	82	82
40	1	530	9	2	3	0.3142	0.2463	0	1	0.712	0	82	82
40	1	531	1	1	1	0.3142	0.2463	0	1	0.583	77	0	0
40	1	532	1	2	3	0.3142	0.2463	0	1	0.617	73	0	0
40	1	533	9	2	3	0.3142	0.2463	1	1	0.489	0	82	0
40	1	534	1	1	2	0.3142	0.2463	0	1	0.585	77	0	0
40	1	535	1	2	3	0.3142	0.2463	1	1	0.531	82	82	0
40	1	536	0	1	1	0.3142	0.2463	1	1	0.559	8	82	0
40	1	537	0	1	3	0.3142	0.2463	1	1	0.971	5	82	0
40	1	538	0	2	3	0.3142	0.2463	0	1	0.588	8	82	82
40	1	539	1	1	3	0.3142	0.2463	1	1	0.520	83	0	82
40	1	540	1	2	2	0.3142	0.2463	0	1	0.630	72	0	0
40	1	541	9	1	1	0.3142	0.2463	0	1	0.604	0	82	82
40	1	542	1	1	3	0.3142	0.2463	0	1	0.404	95	0	0
40	1	543	9	1	3	0.3142	0.2463	1	1	0.510	0	0	82
40	1	544	0	1	3	0.3142	0.2463	0	1	0.484	9	82	82
40	1	545	0	2	1	0.3142	0.2463	1	1	0.498	9	0	82
40	1	546	9	1	2	0.3142	0.2463	1	1	0.734	0	82	0
40	1	547	1	2	3	0.3142	0.2463	0	0	0.770	0	0	0
40	1	548	9	1	3	0.3142	0.2463	1	1	0.653	0	82	0
40	1	549	9	2	1	0.3142	0.2463	0	1	0.755	0	0	0
40	1	550	1	1	3	0.3142	0.2463	1	1	0.437	91	0	82
40	1	551	1	1	3	0.3142	0.2463	1	1	0.533	82	0	82
40	1	552	9	2	2	0.3142	0.2463	1	1	0.955	0	0	82
40	1	553	0	1	2	0.3142	0.2463	0	1	0.360	10	82	82
40	1	554	0	2	2	0.3142	0.2463	1	1	0.837	5	0	82
40	1	555	0	2	2	0.3142	0.2463	0	0	0.669	0	82	82
40	1	556	9	2	3	0.3142	0.2463	1	1	0.619	0	82	0
40	1	557	0	1	3	0.3142	0.2463	0	1	0.382	10	82	82
40	1	558	0	1	3	0.3142	0.2463	1	1	0.895	5	82	0
40	1	559	1	1	3	0.3142	0.2463	0	1	0.405	94	0	0
40	1	560	1	1	1	0.3142	0.2463	1	1	0.513	84	0	82
40	1	561	1	2	3	0.3142	0.2463	1	1	0.426	92	82	0
40	1	562	1	2	2	0.3142	0.2463	0	0	1.705	0	0	0
40	1	563	9	2	2	0.3142	0.2463	1	1	1.495	0	0	82
40	1	564	0	1	1	0.3142	0.2463	1	1	1.274	5	82	0
40	1	565	0	2	2	0.3142	0.2463	1	1	1.585	5	0	82
40	1	566	1	1	3	0.3142	0.2463	1	1	0.557	79	0	82
40	1	567	9	1	3	0.3142	0.2463	1	1	0.603	0	82	0
40	1	568	0	1	3	0.3142	0.2463	0	1	0.518	8	82	82
40	1	569	0	1	2	0.3142	0.2463	0	1	0.427	9	82	82
40	1	570	1	2	3	0.3142	0.2463	1	1	0.539	81	82	0
40	1	571	0	2	3	0.3142	0.2463	0	1	0.829	5	82	82
40	1	572	9	2	2	0.3142	0.2463	0	1	0.590	0	82	82
40	1	573	1	2	3	0.3142	0.2463	0	0	1.360	0	0	0
40	1	574	1	1	3	0.3142	0.2463	0	1	0.401	95	0	0
40	1	575	9	2	2	0.3142	0.2463	0	1	0.411	0	82	82
40	1	576	9	1	3	0.3142	0.2463	0	1	0.660	0	82	82
40	1	577	9	2	3	0.3142	0.2463	1	1	1.277	0	0	82
40	1	578	9	2	3	0.3142	0.2463	1	1	0.963	0	0	82
40	1	579	9	2	3	0.3142	0.2463	1	1	0.512	0	82	0
40	1	580	9	1	1	0.3142	0.2463	0	1	0.398	0	0	0
40	1	581	1	1	3	0.3142	0.2463	1	1	0.522	83	0	82
40	1	582	9	1	1	0.3142	0.2463	0	1	0.361	0	82	82
40	1	583	1	1	1	0.3142	0.2463	0	1	0.515	83	0	0
40	1	584	9	2	2	0.3142	0.2463	0	0	0.519	0	82	82
40	1	585	0	2	3	0.3142	0.2463	0	1	0.660	7	82	82
40	1	586	1	2	2	0.3142	0.2463	1	1	0.523	83	82	0
40	1	587	9	1	3	0.3142	0.2463	1	1	0.711	0	0	82
40	1	588	1	2	1	0.3142	0.2463	1	1	0.420	93	82	0
40	1	589	1	1	1	0.3142	0.2463	1	1	0.461	89	0	82
40	1	590	0	1	1	0.3142	0.2463	0	1	0.478	9	82	82
40	1	591	0	1	1	0.3142	0.2463	1	0	0.686	0	82	0
40	1	592	0	1	1	0.3142	0.2463	1	1	1.405	5	82	0
40	1	593	0	1	1	0.3142	0.2463	0	1	0.542	8	82	82
40	1	594	0	2	1	0.3142	0.2463	1	1	1.564	5	0	82
40	1	595	9	2	2	0.3142	0.2463	1	1	0.673	0	82	0
40	1	596	0	2	3	0.3142	0.2463	0	1	0.840	5	82	82
40	1	597	1	1	1	0.3142	0.2463	0	1	0.481	87	0	0
40	1	598	0	1	3	0.3142	0.2463	0	1	0.537	8	82	82
40	1	599	0	2	2	0.3142	0.2463	0	1	0.829	5	82	82
40	1	600	1	2	3	0.3142	0.2463	1	1	0.533	82	82	0
40	1	601	1	1	2	0.3142	0.2463	1	1	0.861	50	0	82
40	1	602	0	2	2	0.3142	0.2463	0	1	0.716	6	82	82
40	1	603	0	2	3	0.3142	0.2463	1	1	0.745	6	0	82
40	1	604	0	2	3	0.3142	0.2463	1	1	0.556	8	0	82
40	1	605	9	2	2	0.3142	0.2463	0	0	0.743	0	0	0
40	1	606	1	1	1	0.3142	0.2463	0	1	0.556	79	0	0
40	1	607	0	1	1	0.3142	0.2463	0	1	0.438	9	82	82
40	1	608	1	1	2	0.3142	0.2463	1	1	0.461	89	0	82
40	1	609	1	1	3	0.3142	0.2463	0	1	0.526	82	0	0
40	1	610	9	1	1	0.3142	0.2463	0	1	0.434	0	0	0
40	1	611	0	1	3	0.3142	0.2463	0	1	0.451	9	82	82
40	1	612	1	2	3	0.3142	0.2463	1	1	0.436	91	82	0
40	1	613	1	2	2	0.3142	0.2463	1	1	0.420	93	82	0
40	1	614	1	2	1	0.3142	0.2463	1	1	0.407	94	82	0
40	1	615	1	2	3	0.3142	0.2463	1	1	0.457	89	82	0
40	1	616	0	2	2	0.3142	0.2463	0	0	0.424	0	82	82
40	1	617	1	1	1	0.3142	0.2463	1	1	0.670	68	0	82
40	1	618	9	1	1	0.3142	0.2463	1	1	0.975	0	82	0
40	1	619	1	1	1	0.3142	0.2463	0	1	0.467	88	0	0
40	1	620	1	1	1	0.3142	0.2463	0	1	0.498	85	0	0
40	1	621	9	1	1	0.3142	0.2463	1	1	0.464	0	0	82
40	1	622	1	2	2	0.3142	0.2463	1	1	0.430	92	82	0
40	1	623	0	1	2	0.3142	0.2463	0	1	0.590	8	82	82
40	1	624	9	1	2	0.3142	0.2463	0	1	0.417	0	0	0
40	1	625	9	1	1	0.3142	0.2463	1	0	0.611	0	82	0
40	1	626	0	2	2	0.3142	0.2463	1	1	0.948	5	0	82
40	1	627	1	1	1	0.3142	0.2463	1	1	0.439	91	0	82
40	1	628	9	1	3	0.3142	0.2463	1	1	0.615	0	82	0
40	1	629	1	2	3	0.3142	0.2463	1	1	0.657	69	82	0
40	1	630	9	1	3	0.3142	0.2463	1	1	0.466	0	0	82
40	1	631	1	1	1	0.3142	0.2463	0	1	0.537	81	0	0
40	1	632	0	2	2	0.3142	0.2463	1	1	0.733	6	0	82
40	1	633	1	1	1	0.3142	0.2463	1	1	0.618	73	0	82
40	1	634	0	2	2	0.3142	0.2463	0	1	0.617	7	82	82
40	1	635	9	2	3	0.3142	0.2463	1	1	0.626	0	0	82
40	1	636	0	2	2	0.3142	0.2463	1	1	0.561	8	0	82
40	1	637	0	2	2	0.3142	0.2463	0	1	0.699	7	82	82
40	1	638	1	2	3	0.3142	0.2463	0	1	0.840	51	0	0
40	1	639	9	2	3	0.3142	0.2463	1	1	0.520	0	82	0
40	1	640	1	1	3	0.3142	0.2463	0	1	0.639	71	0	0
40	1	641	1	1	1	0.3142	0.2463	1	1	0.402	95	0	82
40	1	642	0	2	1	0.3142	0.2463	0	1	0.675	7	82	82
40	1	643	0	1	3	0.3142	0.2463	1	1	0.675	7	82	0
40	1	644	1	1	2	0.3142	0.2463	0	1	0.400	95	0	0
40	1	645	0	1	3	0.3142	0.2463	0	1	0.434	9	82	82
40	1	646	9	2	3	0.3142	0.2463	0	1	0.514	0	0	0
40	1	647	0	1	2	0.3142	0.2463	1	1	0.561	8	82	0
40	1	648	1	1	1	0.3142	0.2463	1	1	0.444	91	0	82
40	1	649	1	1	3	0.3142	0.2463	0	1	0.412	94	0	0
40	1	650	1	1	1	0.3142	0.2463	0	1	0.422	93	0	0
40	1	651	0	1	1	0.3142	0.2463	0	1	0.448	9	82	82
40	1	652	9	1	3	0.3142	0.2463	1	1	0.455	0	82	0
40	1	653	1	1	3	0.3142	0.2463	0	1	0.485	86	0	0
40	1	654	9	1	1	0.3142	0.2463	0	1	0.413	0	82	82
40	1	655	1	2	3	0.3142	0.2463	1	1	0.573	78	82	0
40	1	656	0	2	2	0.3142	0.2463	1	1	0.648	7	0	82
40	1	657	1	1	3	0.3142	0.2463	1	1	0.598	75	0	82
40	1	658	0	1	1	0.3142	0.2463	0	1	0.351	10	82	82
40	1	659	0	2	2	0.3142	0.2463	1	1	0.753	6	0	82
40	1	660	0	2	3	0.3142	0.2463	1	1	0.587	8	0	82
40	1	661	1	2	3	0.3142	0.2463	1	1	0.642	71	82	0
40	1	662	0	1	3	0.3142	0.2463	1	1	0.513	8	82	0
40	1	663	1	2	3	0.3142	0.2463	0	0	1.029	0	0	0
40	1	664	1	2	2	0.3142	0.2463	0	1	0.543	81	0	0
40	1	665	1	2	2	0.3142	0.2463	0	1	0.772	58	0	0
40	1	666	1	2	2	0.3142	0.2463	0	1	0.661	69	0	0
40	1	667	0	2	3	0.3142	0.2463	1	1	0.522	8	0	82
40	1	668	9	2	1	0.3142	0.2463	1	1	0.535	0	0	82
40	1	669	0	1	3	0.3142	0.2463	1	1	0.770	6	82	0
40	1	670	0	2	3	0.3142	0.2463	1	1	0.614	7	0	82
40	1	671	9	2	2	0.3142	0.2463	1	1	0.596	0	0	82
40	1	672	1	2	3	0.3142	0.2463	0	0	0.542	0	0	0
40	1	673	1	2	3	0.3142	0.2463	0	1	0.457	89	0	0
40	1	674	0	2	2	0.3142	0.2463	1	1	0.447	9	0	82
40	1	675	9	1	1	0.3142	0.2463	1	1	0.558	0	0	82
40	1	676	1	2	2	0.3142	0.2463	0	1	0.786	56	0	0
40	1	677	1	2	3	0.3142	0.2463	0	1	1.005	50	0	0
40	1	678	0	1	3	0.3142	0.2463	0	1	0.581	8	82	82
40	1	679	0	2	2	0.3142	0.2463	1	1	0.664	7	0	82
40	1	680	1	2	2	0.3142	0.2463	1	1	0.469	88	82	0
40	1	681	9	1	3	0.3142	0.2463	1	1	0.485	0	0	82
40	1	682	0	2	3	0.3142	0.2463	0	1	0.835	5	82	82
40	1	683	1	1	3	0.3142	0.2463	1	1	0.413	94	0	82
40	1	684	0	2	2	0.3142	0.2463	0	1	0.517	8	82	82
40	1	685	0	1	1	0.3142	0.2463	0	1	0.539	8	82	82
40	1	686	0	1	3	0.3142	0.2463	1	0	0.673	0	82	0
40	1	687	1	1	1	0.3142	0.2463	1	1	0.398	95	0	82
40	1	688	0	2	3	0.3142	0.2463	1	1	0.970	5	0	82
40	1	689	0	1	1	0.3142	0.2463	0	1	0.469	9	82	82
40	1	690	0	2	3	0.3142	0.2463	1	1	0.715	6	0	82
40	1	691	1	2	2	0.3142	0.2463	1	1	0.552	80	82	0
40	1	692	1	2	3	0.3142	0.2463	0	1	0.779	57	0	0
40	1	693	9	1	3	0.3142	0.2463	0	1	0.452	0	0	0
40	1	694	0	1	1	0.3142	0.2463	1	1	1.387	5	82	0
40	1	695	1	2	3	0.3142	0.2463	0	1	0.670	68	0	0
40	1	696	0	1	1	0.3142	0.2463	1	1	1.082	5	82	0
40	1	697	1	2	3	0.3142	0.2463	0	0	1.034	0	0	0
40	1	698	0	1	3	0.3142	0.2463	0	1	0.908	5	82	82
40	1	699	0	2	1	0.3142	0.2463	0	1	1.323	5	82	82
40	1	700	1	1	1	0.3142	0.2463	0	1	0.487	86	0	0
40	1	701	0	1	1	0.3142	0.2463	0	1	0.543	8	82	82
40	1	702	1	1	1	0.3142	0.2463	1	1	0.433	92	0	82
40	1	703	0	2	3	0.3142	0.2463	0	1	0.786	6	82	82
40	1	704	1	1	3	0.3142	0.2463	0	1	0.435	92	0	0
40	1	705	1	1	1	0.3142	0.2463	0	1	0.420	93	0	0
40	1	706	0	1	1	0.3142	0.2463	0	1	0.395	10	82	82
40	1	707	1	1	1	0.3142	0.2463	1	1	0.507	84	0	82
40	1	708	1	2	2	0.3142	0.2463	1	1	0.496	85	82	0
40	1	709	0	2	3	0.3142	0.2463	1	1	0.975	5	0	82
40	1	710	1	1	1	0.3142	0.2463	0	1	0.402	95	0	0
40	1	711	0	2	3	0.3142	0.2463	1	1	0.706	6	0	82
40	1	712	0	1	3	0.3142	0.2463	1	1	0.895	5	82	0
40	1	713	0	2	2	0.3142	0.2463	0	1	0.799	6	82	82
40	1	714	1	2	3	0.3142	0.2463	0	0	1.441	0	0	0
40	1	715	1	2	3	0.3142	0.2463	0	1	0.619	73	0	0
40	1	716	1	2	2	0.3142	0.2463	0	0	0.746	0	0	0
40	1	717	9	2	2	0.3142	0.2463	1	1	2.059	0	82	0
40	1	718	0	2	3	0.3142	0.2463	0	0	0.956	0	82	82
40	1	719	0	1	1	0.3142	0.2463	1	1	0.655	7	82	0
40	1	720	1	2	3	0.3142	0.2463	0	1	1.086	50	0	0
