sub	sess	t	rew	loc	cue	co1	co2	or	resp	rt	rew_tot	left_col	right_col
126	1	1	1	2	2	0.2119	0.0962	0	1	1.245	50	0	0
126	1	2	1	1	1	0.2119	0.0962	1	1	0.910	50	0	82
126	1	3	0	1	2	0.2119	0.0962	1	1	0.634	7	82	0
126	1	4	0	2	2	0.2119	0.0962	1	1	1.046	5	0	82
126	1	5	1	2	2	0.2119	0.0962	1	1	0.854	50	82	0
126	1	6	0	1	3	0.2119	0.0962	1	1	0.842	5	82	0
126	1	7	1	2	2	0.2119	0.0962	0	1	0.765	58	0	0
126	1	8	0	1	1	0.2119	0.0962	1	1	0.678	7	82	0
126	1	9	1	2	3	0.2119	0.0962	1	1	1.145	50	82	0
126	1	10	0	2	3	0.2119	0.0962	1	1	0.667	7	0	82
126	1	11	0	1	2	0.2119	0.0962	1	1	0.680	7	82	0
126	1	12	1	1	3	0.2119	0.0962	1	1	0.481	87	0	82
126	1	13	1	2	2	0.2119	0.0962	0	1	0.544	81	0	0
126	1	14	9	2	1	0.2119	0.0962	1	1	0.671	0	82	0
126	1	15	0	2	2	0.2119	0.0962	1	1	0.967	5	0	82
126	1	16	9	1	2	0.2119	0.0962	0	1	0.617	0	82	82
126	1	17	1	1	1	0.2119	0.0962	0	1	0.512	84	0	0
126	1	18	0	2	2	0.2119	0.0962	1	1	0.758	6	0	82
126	1	19	1	2	3	0.2119	0.0962	0	0	0.613	0	0	0
126	1	20	9	2	3	0.2119	0.0962	1	1	1.001	0	0	82
126	1	21	9	1	3	0.2119	0.0962	1	1	0.872	0	0	82
126	1	22	0	1	3	0.2119	0.0962	0	1	0.674	7	82	82
126	1	23	0	2	3	0.2119	0.0962	0	1	0.710	6	82	82
126	1	24	1	2	3	0.2119	0.0962	1	1	0.534	82	82	0
126	1	25	1	2	3	0.2119	0.0962	1	1	0.521	83	82	0
126	1	26	9	1	1	0.2119	0.0962	0	1	0.638	0	0	0
126	1	27	1	2	2	0.2119	0.0962	0	1	0.690	66	0	0
126	1	28	0	2	2	0.2119	0.0962	0	1	0.588	8	82	82
126	1	29	0	2	2	0.2119	0.0962	1	1	0.546	8	0	82
126	1	30	0	1	2	0.2119	0.0962	1	1	0.815	5	82	0
126	1	31	0	2	2	0.2119	0.0962	0	1	0.557	8	82	82
126	1	32	1	2	2	0.2119	0.0962	1	1	0.701	65	82	0
126	1	33	1	1	1	0.2119	0.0962	0	1	0.778	57	0	0
126	1	34	1	1	3	0.2119	0.0962	0	1	0.736	61	0	0
126	1	35	0	1	3	0.2119	0.0962	0	1	0.755	6	82	82
126	1	36	0	2	2	0.2119	0.0962	1	1	0.675	7	0	82
126	1	37	0	1	1	0.2119	0.0962	1	1	0.771	6	82	0
126	1	38	1	1	1	0.2119	0.0962	1	1	0.516	83	0	82
126	1	39	0	1	1	0.2119	0.0962	1	1	0.523	8	82	0
126	1	40	0	2	2	0.2119	0.0962	0	1	0.616	7	82	82
126	1	41	1	2	3	0.2119	0.0962	0	0	0.806	0	0	0
126	1	42	0	2	3	0.2119	0.0962	0	0	0.702	0	82	82
126	1	43	0	1	3	0.2119	0.0962	1	0	0.716	0	82	0
126	1	44	0	2	1	0.2119	0.0962	1	1	1.174	5	0	82
126	1	45	0	1	3	0.2119	0.0962	1	1	0.673	7	82	0
126	1	46	0	1	2	0.2119	0.0962	0	1	0.685	7	82	82
126	1	47	0	2	2	0.2119	0.0962	0	1	0.735	6	82	82
126	1	48	0	2	3	0.2119	0.0962	0	0	1.111	0	82	82
126	1	49	9	2	3	0.2119	0.0962	1	1	0.724	0	82	0
126	1	50	9	2	2	0.2119	0.0962	0	1	0.544	0	82	82
126	1	51	9	2	3	0.2119	0.0962	0	1	0.550	0	82	82
126	1	52	1	1	3	0.2119	0.0962	1	1	0.683	67	0	82
126	1	53	9	2	3	0.2119	0.0962	0	1	0.787	0	0	0
126	1	54	0	2	2	0.2119	0.0962	0	1	0.988	5	82	82
126	1	55	0	2	3	0.2119	0.0962	1	1	0.527	8	0	82
126	1	56	0	1	1	0.2119	0.0962	1	0	0.722	0	82	0
126	1	57	1	2	1	0.2119	0.0962	1	1	1.284	50	82	0
126	1	58	0	2	3	0.2119	0.0962	1	1	0.526	8	0	82
126	1	59	1	1	3	0.2119	0.0962	0	1	0.661	69	0	0
126	1	60	1	1	3	0.2119	0.0962	0	1	0.645	71	0	0
126	1	61	0	1	1	0.2119	0.0962	0	1	0.611	7	82	82
126	1	62	0	2	3	0.2119	0.0962	1	1	0.716	6	0	82
126	1	63	9	2	3	0.2119	0.0962	1	1	0.699	0	82	0
126	1	64	0	1	1	0.2119	0.0962	0	0	0.564	0	82	82
126	1	65	1	1	3	0.2119	0.0962	1	1	1.002	50	0	82
126	1	66	1	2	2	0.2119	0.0962	0	1	0.728	62	0	0
126	1	67	0	2	2	0.2119	0.0962	1	1	0.913	5	0	82
126	1	68	1	2	2	0.2119	0.0962	0	1	0.663	69	0	0
126	1	69	1	2	2	0.2119	0.0962	1	1	0.817	53	82	0
126	1	70	9	1	3	0.2119	0.0962	0	1	1.942	0	82	82
126	1	71	1	2	2	0.2119	0.0962	0	1	0.718	63	0	0
126	1	72	1	2	3	0.2119	0.0962	0	1	0.668	68	0	0
126	1	73	9	1	1	0.2119	0.0962	0	1	0.715	0	0	0
126	1	74	1	1	3	0.2119	0.0962	0	1	0.613	74	0	0
126	1	75	0	2	2	0.2119	0.0962	0	1	0.529	8	82	82
126	1	76	9	2	2	0.2119	0.0962	0	1	0.901	0	0	0
126	1	77	1	2	3	0.2119	0.0962	0	1	0.685	67	0	0
126	1	78	1	1	3	0.2119	0.0962	1	1	0.905	50	0	82
126	1	79	9	1	3	0.2119	0.0962	1	1	0.649	0	0	82
126	1	80	0	2	3	0.2119	0.0962	0	1	0.882	5	82	82
126	1	81	1	2	2	0.2119	0.0962	0	1	0.507	84	0	0
126	1	82	1	1	2	0.2119	0.0962	1	1	0.646	70	0	82
126	1	83	0	1	3	0.2119	0.0962	1	1	0.644	7	82	0
126	1	84	1	2	3	0.2119	0.0962	1	1	0.901	50	82	0
126	1	85	1	1	1	0.2119	0.0962	0	1	0.945	50	0	0
126	1	86	1	2	2	0.2119	0.0962	1	1	0.752	60	82	0
126	1	87	1	1	1	0.2119	0.0962	1	1	0.661	69	0	82
126	1	88	1	1	3	0.2119	0.0962	0	1	0.899	50	0	0
126	1	89	1	2	3	0.2119	0.0962	0	1	0.672	68	0	0
126	1	90	0	1	3	0.2119	0.0962	0	1	0.685	7	82	82
126	1	91	0	1	1	0.2119	0.0962	1	1	1.248	5	82	0
126	1	92	9	1	3	0.2119	0.0962	1	1	0.652	0	82	0
126	1	93	9	2	2	0.2119	0.0962	0	1	0.802	0	82	82
126	1	94	0	2	2	0.2119	0.0962	0	1	0.570	8	82	82
126	1	95	9	1	3	0.2119	0.0962	1	1	0.668	0	82	0
126	1	96	9	1	3	0.2119	0.0962	0	1	1.107	0	82	82
126	1	97	0	2	1	0.2119	0.0962	0	1	0.698	7	82	82
126	1	98	9	2	2	0.2119	0.0962	1	1	0.925	0	0	82
126	1	99	1	1	2	0.2119	0.0962	0	1	0.912	50	0	0
126	1	100	1	2	3	0.2119	0.0962	0	1	0.659	69	0	0
126	1	101	0	2	2	0.2119	0.0962	1	1	0.646	7	0	82
126	1	102	0	2	2	0.2119	0.0962	1	1	0.494	9	0	82
126	1	103	9	2	2	0.2119	0.0962	0	1	0.680	0	82	82
126	1	104	9	2	2	0.2119	0.0962	1	1	0.539	0	82	0
126	1	105	0	2	1	0.2119	0.0962	0	1	0.717	6	82	82
126	1	106	0	2	1	0.2119	0.0962	0	0	0.889	0	82	82
126	1	107	1	2	3	0.2119	0.0962	0	1	0.623	73	0	0
126	1	108	1	2	2	0.2119	0.0962	1	1	0.493	86	82	0
126	1	109	9	2	2	0.2119	0.0962	1	1	0.584	0	82	0
126	1	110	0	2	2	0.2119	0.0962	0	1	0.631	7	82	82
126	1	111	1	1	1	0.2119	0.0962	0	1	0.726	62	0	0
126	1	112	9	2	3	0.2119	0.0962	0	1	0.669	0	0	0
126	1	113	0	1	3	0.2119	0.0962	0	1	0.728	6	82	82
126	1	114	1	2	1	0.2119	0.0962	1	1	0.769	58	82	0
126	1	115	9	1	1	0.2119	0.0962	0	1	0.646	0	82	82
126	1	116	1	2	1	0.2119	0.0962	1	1	0.629	72	82	0
126	1	117	9	2	3	0.2119	0.0962	0	1	0.842	0	82	82
126	1	118	1	2	3	0.2119	0.0962	1	0	1.042	0	82	0
126	1	119	0	1	1	0.2119	0.0962	0	1	0.670	7	82	82
126	1	120	0	1	1	0.2119	0.0962	1	1	0.731	6	82	0
126	1	121	9	1	1	0.2119	0.0962	0	1	1.090	0	0	0
126	1	122	1	2	3	0.2119	0.0962	0	1	0.551	80	0	0
126	1	123	9	2	3	0.2119	0.0962	1	1	0.480	0	0	82
126	1	124	9	2	3	0.2119	0.0962	0	0	0.502	0	0	0
126	1	125	1	1	1	0.2119	0.0962	0	1	0.560	79	0	0
126	1	126	0	1	1	0.2119	0.0962	1	1	0.755	6	82	0
126	1	127	1	2	2	0.2119	0.0962	1	1	0.526	82	82	0
126	1	128	0	2	3	0.2119	0.0962	0	0	0.836	0	82	82
126	1	129	0	1	3	0.2119	0.0962	0	1	0.581	8	82	82
126	1	130	0	2	2	0.2119	0.0962	1	1	0.700	6	0	82
126	1	131	0	1	1	0.2119	0.0962	0	1	0.607	7	82	82
126	1	132	0	1	3	0.2119	0.0962	1	1	0.650	7	82	0
126	1	133	0	1	3	0.2119	0.0962	0	1	0.526	8	82	82
126	1	134	0	2	3	0.2119	0.0962	0	1	0.608	7	82	82
126	1	135	1	1	3	0.2119	0.0962	0	1	0.474	88	0	0
126	1	136	1	2	3	0.2119	0.0962	1	1	0.667	68	82	0
126	1	137	1	1	3	0.2119	0.0962	0	1	0.519	83	0	0
126	1	138	0	1	2	0.2119	0.0962	0	1	0.622	7	82	82
126	1	139	9	1	2	0.2119	0.0962	1	1	0.517	0	0	82
126	1	140	1	1	2	0.2119	0.0962	0	1	0.508	84	0	0
126	1	141	1	1	1	0.2119	0.0962	0	1	0.919	50	0	0
126	1	142	1	2	3	0.2119	0.0962	0	1	0.800	55	0	0
126	1	143	1	2	3	0.2119	0.0962	1	1	0.570	78	82	0
126	1	144	1	2	2	0.2119	0.0962	0	1	0.624	73	0	0
126	1	145	1	1	1	0.2119	0.0962	0	1	0.589	76	0	0
126	1	146	1	1	3	0.2119	0.0962	1	1	0.609	74	0	82
126	1	147	1	2	3	0.2119	0.0962	0	1	0.700	65	0	0
126	1	148	1	2	2	0.2119	0.0962	0	1	0.588	76	0	0
126	1	149	9	1	3	0.2119	0.0962	0	1	0.661	0	0	0
126	1	150	1	1	1	0.2119	0.0962	1	1	0.650	70	0	82
126	1	151	1	1	1	0.2119	0.0962	1	1	0.532	82	0	82
126	1	152	1	2	3	0.2119	0.0962	1	1	0.649	70	82	0
126	1	153	1	2	2	0.2119	0.0962	0	1	0.757	59	0	0
126	1	154	9	2	2	0.2119	0.0962	0	1	0.699	0	0	0
126	1	155	0	2	2	0.2119	0.0962	0	1	0.642	7	82	82
126	1	156	9	2	3	0.2119	0.0962	0	1	0.727	0	0	0
126	1	157	1	1	1	0.2119	0.0962	0	1	0.613	74	0	0
126	1	158	1	1	1	0.2119	0.0962	1	1	0.760	59	0	82
126	1	159	9	2	2	0.2119	0.0962	1	1	0.691	0	0	82
126	1	160	9	1	1	0.2119	0.0962	0	1	0.660	0	0	0
126	1	161	0	2	3	0.2119	0.0962	0	1	0.555	8	82	82
126	1	162	0	2	3	0.2119	0.0962	1	0	0.737	0	0	82
126	1	163	0	2	3	0.2119	0.0962	0	1	0.585	8	82	82
126	1	164	0	2	3	0.2119	0.0962	1	1	0.630	7	0	82
126	1	165	0	2	3	0.2119	0.0962	1	1	0.421	9	0	82
126	1	166	1	1	1	0.2119	0.0962	0	1	0.986	50	0	0
126	1	167	1	1	2	0.2119	0.0962	1	1	1.129	50	0	82
126	1	168	0	1	1	0.2119	0.0962	1	0	0.584	0	82	0
126	1	169	0	2	2	0.2119	0.0962	0	1	0.635	7	82	82
126	1	170	9	1	1	0.2119	0.0962	1	1	0.543	0	0	82
126	1	171	0	2	3	0.2119	0.0962	1	1	0.910	5	0	82
126	1	172	1	2	2	0.2119	0.0962	1	1	0.728	62	82	0
126	1	173	9	2	3	0.2119	0.0962	1	1	0.559	0	82	0
126	1	174	0	1	1	0.2119	0.0962	0	1	0.577	8	82	82
126	1	175	0	1	3	0.2119	0.0962	0	1	0.637	7	82	82
126	1	176	1	1	2	0.2119	0.0962	0	1	0.600	75	0	0
126	1	177	0	2	2	0.2119	0.0962	0	0	0.486	0	82	82
126	1	178	0	1	3	0.2119	0.0962	0	1	0.698	7	82	82
126	1	179	1	2	2	0.2119	0.0962	0	1	0.607	74	0	0
126	1	180	9	2	3	0.2119	0.0962	1	1	0.479	0	0	82
126	1	181	0	1	3	0.2119	0.0962	0	1	0.658	7	82	82
126	1	182	0	2	3	0.2119	0.0962	1	1	0.460	9	0	82
126	1	183	1	1	3	0.2119	0.0962	0	1	0.826	52	0	0
126	1	184	1	2	3	0.2119	0.0962	1	1	0.426	92	82	0
126	1	185	9	1	1	0.2119	0.0962	1	0	0.745	0	82	0
126	1	186	1	2	2	0.2119	0.0962	1	1	0.526	82	82	0
126	1	187	0	2	3	0.2119	0.0962	1	1	0.770	6	0	82
126	1	188	1	2	2	0.2119	0.0962	1	1	0.590	76	82	0
126	1	189	9	2	3	0.2119	0.0962	1	1	0.659	0	0	82
126	1	190	1	2	2	0.2119	0.0962	1	1	0.624	73	82	0
126	1	191	9	2	2	0.2119	0.0962	1	0	0.959	0	0	82
126	1	192	0	1	2	0.2119	0.0962	0	0	0.578	0	82	82
126	1	193	0	1	1	0.2119	0.0962	0	1	0.688	7	82	82
126	1	194	0	2	3	0.2119	0.0962	0	0	1.175	0	82	82
126	1	195	0	1	1	0.2119	0.0962	1	1	0.880	5	82	0
126	1	196	0	2	1	0.2119	0.0962	1	0	0.853	0	0	82
126	1	197	9	1	3	0.2119	0.0962	1	1	0.689	0	0	82
126	1	198	0	2	3	0.2119	0.0962	1	1	0.778	6	0	82
126	1	199	0	1	3	0.2119	0.0962	1	1	0.630	7	82	0
126	1	200	1	2	2	0.2119	0.0962	0	1	0.620	73	0	0
126	1	201	0	2	2	0.2119	0.0962	0	1	0.702	6	82	82
126	1	202	9	2	2	0.2119	0.0962	0	1	0.586	0	0	0
126	1	203	9	2	3	0.2119	0.0962	1	1	0.465	0	82	0
126	1	204	1	1	1	0.2119	0.0962	1	1	0.571	78	0	82
126	1	205	1	1	3	0.2119	0.0962	1	1	0.449	90	0	82
126	1	206	1	1	1	0.2119	0.0962	0	1	0.489	86	0	0
126	1	207	0	1	3	0.2119	0.0962	1	1	0.644	7	82	0
126	1	208	0	2	1	0.2119	0.0962	1	1	0.558	8	0	82
126	1	209	9	2	2	0.2119	0.0962	1	1	0.447	0	0	82
126	1	210	0	1	3	0.2119	0.0962	1	1	0.592	8	82	0
126	1	211	9	2	3	0.2119	0.0962	0	0	0.515	0	82	82
126	1	212	9	2	3	0.2119	0.0962	0	1	0.336	0	82	82
126	1	213	9	1	1	0.2119	0.0962	1	1	0.313	0	0	82
126	1	214	1	1	1	0.2119	0.0962	0	0	0.474	0	0	0
126	1	215	1	1	1	0.2119	0.0962	1	1	0.437	91	0	82
126	1	216	1	2	3	0.2119	0.0962	0	1	0.709	64	0	0
126	1	217	1	2	2	0.2119	0.0962	1	1	0.716	63	82	0
126	1	218	1	2	2	0.2119	0.0962	1	1	0.495	86	82	0
126	1	219	1	1	2	0.2119	0.0962	0	1	0.498	85	0	0
126	1	220	0	1	1	0.2119	0.0962	1	0	0.262	0	82	0
126	1	221	0	1	3	0.2119	0.0962	1	0	0.397	0	82	0
126	1	222	0	2	1	0.2119	0.0962	1	1	0.687	7	0	82
126	1	223	1	2	2	0.2119	0.0962	0	1	0.598	75	0	0
126	1	224	0	1	1	0.2119	0.0962	1	0	0.440	0	82	0
126	1	225	1	1	3	0.2119	0.0962	1	1	0.543	81	0	82
126	1	226	1	1	3	0.2119	0.0962	1	1	0.470	88	0	82
126	1	227	1	2	3	0.2119	0.0962	0	1	0.731	62	0	0
126	1	228	0	2	3	0.2119	0.0962	1	0	0.646	0	0	82
126	1	229	0	1	1	0.2119	0.0962	0	0	0.524	0	82	82
126	1	230	0	1	1	0.2119	0.0962	1	1	0.694	7	82	0
126	1	231	1	2	1	0.2119	0.0962	0	1	0.622	73	0	0
126	1	232	0	2	2	0.2119	0.0962	1	1	0.600	8	0	82
126	1	233	0	1	3	0.2119	0.0962	1	1	0.551	8	82	0
126	1	234	0	1	1	0.2119	0.0962	0	1	0.478	9	82	82
126	1	235	1	2	1	0.2119	0.0962	0	0	0.452	0	0	0
126	1	236	9	2	2	0.2119	0.0962	0	0	0.302	0	0	0
126	1	237	1	2	3	0.2119	0.0962	1	1	0.412	94	82	0
126	1	238	0	2	2	0.2119	0.0962	0	0	0.495	0	82	82
126	1	239	0	2	3	0.2119	0.0962	0	0	0.388	0	82	82
126	1	240	0	1	2	0.2119	0.0962	1	1	0.736	6	82	0
126	1	241	9	1	3	0.2119	0.0962	0	1	0.549	0	82	82
126	1	242	1	1	1	0.2119	0.0962	1	1	0.436	91	0	82
126	1	243	1	1	1	0.2119	0.0962	0	0	0.520	0	0	0
126	1	244	0	1	1	0.2119	0.0962	0	1	0.320	10	82	82
126	1	245	0	1	3	0.2119	0.0962	1	0	0.406	0	82	0
126	1	246	9	1	1	0.2119	0.0962	0	0	0.444	0	82	82
126	1	247	0	2	1	0.2119	0.0962	0	0	0.575	0	82	82
126	1	248	1	1	3	0.2119	0.0962	1	1	0.584	77	0	82
126	1	249	1	2	3	0.2119	0.0962	0	1	0.688	66	0	0
126	1	250	9	1	3	0.2119	0.0962	0	1	0.668	0	0	0
126	1	251	1	1	3	0.2119	0.0962	0	1	0.468	88	0	0
126	1	252	0	2	2	0.2119	0.0962	1	1	0.769	6	0	82
126	1	253	0	1	3	0.2119	0.0962	0	0	1.049	0	82	82
126	1	254	0	1	3	0.2119	0.0962	1	1	3.802	5	82	0
126	1	255	1	1	1	0.2119	0.0962	1	1	0.554	80	0	82
126	1	256	1	1	1	0.2119	0.0962	1	1	0.493	86	0	82
126	1	257	0	1	1	0.2119	0.0962	0	1	0.448	9	82	82
126	1	258	0	2	2	0.2119	0.0962	1	1	0.372	10	0	82
126	1	259	1	2	3	0.2119	0.0962	0	0	0.501	0	0	0
126	1	260	0	2	3	0.2119	0.0962	1	1	0.577	8	0	82
126	1	261	1	1	1	0.2119	0.0962	1	1	0.389	96	0	82
126	1	262	0	1	3	0.2119	0.0962	0	1	0.386	10	82	82
126	1	263	1	2	3	0.2119	0.0962	1	1	0.457	89	82	0
126	1	264	0	1	1	0.2119	0.0962	0	1	0.462	9	82	82
126	1	265	1	1	1	0.2119	0.0962	1	0	0.553	0	0	82
126	1	266	0	1	2	0.2119	0.0962	0	1	0.454	9	82	82
126	1	267	1	1	3	0.2119	0.0962	1	1	0.581	77	0	82
126	1	268	1	1	3	0.2119	0.0962	0	0	0.673	0	0	0
126	1	269	1	1	3	0.2119	0.0962	1	0	0.272	0	0	82
126	1	270	0	2	2	0.2119	0.0962	0	0	0.616	0	82	82
126	1	271	0	2	2	0.2119	0.0962	0	1	0.422	9	82	82
126	1	272	1	1	3	0.2119	0.0962	0	1	0.751	60	0	0
126	1	273	9	1	3	0.2119	0.0962	0	1	0.470	0	82	82
126	1	274	9	1	1	0.2119	0.0962	0	1	0.470	0	82	82
126	1	275	1	2	1	0.2119	0.0962	0	1	0.726	62	0	0
126	1	276	1	1	1	0.2119	0.0962	0	1	0.563	79	0	0
126	1	277	0	2	2	0.2119	0.0962	1	1	0.641	7	0	82
126	1	278	0	2	3	0.2119	0.0962	0	1	0.763	6	82	82
126	1	279	1	2	1	0.2119	0.0962	0	1	0.489	86	0	0
126	1	280	1	1	2	0.2119	0.0962	1	1	1.234	50	0	82
126	1	281	9	2	1	0.2119	0.0962	1	1	0.728	0	0	82
126	1	282	1	1	3	0.2119	0.0962	0	1	0.639	71	0	0
126	1	283	0	1	1	0.2119	0.0962	1	1	0.595	8	82	0
126	1	284	9	2	2	0.2119	0.0962	0	1	0.682	0	82	82
126	1	285	9	1	3	0.2119	0.0962	1	1	0.417	0	0	82
126	1	286	0	1	1	0.2119	0.0962	0	1	0.436	9	82	82
126	1	287	0	2	3	0.2119	0.0962	0	0	0.510	0	82	82
126	1	288	0	1	3	0.2119	0.0962	1	1	0.756	6	82	0
126	1	289	0	1	3	0.2119	0.0962	0	1	0.512	8	82	82
126	1	290	9	1	1	0.2119	0.0962	0	1	0.774	0	82	82
126	1	291	0	1	1	0.2119	0.0962	0	1	0.575	8	82	82
126	1	292	1	1	2	0.2119	0.0962	1	1	0.632	72	0	82
126	1	293	0	1	3	0.2119	0.0962	0	1	0.662	7	82	82
126	1	294	1	2	2	0.2119	0.0962	1	1	0.909	50	82	0
126	1	295	1	1	3	0.2119	0.0962	0	1	0.466	88	0	0
126	1	296	0	1	1	0.2119	0.0962	0	1	0.513	8	82	82
126	1	297	0	1	1	0.2119	0.0962	1	1	0.724	6	82	0
126	1	298	1	2	3	0.2119	0.0962	1	0	0.591	0	82	0
126	1	299	1	2	2	0.2119	0.0962	1	1	0.378	97	82	0
126	1	300	9	2	1	0.2119	0.0962	0	1	0.504	0	0	0
126	1	301	0	1	3	0.2119	0.0962	0	1	0.488	9	82	82
126	1	302	0	1	3	0.2119	0.0962	1	0	0.493	0	82	0
126	1	303	1	2	3	0.2119	0.0962	1	1	0.339	100	82	0
126	1	304	0	2	2	0.2119	0.0962	1	1	0.443	9	0	82
126	1	305	0	2	3	0.2119	0.0962	1	1	0.498	9	0	82
126	1	306	1	1	3	0.2119	0.0962	0	1	0.493	86	0	0
126	1	307	9	1	3	0.2119	0.0962	0	1	0.579	0	0	0
126	1	308	9	2	2	0.2119	0.0962	1	1	0.810	0	82	0
126	1	309	1	1	1	0.2119	0.0962	0	1	0.556	79	0	0
126	1	310	1	2	2	0.2119	0.0962	1	1	0.456	89	82	0
126	1	311	0	2	3	0.2119	0.0962	1	1	0.593	8	0	82
126	1	312	0	1	3	0.2119	0.0962	0	1	0.488	9	82	82
126	1	313	1	2	3	0.2119	0.0962	0	0	0.477	0	0	0
126	1	314	9	1	1	0.2119	0.0962	1	1	0.980	0	82	0
126	1	315	9	1	1	0.2119	0.0962	1	1	0.391	0	0	82
126	1	316	9	1	3	0.2119	0.0962	1	1	0.612	0	82	0
126	1	317	9	1	1	0.2119	0.0962	1	0	0.403	0	82	0
126	1	318	1	1	1	0.2119	0.0962	1	1	0.479	87	0	82
126	1	319	9	1	2	0.2119	0.0962	1	1	0.482	0	82	0
126	1	320	0	1	1	0.2119	0.0962	0	1	0.657	7	82	82
126	1	321	0	1	1	0.2119	0.0962	1	1	0.564	8	82	0
126	1	322	1	2	1	0.2119	0.0962	1	1	0.450	90	82	0
126	1	323	1	1	3	0.2119	0.0962	0	1	0.686	66	0	0
126	1	324	9	1	2	0.2119	0.0962	0	1	0.486	0	0	0
126	1	325	1	1	3	0.2119	0.0962	1	1	0.477	87	0	82
126	1	326	1	2	3	0.2119	0.0962	1	1	0.458	89	82	0
126	1	327	9	2	2	0.2119	0.0962	1	1	0.420	0	82	0
126	1	328	1	1	1	0.2119	0.0962	1	1	0.449	90	0	82
126	1	329	0	2	2	0.2119	0.0962	1	1	0.567	8	0	82
126	1	330	9	1	1	0.2119	0.0962	1	1	0.446	0	0	82
126	1	331	1	2	3	0.2119	0.0962	1	1	0.361	99	82	0
126	1	332	1	1	3	0.2119	0.0962	1	1	0.569	78	0	82
126	1	333	1	2	3	0.2119	0.0962	1	1	-0.077	100	82	0
126	1	334	0	2	2	0.2119	0.0962	1	1	0.386	10	0	82
126	1	335	1	1	1	0.2119	0.0962	0	0	0.498	0	0	0
126	1	336	1	1	3	0.2119	0.0962	1	1	0.491	86	0	82
126	1	337	0	2	3	0.2119	0.0962	0	0	0.730	0	82	82
126	1	338	1	2	2	0.2119	0.0962	1	1	0.636	71	82	0
126	1	339	1	2	2	0.2119	0.0962	0	1	0.561	79	0	0
126	1	340	0	1	3	0.2119	0.0962	1	1	0.680	7	82	0
126	1	341	1	2	2	0.2119	0.0962	0	1	0.760	59	0	0
126	1	342	0	1	3	0.2119	0.0962	0	1	0.744	6	82	82
126	1	343	1	1	3	0.2119	0.0962	1	1	0.490	86	0	82
126	1	344	9	1	3	0.2119	0.0962	1	1	0.633	0	82	0
126	1	345	1	1	3	0.2119	0.0962	1	1	0.423	93	0	82
126	1	346	0	2	3	0.2119	0.0962	0	1	0.741	6	82	82
126	1	347	1	1	1	0.2119	0.0962	1	1	0.538	81	0	82
126	1	348	0	1	1	0.2119	0.0962	0	1	0.571	8	82	82
126	1	349	0	1	3	0.2119	0.0962	1	1	0.463	9	82	0
126	1	350	0	2	3	0.2119	0.0962	0	0	0.354	0	82	82
126	1	351	9	1	1	0.2119	0.0962	1	1	0.538	0	82	0
126	1	352	9	2	1	0.2119	0.0962	0	1	0.732	0	82	82
126	1	353	1	2	3	0.2119	0.0962	0	0	0.792	0	0	0
126	1	354	0	1	1	0.2119	0.0962	1	1	1.460	5	82	0
126	1	355	9	1	3	0.2119	0.0962	0	1	0.768	0	0	0
126	1	356	0	2	2	0.2119	0.0962	0	1	0.722	6	82	82
126	1	357	1	1	1	0.2119	0.0962	0	1	0.707	64	0	0
126	1	358	1	1	3	0.2119	0.0962	0	1	1.168	50	0	0
126	1	359	0	2	3	0.2119	0.0962	0	1	0.786	6	82	82
126	1	360	0	2	3	0.2119	0.0962	1	1	0.907	5	0	82
126	1	361	0	2	2	0.2119	0.0962	1	1	1.059	5	0	82
126	1	362	1	2	2	0.2119	0.0962	1	1	0.566	78	82	0
126	1	363	0	2	2	0.2119	0.0962	0	0	0.696	0	82	82
126	1	364	0	1	1	0.2119	0.0962	1	1	0.621	7	82	0
126	1	365	1	2	2	0.2119	0.0962	0	0	0.013	0	0	0
126	1	366	1	2	2	0.2119	0.0962	1	1	0.483	87	82	0
126	1	367	1	2	3	0.2119	0.0962	1	1	0.535	82	82	0
126	1	368	1	2	3	0.2119	0.0962	0	1	0.530	82	0	0
126	1	369	0	1	1	0.2119	0.0962	0	1	0.792	6	82	82
126	1	370	0	1	1	0.2119	0.0962	0	1	0.628	7	82	82
126	1	371	9	1	3	0.2119	0.0962	1	1	0.614	0	0	82
126	1	372	9	1	3	0.2119	0.0962	0	1	0.769	0	0	0
126	1	373	9	1	1	0.2119	0.0962	1	1	0.528	0	0	82
126	1	374	1	2	3	0.2119	0.0962	1	1	0.668	68	82	0
126	1	375	0	1	3	0.2119	0.0962	0	1	1.155	5	82	82
126	1	376	0	1	1	0.2119	0.0962	0	1	0.637	7	82	82
126	1	377	1	2	2	0.2119	0.0962	0	0	0.578	0	0	0
126	1	378	1	1	3	0.2119	0.0962	0	1	0.574	78	0	0
126	1	379	0	1	3	0.2119	0.0962	0	1	0.650	7	82	82
126	1	380	1	1	1	0.2119	0.0962	0	1	0.622	73	0	0
126	1	381	0	2	3	0.2119	0.0962	1	1	0.477	9	0	82
126	1	382	0	2	1	0.2119	0.0962	0	1	0.529	8	82	82
126	1	383	1	2	3	0.2119	0.0962	0	1	0.649	70	0	0
126	1	384	9	1	3	0.2119	0.0962	1	1	0.707	0	0	82
126	1	385	0	2	2	0.2119	0.0962	0	0	0.615	0	82	82
126	1	386	0	1	3	0.2119	0.0962	1	0	0.636	0	82	0
126	1	387	0	2	2	0.2119	0.0962	0	0	0.661	0	82	82
126	1	388	9	2	2	0.2119	0.0962	1	1	1.003	0	82	0
126	1	389	0	2	1	0.2119	0.0962	0	1	0.935	5	82	82
126	1	390	0	1	1	0.2119	0.0962	1	1	0.706	6	82	0
126	1	391	1	1	3	0.2119	0.0962	1	1	0.483	87	0	82
126	1	392	1	2	2	0.2119	0.0962	0	1	0.882	50	0	0
126	1	393	0	2	2	0.2119	0.0962	1	0	0.758	0	0	82
126	1	394	1	2	2	0.2119	0.0962	0	1	1.029	50	0	0
126	1	395	1	1	1	0.2119	0.0962	1	1	0.852	50	0	82
126	1	396	1	2	2	0.2119	0.0962	1	1	0.634	72	82	0
126	1	397	9	1	3	0.2119	0.0962	1	1	0.780	0	82	0
126	1	398	9	1	3	0.2119	0.0962	0	1	0.600	0	82	82
126	1	399	1	1	2	0.2119	0.0962	1	1	0.635	71	0	82
126	1	400	1	1	3	0.2119	0.0962	1	1	0.539	81	0	82
126	1	401	9	2	1	0.2119	0.0962	0	0	0.709	0	82	82
126	1	402	0	2	1	0.2119	0.0962	1	0	0.580	0	0	82
126	1	403	0	1	3	0.2119	0.0962	1	1	0.677	7	82	0
126	1	404	1	2	2	0.2119	0.0962	0	0	0.691	0	0	0
126	1	405	1	2	2	0.2119	0.0962	1	1	0.627	72	82	0
126	1	406	1	2	3	0.2119	0.0962	0	1	0.766	58	0	0
126	1	407	0	1	1	0.2119	0.0962	1	1	0.614	7	82	0
126	1	408	0	1	3	0.2119	0.0962	0	1	0.721	6	82	82
126	1	409	0	1	1	0.2119	0.0962	0	1	0.700	6	82	82
126	1	410	0	2	2	0.2119	0.0962	0	0	0.657	0	82	82
126	1	411	1	2	1	0.2119	0.0962	0	1	0.604	75	0	0
126	1	412	1	1	3	0.2119	0.0962	1	1	0.542	81	0	82
126	1	413	1	2	2	0.2119	0.0962	0	1	0.693	66	0	0
126	1	414	1	1	1	0.2119	0.0962	0	1	0.626	72	0	0
126	1	415	1	1	1	0.2119	0.0962	1	1	0.607	74	0	82
126	1	416	1	2	3	0.2119	0.0962	0	1	0.655	70	0	0
126	1	417	9	2	2	0.2119	0.0962	1	1	0.621	0	82	0
126	1	418	0	2	2	0.2119	0.0962	0	0	0.048	0	82	82
126	1	419	1	1	3	0.2119	0.0962	1	0	0.528	0	0	82
126	1	420	1	1	2	0.2119	0.0962	0	1	0.524	83	0	0
126	1	421	0	2	3	0.2119	0.0962	0	1	0.586	8	82	82
126	1	422	1	2	2	0.2119	0.0962	1	1	0.648	70	82	0
126	1	423	1	1	2	0.2119	0.0962	1	0	1.002	0	0	82
126	1	424	1	2	3	0.2119	0.0962	0	1	0.613	74	0	0
126	1	425	9	1	1	0.2119	0.0962	0	1	0.675	0	0	0
126	1	426	0	2	2	0.2119	0.0962	0	1	0.605	7	82	82
126	1	427	0	1	2	0.2119	0.0962	1	1	0.728	6	82	0
126	1	428	1	1	1	0.2119	0.0962	1	1	0.649	70	0	82
126	1	429	1	1	3	0.2119	0.0962	1	1	0.653	70	0	82
126	1	430	1	1	3	0.2119	0.0962	0	1	0.485	87	0	0
126	1	431	0	2	3	0.2119	0.0962	1	1	0.629	7	0	82
126	1	432	1	2	3	0.2119	0.0962	0	0	0.524	0	0	0
126	1	433	1	2	3	0.2119	0.0962	1	1	0.530	82	82	0
126	1	434	1	1	1	0.2119	0.0962	0	1	0.552	80	0	0
126	1	435	9	2	3	0.2119	0.0962	1	1	0.551	0	0	82
126	1	436	1	2	3	0.2119	0.0962	1	1	0.498	85	82	0
126	1	437	0	2	3	0.2119	0.0962	1	1	0.468	9	0	82
126	1	438	1	2	3	0.2119	0.0962	1	1	0.497	85	82	0
126	1	439	0	1	3	0.2119	0.0962	0	1	0.543	8	82	82
126	1	440	1	1	1	0.2119	0.0962	0	1	0.531	82	0	0
126	1	441	0	1	2	0.2119	0.0962	0	1	0.541	8	82	82
126	1	442	1	2	3	0.2119	0.0962	0	0	0.591	0	0	0
126	1	443	0	2	3	0.2119	0.0962	1	1	0.498	9	0	82
126	1	444	1	1	2	0.2119	0.0962	1	0	0.656	0	0	82
126	1	445	0	2	1	0.2119	0.0962	1	1	0.804	5	0	82
126	1	446	9	2	2	0.2119	0.0962	0	1	0.568	0	0	0
126	1	447	9	1	3	0.2119	0.0962	0	1	0.528	0	0	0
126	1	448	1	2	2	0.2119	0.0962	0	1	0.546	80	0	0
126	1	449	0	2	3	0.2119	0.0962	0	1	0.528	8	82	82
126	1	450	1	2	3	0.2119	0.0962	0	1	0.465	88	0	0
126	1	451	1	1	3	0.2119	0.0962	1	1	0.485	87	0	82
126	1	452	9	1	3	0.2119	0.0962	0	1	0.512	0	82	82
126	1	453	0	1	3	0.2119	0.0962	0	1	0.421	9	82	82
126	1	454	1	2	1	0.2119	0.0962	1	1	0.522	83	82	0
126	1	455	1	1	1	0.2119	0.0962	0	1	0.540	81	0	0
126	1	456	9	1	3	0.2119	0.0962	0	1	0.484	0	82	82
126	1	457	0	1	2	0.2119	0.0962	0	1	0.419	9	82	82
126	1	458	9	1	1	0.2119	0.0962	1	1	0.473	0	0	82
126	1	459	0	2	3	0.2119	0.0962	0	0	0.555	0	82	82
126	1	460	1	2	2	0.2119	0.0962	1	1	0.518	83	82	0
126	1	461	1	2	1	0.2119	0.0962	1	1	0.522	83	82	0
126	1	462	1	2	1	0.2119	0.0962	0	1	0.547	80	0	0
126	1	463	9	2	2	0.2119	0.0962	1	1	0.571	0	82	0
126	1	464	0	2	3	0.2119	0.0962	0	1	0.522	8	82	82
126	1	465	9	1	3	0.2119	0.0962	0	1	0.599	0	82	82
126	1	466	1	1	1	0.2119	0.0962	0	1	0.300	100	0	0
126	1	467	0	1	1	0.2119	0.0962	0	1	0.360	10	82	82
126	1	468	0	2	3	0.2119	0.0962	0	0	0.445	0	82	82
126	1	469	9	1	3	0.2119	0.0962	1	0	0.397	0	82	0
126	1	470	0	1	3	0.2119	0.0962	1	0	0.404	0	82	0
126	1	471	1	1	3	0.2119	0.0962	0	1	0.472	88	0	0
126	1	472	1	2	3	0.2119	0.0962	1	1	0.550	80	82	0
126	1	473	1	1	3	0.2119	0.0962	0	1	0.451	90	0	0
126	1	474	1	2	2	0.2119	0.0962	1	1	0.439	91	82	0
126	1	475	0	2	2	0.2119	0.0962	1	1	0.906	5	0	82
126	1	476	1	2	2	0.2119	0.0962	0	1	0.618	73	0	0
126	1	477	0	1	1	0.2119	0.0962	1	1	0.631	7	82	0
126	1	478	9	2	3	0.2119	0.0962	0	1	0.516	0	82	82
126	1	479	0	1	3	0.2119	0.0962	1	0	0.482	0	82	0
126	1	480	1	1	1	0.2119	0.0962	0	1	0.522	83	0	0
126	1	481	0	1	3	0.2119	0.0962	0	1	0.592	8	82	82
126	1	482	1	1	3	0.2119	0.0962	0	1	0.427	92	0	0
126	1	483	0	1	3	0.2119	0.0962	0	1	0.606	7	82	82
126	1	484	1	1	3	0.2119	0.0962	0	1	0.430	92	0	0
126	1	485	1	2	3	0.2119	0.0962	0	0	0.559	0	0	0
126	1	486	0	1	3	0.2119	0.0962	1	1	0.710	6	82	0
126	1	487	1	2	1	0.2119	0.0962	0	1	0.622	73	0	0
126	1	488	0	2	3	0.2119	0.0962	1	1	0.711	6	0	82
126	1	489	1	1	1	0.2119	0.0962	1	1	0.551	80	0	82
126	1	490	1	2	3	0.2119	0.0962	1	1	0.894	50	82	0
126	1	491	1	2	3	0.2119	0.0962	0	1	0.545	81	0	0
126	1	492	1	1	3	0.2119	0.0962	0	1	0.512	84	0	0
126	1	493	1	1	3	0.2119	0.0962	0	1	0.468	88	0	0
126	1	494	0	2	2	0.2119	0.0962	1	1	0.485	9	0	82
126	1	495	0	1	1	0.2119	0.0962	1	0	0.534	0	82	0
126	1	496	0	1	3	0.2119	0.0962	0	1	0.441	9	82	82
126	1	497	9	2	3	0.2119	0.0962	1	1	0.876	0	0	82
126	1	498	0	2	2	0.2119	0.0962	1	0	0.717	0	0	82
126	1	499	0	2	3	0.2119	0.0962	0	1	0.654	7	82	82
126	1	500	1	1	3	0.2119	0.0962	1	1	0.539	81	0	82
126	1	501	9	1	1	0.2119	0.0962	1	1	1.244	0	0	82
126	1	502	1	1	3	0.2119	0.0962	0	1	0.529	82	0	0
126	1	503	1	1	1	0.2119	0.0962	1	1	0.455	90	0	82
126	1	504	0	2	2	0.2119	0.0962	1	1	0.581	8	0	82
126	1	505	1	2	3	0.2119	0.0962	1	1	0.549	80	82	0
126	1	506	0	1	1	0.2119	0.0962	0	1	0.403	9	82	82
126	1	507	1	2	3	0.2119	0.0962	0	0	0.511	0	0	0
126	1	508	0	1	1	0.2119	0.0962	1	0	0.408	0	82	0
126	1	509	0	2	1	0.2119	0.0962	1	1	0.491	9	0	82
126	1	510	1	2	1	0.2119	0.0962	1	1	0.387	96	82	0
126	1	511	1	2	2	0.2119	0.0962	0	1	0.559	79	0	0
126	1	512	0	2	3	0.2119	0.0962	1	0	0.552	0	0	82
126	1	513	0	2	3	0.2119	0.0962	0	0	0.444	0	82	82
126	1	514	1	1	3	0.2119	0.0962	1	1	0.590	76	0	82
126	1	515	0	1	3	0.2119	0.0962	1	1	0.673	7	82	0
126	1	516	9	2	2	0.2119	0.0962	1	1	0.526	0	0	82
126	1	517	0	1	1	0.2119	0.0962	0	1	0.691	7	82	82
126	1	518	1	2	2	0.2119	0.0962	0	1	0.802	55	0	0
126	1	519	1	1	1	0.2119	0.0962	1	1	0.818	53	0	82
126	1	520	1	1	2	0.2119	0.0962	0	1	0.540	81	0	0
126	1	521	1	1	3	0.2119	0.0962	0	0	0.509	0	0	0
126	1	522	0	2	2	0.2119	0.0962	1	0	0.820	0	0	82
126	1	523	0	1	1	0.2119	0.0962	1	1	0.754	6	82	0
126	1	524	9	2	3	0.2119	0.0962	1	1	0.577	0	0	82
126	1	525	9	2	3	0.2119	0.0962	1	1	0.463	0	82	0
126	1	526	0	1	1	0.2119	0.0962	0	1	0.526	8	82	82
126	1	527	9	2	2	0.2119	0.0962	0	0	0.498	0	82	82
126	1	528	9	1	3	0.2119	0.0962	1	1	0.635	0	82	0
126	1	529	0	1	1	0.2119	0.0962	0	1	0.663	7	82	82
126	1	530	9	1	3	0.2119	0.0962	0	1	0.378	0	0	0
126	1	531	0	1	1	0.2119	0.0962	0	1	0.493	9	82	82
126	1	532	9	2	2	0.2119	0.0962	0	0	0.733	0	82	82
126	1	533	9	1	1	0.2119	0.0962	0	1	0.369	0	0	0
126	1	534	1	1	1	0.2119	0.0962	0	1	0.455	90	0	0
126	1	535	1	2	3	0.2119	0.0962	1	1	0.552	80	82	0
126	1	536	0	1	3	0.2119	0.0962	1	0	0.614	0	82	0
126	1	537	0	1	1	0.2119	0.0962	0	0	0.325	0	82	82
126	1	538	9	2	1	0.2119	0.0962	1	1	0.496	0	82	0
126	1	539	0	2	1	0.2119	0.0962	0	0	0.453	0	82	82
126	1	540	9	1	1	0.2119	0.0962	0	1	0.512	0	82	82
126	1	541	0	1	3	0.2119	0.0962	1	0	0.578	0	82	0
126	1	542	0	1	1	0.2119	0.0962	0	1	0.630	7	82	82
126	1	543	1	2	2	0.2119	0.0962	1	1	0.578	77	82	0
126	1	544	1	2	2	0.2119	0.0962	1	1	0.790	56	82	0
126	1	545	1	2	3	0.2119	0.0962	0	1	0.498	85	0	0
126	1	546	0	2	1	0.2119	0.0962	0	1	0.627	7	82	82
126	1	547	0	2	2	0.2119	0.0962	1	1	0.555	8	0	82
126	1	548	1	1	2	0.2119	0.0962	0	1	0.479	87	0	0
126	1	549	9	1	2	0.2119	0.0962	0	1	0.597	0	0	0
126	1	550	0	2	3	0.2119	0.0962	1	1	0.532	8	0	82
126	1	551	9	2	3	0.2119	0.0962	1	1	0.678	0	82	0
126	1	552	0	2	2	0.2119	0.0962	0	1	0.479	9	82	82
126	1	553	9	2	2	0.2119	0.0962	0	0	0.561	0	0	0
126	1	554	0	1	1	0.2119	0.0962	1	0	0.189	0	82	0
126	1	555	0	2	2	0.2119	0.0962	1	1	0.578	8	0	82
126	1	556	1	1	3	0.2119	0.0962	1	0	0.456	0	0	82
126	1	557	1	2	2	0.2119	0.0962	1	1	0.672	68	82	0
126	1	558	1	2	3	0.2119	0.0962	1	1	0.743	61	82	0
126	1	559	1	2	2	0.2119	0.0962	1	1	0.493	86	82	0
126	1	560	1	1	1	0.2119	0.0962	0	1	0.615	74	0	0
126	1	561	1	2	2	0.2119	0.0962	0	0	0.510	0	0	0
126	1	562	1	1	3	0.2119	0.0962	1	1	0.433	92	0	82
126	1	563	1	1	3	0.2119	0.0962	1	1	0.407	94	0	82
126	1	564	0	2	3	0.2119	0.0962	1	1	0.363	10	0	82
126	1	565	0	1	1	0.2119	0.0962	1	0	0.498	0	82	0
126	1	566	0	1	3	0.2119	0.0962	1	1	0.391	10	82	0
126	1	567	9	1	2	0.2119	0.0962	1	1	0.440	0	82	0
126	1	568	9	1	2	0.2119	0.0962	0	1	0.501	0	82	82
126	1	569	0	2	2	0.2119	0.0962	1	1	0.465	9	0	82
126	1	570	1	1	3	0.2119	0.0962	1	0	0.465	0	0	82
126	1	571	1	1	2	0.2119	0.0962	1	1	0.346	100	0	82
126	1	572	0	1	3	0.2119	0.0962	0	1	0.486	9	82	82
126	1	573	0	2	3	0.2119	0.0962	0	0	0.443	0	82	82
126	1	574	1	1	3	0.2119	0.0962	0	1	0.331	100	0	0
126	1	575	9	2	2	0.2119	0.0962	0	0	0.372	0	82	82
126	1	576	1	2	2	0.2119	0.0962	1	1	0.443	91	82	0
126	1	577	9	1	1	0.2119	0.0962	0	1	0.569	0	82	82
126	1	578	0	2	3	0.2119	0.0962	0	0	0.448	0	82	82
126	1	579	9	2	3	0.2119	0.0962	0	1	0.395	0	0	0
126	1	580	1	2	2	0.2119	0.0962	0	1	0.426	92	0	0
126	1	581	9	2	3	0.2119	0.0962	0	1	0.586	0	0	0
126	1	582	0	1	1	0.2119	0.0962	1	0	0.559	0	82	0
126	1	583	1	2	3	0.2119	0.0962	0	1	0.484	87	0	0
126	1	584	1	1	1	0.2119	0.0962	0	1	0.608	74	0	0
126	1	585	9	2	3	0.2119	0.0962	1	1	0.588	0	82	0
126	1	586	9	1	1	0.2119	0.0962	1	1	0.614	0	82	0
126	1	587	9	2	2	0.2119	0.0962	0	1	0.326	0	82	82
126	1	588	9	1	1	0.2119	0.0962	0	0	0.576	0	82	82
126	1	589	0	1	2	0.2119	0.0962	1	0	0.538	0	82	0
126	1	590	1	1	3	0.2119	0.0962	0	1	0.642	71	0	0
126	1	591	0	2	3	0.2119	0.0962	0	1	0.860	5	82	82
126	1	592	1	2	1	0.2119	0.0962	0	1	0.448	90	0	0
126	1	593	0	2	3	0.2119	0.0962	1	1	0.617	7	0	82
126	1	594	9	2	2	0.2119	0.0962	1	1	0.544	0	0	82
126	1	595	1	2	2	0.2119	0.0962	1	1	0.576	77	82	0
126	1	596	0	2	2	0.2119	0.0962	1	1	0.514	8	0	82
126	1	597	1	1	1	0.2119	0.0962	1	0	0.464	0	0	82
126	1	598	0	1	3	0.2119	0.0962	1	1	0.447	9	82	0
126	1	599	9	1	1	0.2119	0.0962	0	1	0.729	0	0	0
126	1	600	9	2	3	0.2119	0.0962	0	1	0.655	0	0	0
126	1	601	0	2	2	0.2119	0.0962	0	1	0.648	7	82	82
126	1	602	0	2	3	0.2119	0.0962	1	1	0.534	8	0	82
126	1	603	1	2	3	0.2119	0.0962	0	1	0.603	75	0	0
126	1	604	9	2	1	0.2119	0.0962	0	1	0.424	0	0	0
126	1	605	0	1	3	0.2119	0.0962	1	0	0.561	0	82	0
126	1	606	1	2	3	0.2119	0.0962	0	1	0.512	84	0	0
126	1	607	0	2	2	0.2119	0.0962	0	1	0.526	8	82	82
126	1	608	9	2	3	0.2119	0.0962	1	1	0.553	0	0	82
126	1	609	0	2	3	0.2119	0.0962	0	1	0.548	8	82	82
126	1	610	0	1	3	0.2119	0.0962	1	0	0.326	0	82	0
126	1	611	9	1	3	0.2119	0.0962	1	0	0.373	0	82	0
126	1	612	9	1	3	0.2119	0.0962	0	1	0.655	0	0	0
126	1	613	0	2	3	0.2119	0.0962	0	1	0.282	10	82	82
126	1	614	1	1	1	0.2119	0.0962	1	1	0.458	89	0	82
126	1	615	9	1	1	0.2119	0.0962	0	0	0.453	0	0	0
126	1	616	0	2	2	0.2119	0.0962	0	0	0.446	0	82	82
126	1	617	0	2	2	0.2119	0.0962	0	0	0.475	0	82	82
126	1	618	0	2	2	0.2119	0.0962	1	0	0.377	0	0	82
126	1	619	9	2	2	0.2119	0.0962	0	0	0.370	0	0	0
126	1	620	1	2	2	0.2119	0.0962	0	1	0.463	89	0	0
126	1	621	1	1	1	0.2119	0.0962	0	1	0.412	94	0	0
126	1	622	9	2	2	0.2119	0.0962	1	1	0.406	0	82	0
126	1	623	1	2	3	0.2119	0.0962	1	1	0.419	93	82	0
126	1	624	1	2	2	0.2119	0.0962	1	1	0.458	89	82	0
126	1	625	1	2	3	0.2119	0.0962	1	1	0.543	81	82	0
126	1	626	0	1	3	0.2119	0.0962	1	1	1.252	5	82	0
126	1	627	1	1	3	0.2119	0.0962	0	1	0.545	80	0	0
126	1	628	0	1	1	0.2119	0.0962	0	1	0.443	9	82	82
126	1	629	0	2	2	0.2119	0.0962	0	0	0.433	0	82	82
126	1	630	0	1	3	0.2119	0.0962	1	1	0.670	7	82	0
126	1	631	9	2	3	0.2119	0.0962	0	1	0.668	0	82	82
126	1	632	0	2	3	0.2119	0.0962	0	0	0.407	0	82	82
126	1	633	0	1	2	0.2119	0.0962	0	1	0.874	5	82	82
126	1	634	9	2	3	0.2119	0.0962	1	1	0.512	0	82	0
126	1	635	1	2	3	0.2119	0.0962	1	1	0.451	90	82	0
126	1	636	0	2	2	0.2119	0.0962	0	1	0.625	7	82	82
126	1	637	1	2	3	0.2119	0.0962	0	1	0.494	86	0	0
126	1	638	9	2	2	0.2119	0.0962	1	1	0.702	0	0	82
126	1	639	0	1	3	0.2119	0.0962	0	1	0.437	9	82	82
126	1	640	0	1	3	0.2119	0.0962	1	1	0.364	10	82	0
126	1	641	1	1	1	0.2119	0.0962	1	0	0.483	0	0	82
126	1	642	9	1	1	0.2119	0.0962	1	1	0.653	0	82	0
126	1	643	0	2	3	0.2119	0.0962	0	0	0.484	0	82	82
126	1	644	1	1	3	0.2119	0.0962	0	1	0.465	89	0	0
126	1	645	0	2	2	0.2119	0.0962	1	1	0.664	7	0	82
126	1	646	1	1	1	0.2119	0.0962	1	1	0.415	94	0	82
126	1	647	9	2	3	0.2119	0.0962	0	0	0.520	0	82	82
126	1	648	0	2	2	0.2119	0.0962	0	0	0.336	0	82	82
126	1	649	1	2	3	0.2119	0.0962	1	1	0.567	78	82	0
126	1	650	9	2	2	0.2119	0.0962	0	0	1.541	0	0	0
126	1	651	9	1	3	0.2119	0.0962	1	1	0.353	0	0	82
126	1	652	0	2	3	0.2119	0.0962	1	1	0.556	8	0	82
126	1	653	9	1	1	0.2119	0.0962	0	1	0.298	0	82	82
126	1	654	0	2	2	0.2119	0.0962	1	1	0.563	8	0	82
126	1	655	0	2	3	0.2119	0.0962	1	1	0.472	9	0	82
126	1	656	9	2	2	0.2119	0.0962	1	1	0.547	0	0	82
126	1	657	1	2	2	0.2119	0.0962	1	0	0.588	0	82	0
126	1	658	1	1	2	0.2119	0.0962	0	1	0.486	86	0	0
126	1	659	0	1	2	0.2119	0.0962	1	0	0.499	0	82	0
126	1	660	0	2	2	0.2119	0.0962	1	0	0.555	0	0	82
126	1	661	1	1	1	0.2119	0.0962	1	1	0.444	91	0	82
126	1	662	0	2	1	0.2119	0.0962	1	1	0.602	7	0	82
126	1	663	0	2	2	0.2119	0.0962	0	0	0.419	0	82	82
126	1	664	0	1	3	0.2119	0.0962	1	1	0.558	8	82	0
126	1	665	0	1	3	0.2119	0.0962	0	1	0.809	5	82	82
126	1	666	1	1	1	0.2119	0.0962	1	1	0.502	85	0	82
126	1	667	9	1	1	0.2119	0.0962	1	1	0.549	0	82	0
126	1	668	1	2	3	0.2119	0.0962	1	1	0.427	92	82	0
126	1	669	0	1	1	0.2119	0.0962	0	1	0.497	9	82	82
126	1	670	9	1	1	0.2119	0.0962	1	1	0.388	0	0	82
126	1	671	0	1	2	0.2119	0.0962	0	1	0.484	9	82	82
126	1	672	0	2	3	0.2119	0.0962	1	1	0.432	9	0	82
126	1	673	0	1	1	0.2119	0.0962	1	0	0.417	0	82	0
126	1	674	0	1	3	0.2119	0.0962	0	1	0.516	8	82	82
126	1	675	0	2	3	0.2119	0.0962	0	0	0.441	0	82	82
126	1	676	0	1	3	0.2119	0.0962	0	1	0.588	8	82	82
126	1	677	0	2	3	0.2119	0.0962	1	1	0.773	6	0	82
126	1	678	1	1	3	0.2119	0.0962	1	1	0.389	96	0	82
126	1	679	0	2	3	0.2119	0.0962	1	1	0.608	7	0	82
126	1	680	1	1	1	0.2119	0.0962	0	1	0.453	90	0	0
126	1	681	0	2	2	0.2119	0.0962	0	0	0.359	0	82	82
126	1	682	1	2	1	0.2119	0.0962	1	1	0.465	89	82	0
126	1	683	0	1	1	0.2119	0.0962	1	0	0.568	0	82	0
126	1	684	0	1	1	0.2119	0.0962	1	1	0.524	8	82	0
126	1	685	0	1	1	0.2119	0.0962	1	1	0.339	10	82	0
126	1	686	1	2	2	0.2119	0.0962	0	1	0.479	87	0	0
126	1	687	1	1	3	0.2119	0.0962	0	1	0.489	86	0	0
126	1	688	1	1	3	0.2119	0.0962	1	1	2.331	50	0	82
126	1	689	1	2	2	0.2119	0.0962	1	1	0.447	90	82	0
126	1	690	1	1	1	0.2119	0.0962	0	1	0.422	93	0	0
126	1	691	9	2	3	0.2119	0.0962	0	0	0.376	0	82	82
126	1	692	9	1	1	0.2119	0.0962	1	1	0.467	0	82	0
126	1	693	1	1	3	0.2119	0.0962	0	1	0.427	92	0	0
126	1	694	1	1	3	0.2119	0.0962	1	1	0.529	82	0	82
126	1	695	0	1	2	0.2119	0.0962	1	1	0.377	10	82	0
126	1	696	1	1	1	0.2119	0.0962	1	1	0.382	97	0	82
126	1	697	1	1	3	0.2119	0.0962	1	1	0.430	92	0	82
126	1	698	0	2	3	0.2119	0.0962	0	1	0.552	8	82	82
126	1	699	1	1	1	0.2119	0.0962	1	1	0.321	100	0	82
126	1	700	1	1	1	0.2119	0.0962	0	1	0.527	82	0	0
126	1	701	1	2	2	0.2119	0.0962	0	0	0.443	0	0	0
126	1	702	0	1	1	0.2119	0.0962	1	0	0.466	0	82	0
126	1	703	0	1	3	0.2119	0.0962	0	1	0.438	9	82	82
126	1	704	0	1	1	0.2119	0.0962	0	1	0.420	9	82	82
126	1	705	0	2	2	0.2119	0.0962	1	0	0.640	0	0	82
126	1	706	0	1	1	0.2119	0.0962	1	1	0.517	8	82	0
126	1	707	1	1	1	0.2119	0.0962	1	1	1.416	50	0	82
126	1	708	0	1	1	0.2119	0.0962	0	1	0.425	9	82	82
126	1	709	1	2	2	0.2119	0.0962	0	0	0.389	0	0	0
126	1	710	9	2	1	0.2119	0.0962	1	0	0.596	0	0	82
126	1	711	9	2	3	0.2119	0.0962	0	1	0.525	0	0	0
126	1	712	1	2	3	0.2119	0.0962	1	1	0.450	90	82	0
126	1	713	0	2	3	0.2119	0.0962	1	1	0.606	7	0	82
126	1	714	0	1	3	0.2119	0.0962	0	1	0.479	9	82	82
126	1	715	0	1	3	0.2119	0.0962	0	1	0.565	8	82	82
126	1	716	1	1	1	0.2119	0.0962	0	0	0.588	0	0	0
126	1	717	9	1	3	0.2119	0.0962	1	0	0.388	0	0	82
126	1	718	1	1	1	0.2119	0.0962	1	1	0.417	93	0	82
126	1	719	1	1	1	0.2119	0.0962	0	0	0.471	0	0	0
126	1	720	9	1	2	0.2119	0.0962	1	1	0.413	0	0	82
