sub	sess	t	rew	loc	cue	co1	co2	or	resp	rt	rew_tot	left_col	right_col
22	1	1	1	1	3	0.1109	0.3781	0	1	0.593	76	0	0
22	1	2	9	1	3	0.1109	0.3781	0	1	0.430	0	82	82
22	1	3	1	2	2	0.1109	0.3781	1	1	0.501	85	82	0
22	1	4	0	1	3	0.1109	0.3781	0	1	0.518	8	82	82
22	1	5	0	2	2	0.1109	0.3781	1	1	0.445	9	0	82
22	1	6	0	1	1	0.1109	0.3781	1	0	0.429	0	82	0
22	1	7	1	1	3	0.1109	0.3781	0	1	0.471	88	0	0
22	1	8	1	1	1	0.1109	0.3781	0	1	0.417	93	0	0
22	1	9	0	2	2	0.1109	0.3781	1	1	0.397	10	0	82
22	1	10	1	1	1	0.1109	0.3781	1	0	0.456	0	0	82
22	1	11	0	2	2	0.1109	0.3781	1	1	0.492	9	0	82
22	1	12	1	1	1	0.1109	0.3781	0	1	0.457	89	0	0
22	1	13	1	1	2	0.1109	0.3781	0	1	0.470	88	0	0
22	1	14	0	1	3	0.1109	0.3781	1	1	0.402	9	82	0
22	1	15	0	1	2	0.1109	0.3781	0	1	0.386	10	82	82
22	1	16	1	2	2	0.1109	0.3781	0	1	0.629	72	0	0
22	1	17	9	1	3	0.1109	0.3781	1	1	0.460	0	0	82
22	1	18	0	1	3	0.1109	0.3781	0	1	0.543	8	82	82
22	1	19	1	2	2	0.1109	0.3781	1	1	0.390	96	82	0
22	1	20	1	1	2	0.1109	0.3781	0	1	0.385	97	0	0
22	1	21	9	2	2	0.1109	0.3781	0	1	0.561	0	82	82
22	1	22	1	1	3	0.1109	0.3781	0	1	0.514	84	0	0
22	1	23	0	2	3	0.1109	0.3781	0	1	0.473	9	82	82
22	1	24	0	2	1	0.1109	0.3781	0	1	0.403	9	82	82
22	1	25	0	1	1	0.1109	0.3781	1	0	0.431	0	82	0
22	1	26	9	2	3	0.1109	0.3781	0	1	0.547	0	82	82
22	1	27	1	1	1	0.1109	0.3781	0	1	0.568	78	0	0
22	1	28	0	2	2	0.1109	0.3781	1	1	0.535	8	0	82
22	1	29	0	2	3	0.1109	0.3781	0	1	0.450	9	82	82
22	1	30	1	2	2	0.1109	0.3781	1	1	0.412	94	82	0
22	1	31	1	1	3	0.1109	0.3781	0	1	0.395	96	0	0
22	1	32	1	2	2	0.1109	0.3781	0	1	0.443	91	0	0
22	1	33	1	1	1	0.1109	0.3781	0	1	0.356	99	0	0
22	1	34	1	1	3	0.1109	0.3781	0	1	0.451	90	0	0
22	1	35	0	1	1	0.1109	0.3781	0	1	0.326	10	82	82
22	1	36	1	2	1	0.1109	0.3781	0	1	0.379	97	0	0
22	1	37	1	2	2	0.1109	0.3781	0	1	0.377	97	0	0
22	1	38	1	2	2	0.1109	0.3781	0	1	0.331	100	0	0
22	1	39	1	2	3	0.1109	0.3781	1	1	0.566	78	82	0
22	1	40	0	2	2	0.1109	0.3781	0	1	0.332	10	82	82
22	1	41	1	1	3	0.1109	0.3781	1	0	0.497	0	0	82
22	1	42	1	2	3	0.1109	0.3781	1	1	1.577	50	82	0
22	1	43	1	1	3	0.1109	0.3781	0	1	0.479	87	0	0
22	1	44	0	1	3	0.1109	0.3781	1	0	0.460	0	82	0
22	1	45	0	1	1	0.1109	0.3781	0	1	0.552	8	82	82
22	1	46	9	1	2	0.1109	0.3781	0	1	0.486	0	0	0
22	1	47	1	1	1	0.1109	0.3781	1	1	0.435	91	0	82
22	1	48	0	1	1	0.1109	0.3781	1	1	0.506	8	82	0
22	1	49	0	2	3	0.1109	0.3781	1	1	0.437	9	0	82
22	1	50	9	2	2	0.1109	0.3781	0	1	0.477	0	82	82
22	1	51	1	2	1	0.1109	0.3781	1	1	0.374	98	82	0
22	1	52	1	2	2	0.1109	0.3781	1	1	0.745	61	82	0
22	1	53	1	2	2	0.1109	0.3781	0	0	0.450	0	0	0
22	1	54	9	1	3	0.1109	0.3781	0	1	0.594	0	0	0
22	1	55	9	2	3	0.1109	0.3781	1	1	0.525	0	0	82
22	1	56	1	1	1	0.1109	0.3781	1	0	0.532	0	0	82
22	1	57	0	2	2	0.1109	0.3781	0	1	0.575	8	82	82
22	1	58	1	2	2	0.1109	0.3781	0	1	0.442	91	0	0
22	1	59	0	2	2	0.1109	0.3781	0	1	0.419	9	82	82
22	1	60	0	1	1	0.1109	0.3781	0	1	0.445	9	82	82
22	1	61	9	1	1	0.1109	0.3781	0	1	0.543	0	82	82
22	1	62	0	1	3	0.1109	0.3781	1	0	0.503	0	82	0
22	1	63	9	2	2	0.1109	0.3781	1	1	0.954	0	82	0
22	1	64	0	1	3	0.1109	0.3781	1	1	0.510	8	82	0
22	1	65	9	2	3	0.1109	0.3781	0	1	0.539	0	0	0
22	1	66	1	2	3	0.1109	0.3781	1	1	0.647	70	82	0
22	1	67	1	2	2	0.1109	0.3781	1	1	0.401	95	82	0
22	1	68	9	1	3	0.1109	0.3781	1	1	0.537	0	0	82
22	1	69	0	1	1	0.1109	0.3781	1	1	0.531	8	82	0
22	1	70	0	2	3	0.1109	0.3781	0	1	0.433	9	82	82
22	1	71	1	2	2	0.1109	0.3781	0	1	0.404	95	0	0
22	1	72	1	2	2	0.1109	0.3781	1	1	0.400	95	82	0
22	1	73	1	2	1	0.1109	0.3781	0	1	0.332	100	0	0
22	1	74	1	2	3	0.1109	0.3781	0	1	0.520	83	0	0
22	1	75	0	2	2	0.1109	0.3781	1	1	0.375	10	0	82
22	1	76	1	1	2	0.1109	0.3781	1	1	0.565	79	0	82
22	1	77	1	2	3	0.1109	0.3781	1	1	0.633	72	82	0
22	1	78	1	1	3	0.1109	0.3781	1	0	0.596	0	0	82
22	1	79	1	1	3	0.1109	0.3781	0	1	0.801	55	0	0
22	1	80	9	1	3	0.1109	0.3781	0	1	0.550	0	82	82
22	1	81	1	1	1	0.1109	0.3781	0	1	0.492	86	0	0
22	1	82	1	1	1	0.1109	0.3781	0	1	0.412	94	0	0
22	1	83	0	2	3	0.1109	0.3781	1	1	0.553	8	0	82
22	1	84	0	2	2	0.1109	0.3781	1	1	0.523	8	0	82
22	1	85	0	2	3	0.1109	0.3781	1	1	0.434	9	0	82
22	1	86	0	2	2	0.1109	0.3781	1	1	0.441	9	0	82
22	1	87	0	2	3	0.1109	0.3781	0	1	0.422	9	82	82
22	1	88	0	2	2	0.1109	0.3781	1	1	0.444	9	0	82
22	1	89	0	1	2	0.1109	0.3781	0	1	0.557	8	82	82
22	1	90	1	2	1	0.1109	0.3781	1	1	0.472	88	82	0
22	1	91	9	2	2	0.1109	0.3781	1	1	0.405	0	82	0
22	1	92	1	2	3	0.1109	0.3781	0	1	0.477	87	0	0
22	1	93	0	1	1	0.1109	0.3781	1	0	0.853	0	82	0
22	1	94	0	2	1	0.1109	0.3781	1	1	0.572	8	0	82
22	1	95	1	2	2	0.1109	0.3781	0	1	0.378	97	0	0
22	1	96	0	2	2	0.1109	0.3781	0	1	0.456	9	82	82
22	1	97	0	2	1	0.1109	0.3781	1	1	0.411	9	0	82
22	1	98	1	1	2	0.1109	0.3781	0	1	0.642	71	0	0
22	1	99	0	2	3	0.1109	0.3781	1	1	0.470	9	0	82
22	1	100	1	1	3	0.1109	0.3781	1	0	0.462	0	0	82
22	1	101	9	1	1	0.1109	0.3781	0	1	0.528	0	82	82
22	1	102	1	1	1	0.1109	0.3781	1	0	0.443	0	0	82
22	1	103	0	2	3	0.1109	0.3781	0	1	0.569	8	82	82
22	1	104	9	2	1	0.1109	0.3781	0	1	0.528	0	82	82
22	1	105	0	2	2	0.1109	0.3781	1	1	0.536	8	0	82
22	1	106	1	1	3	0.1109	0.3781	1	1	0.518	83	0	82
22	1	107	1	2	3	0.1109	0.3781	0	1	0.501	85	0	0
22	1	108	1	1	1	0.1109	0.3781	0	1	0.420	93	0	0
22	1	109	1	2	3	0.1109	0.3781	0	1	0.495	86	0	0
22	1	110	9	2	2	0.1109	0.3781	0	1	0.307	0	0	0
22	1	111	1	1	3	0.1109	0.3781	0	1	0.450	90	0	0
22	1	112	0	1	1	0.1109	0.3781	1	0	0.669	0	82	0
22	1	113	1	1	1	0.1109	0.3781	0	1	0.432	92	0	0
22	1	114	1	1	1	0.1109	0.3781	0	1	0.424	93	0	0
22	1	115	0	1	1	0.1109	0.3781	0	1	0.456	9	82	82
22	1	116	1	1	3	0.1109	0.3781	1	0	0.429	0	0	82
22	1	117	0	1	3	0.1109	0.3781	0	1	0.456	9	82	82
22	1	118	0	1	3	0.1109	0.3781	0	1	0.469	9	82	82
22	1	119	1	2	3	0.1109	0.3781	1	1	0.827	52	82	0
22	1	120	0	1	3	0.1109	0.3781	1	1	0.513	8	82	0
22	1	121	9	2	3	0.1109	0.3781	1	1	0.534	0	82	0
22	1	122	1	2	3	0.1109	0.3781	1	1	0.394	96	82	0
22	1	123	0	1	1	0.1109	0.3781	0	1	0.518	8	82	82
22	1	124	9	2	2	0.1109	0.3781	0	1	0.482	0	82	82
22	1	125	0	1	1	0.1109	0.3781	0	1	0.482	9	82	82
22	1	126	9	1	1	0.1109	0.3781	1	1	0.575	0	82	0
22	1	127	1	2	3	0.1109	0.3781	0	1	0.330	100	0	0
22	1	128	1	1	1	0.1109	0.3781	0	1	0.542	81	0	0
22	1	129	1	2	2	0.1109	0.3781	1	1	0.390	96	82	0
22	1	130	9	1	1	0.1109	0.3781	1	1	0.661	0	82	0
22	1	131	1	1	3	0.1109	0.3781	0	1	0.665	69	0	0
22	1	132	0	1	1	0.1109	0.3781	0	1	0.451	9	82	82
22	1	133	9	1	2	0.1109	0.3781	0	1	0.356	0	82	82
22	1	134	0	1	3	0.1109	0.3781	1	0	0.282	0	82	0
22	1	135	1	1	3	0.1109	0.3781	1	0	0.470	0	0	82
22	1	136	0	1	3	0.1109	0.3781	1	1	0.385	10	82	0
22	1	137	1	2	1	0.1109	0.3781	0	0	0.501	0	0	0
22	1	138	1	2	2	0.1109	0.3781	0	1	0.499	85	0	0
22	1	139	1	1	2	0.1109	0.3781	0	1	0.473	88	0	0
22	1	140	1	1	1	0.1109	0.3781	1	1	0.478	87	0	82
22	1	141	0	2	1	0.1109	0.3781	0	1	0.408	9	82	82
22	1	142	0	2	3	0.1109	0.3781	0	1	0.403	9	82	82
22	1	143	9	1	1	0.1109	0.3781	0	1	0.401	0	0	0
22	1	144	0	1	1	0.1109	0.3781	1	1	0.531	8	82	0
22	1	145	1	1	1	0.1109	0.3781	1	1	0.686	66	0	82
22	1	146	1	2	3	0.1109	0.3781	1	1	0.536	81	82	0
22	1	147	0	1	3	0.1109	0.3781	0	1	0.448	9	82	82
22	1	148	9	2	1	0.1109	0.3781	1	1	0.526	0	82	0
22	1	149	9	1	3	0.1109	0.3781	0	1	0.444	0	0	0
22	1	150	0	1	3	0.1109	0.3781	0	1	0.499	9	82	82
22	1	151	0	1	1	0.1109	0.3781	1	0	0.399	0	82	0
22	1	152	1	2	3	0.1109	0.3781	0	1	0.539	81	0	0
22	1	153	0	2	2	0.1109	0.3781	0	1	0.513	8	82	82
22	1	154	1	1	3	0.1109	0.3781	0	1	0.672	68	0	0
22	1	155	0	1	1	0.1109	0.3781	0	1	0.604	7	82	82
22	1	156	1	2	3	0.1109	0.3781	1	1	0.621	73	82	0
22	1	157	1	2	2	0.1109	0.3781	1	0	0.549	0	82	0
22	1	158	9	1	3	0.1109	0.3781	0	1	0.522	0	0	0
22	1	159	9	2	2	0.1109	0.3781	1	1	0.576	0	0	82
22	1	160	1	1	1	0.1109	0.3781	1	0	0.527	0	0	82
22	1	161	0	1	1	0.1109	0.3781	1	1	0.596	8	82	0
22	1	162	0	2	3	0.1109	0.3781	0	1	0.564	8	82	82
22	1	163	0	1	3	0.1109	0.3781	0	1	0.669	7	82	82
22	1	164	1	1	3	0.1109	0.3781	0	1	0.430	92	0	0
22	1	165	0	1	1	0.1109	0.3781	0	1	0.512	8	82	82
22	1	166	9	2	3	0.1109	0.3781	1	1	0.544	0	0	82
22	1	167	9	2	2	0.1109	0.3781	0	1	0.594	0	0	0
22	1	168	0	2	3	0.1109	0.3781	1	1	0.763	6	0	82
22	1	169	9	2	2	0.1109	0.3781	0	1	0.459	0	0	0
22	1	170	1	2	3	0.1109	0.3781	1	1	0.424	93	82	0
22	1	171	0	2	3	0.1109	0.3781	0	1	0.435	9	82	82
22	1	172	0	2	3	0.1109	0.3781	0	1	0.454	9	82	82
22	1	173	0	2	2	0.1109	0.3781	0	1	0.449	9	82	82
22	1	174	0	2	3	0.1109	0.3781	0	1	0.475	9	82	82
22	1	175	0	2	2	0.1109	0.3781	1	1	0.485	9	0	82
22	1	176	1	2	3	0.1109	0.3781	0	1	0.470	88	0	0
22	1	177	0	2	2	0.1109	0.3781	0	0	0.432	0	82	82
22	1	178	9	2	3	0.1109	0.3781	0	1	0.385	0	82	82
22	1	179	1	2	1	0.1109	0.3781	1	1	0.480	87	82	0
22	1	180	9	2	2	0.1109	0.3781	1	1	0.441	0	82	0
22	1	181	9	1	3	0.1109	0.3781	1	1	0.459	0	0	82
22	1	182	0	1	1	0.1109	0.3781	0	1	0.377	10	82	82
22	1	183	0	1	2	0.1109	0.3781	1	0	0.460	0	82	0
22	1	184	9	2	3	0.1109	0.3781	0	1	0.690	0	0	0
22	1	185	1	2	3	0.1109	0.3781	0	1	0.367	98	0	0
22	1	186	1	2	3	0.1109	0.3781	1	1	0.877	50	82	0
22	1	187	0	1	3	0.1109	0.3781	1	1	0.522	8	82	0
22	1	188	0	1	2	0.1109	0.3781	1	1	0.353	10	82	0
22	1	189	9	2	3	0.1109	0.3781	1	1	0.466	0	82	0
22	1	190	0	1	2	0.1109	0.3781	0	1	0.431	9	82	82
22	1	191	1	2	3	0.1109	0.3781	1	1	0.471	88	82	0
22	1	192	1	2	3	0.1109	0.3781	0	1	0.404	95	0	0
22	1	193	9	1	1	0.1109	0.3781	1	1	0.473	0	0	82
22	1	194	1	2	2	0.1109	0.3781	0	1	0.616	73	0	0
22	1	195	9	1	2	0.1109	0.3781	1	0	0.399	0	82	0
22	1	196	9	2	3	0.1109	0.3781	0	1	0.458	0	0	0
22	1	197	0	1	3	0.1109	0.3781	0	1	0.430	9	82	82
22	1	198	0	2	3	0.1109	0.3781	1	1	0.509	8	0	82
22	1	199	0	2	2	0.1109	0.3781	0	1	0.489	9	82	82
22	1	200	0	2	1	0.1109	0.3781	1	1	0.457	9	0	82
22	1	201	0	2	2	0.1109	0.3781	0	1	0.559	8	82	82
22	1	202	0	1	3	0.1109	0.3781	1	0	0.443	0	82	0
22	1	203	0	1	3	0.1109	0.3781	1	1	0.506	8	82	0
22	1	204	1	2	2	0.1109	0.3781	1	1	0.542	81	82	0
22	1	205	0	1	1	0.1109	0.3781	0	1	0.424	9	82	82
22	1	206	0	2	3	0.1109	0.3781	1	1	0.402	9	0	82
22	1	207	1	1	3	0.1109	0.3781	0	1	0.413	94	0	0
22	1	208	0	2	3	0.1109	0.3781	1	1	0.381	10	0	82
22	1	209	1	2	3	0.1109	0.3781	0	1	0.449	90	0	0
22	1	210	1	1	1	0.1109	0.3781	1	0	0.490	0	0	82
22	1	211	1	1	1	0.1109	0.3781	0	1	0.464	89	0	0
22	1	212	0	2	2	0.1109	0.3781	0	0	0.498	0	82	82
22	1	213	1	2	2	0.1109	0.3781	1	1	0.628	72	82	0
22	1	214	9	2	3	0.1109	0.3781	1	1	0.472	0	0	82
22	1	215	9	1	1	0.1109	0.3781	0	1	0.411	0	0	0
22	1	216	9	2	3	0.1109	0.3781	1	1	0.315	0	82	0
22	1	217	0	1	1	0.1109	0.3781	0	1	0.425	9	82	82
22	1	218	0	1	3	0.1109	0.3781	0	1	0.478	9	82	82
22	1	219	0	1	3	0.1109	0.3781	1	1	0.475	9	82	0
22	1	220	0	2	1	0.1109	0.3781	0	1	0.388	10	82	82
22	1	221	1	1	1	0.1109	0.3781	1	1	0.509	84	0	82
22	1	222	0	2	3	0.1109	0.3781	1	1	0.415	9	0	82
22	1	223	1	1	3	0.1109	0.3781	1	1	0.656	69	0	82
22	1	224	9	1	3	0.1109	0.3781	1	1	0.604	0	82	0
22	1	225	0	2	3	0.1109	0.3781	1	1	0.480	9	0	82
22	1	226	0	2	2	0.1109	0.3781	0	1	0.365	10	82	82
22	1	227	1	2	3	0.1109	0.3781	0	1	0.360	99	0	0
22	1	228	1	2	3	0.1109	0.3781	0	1	0.414	94	0	0
22	1	229	9	1	1	0.1109	0.3781	1	0	0.500	0	0	82
22	1	230	9	2	3	0.1109	0.3781	0	1	0.311	0	0	0
22	1	231	1	1	3	0.1109	0.3781	1	0	0.571	0	0	82
22	1	232	9	2	2	0.1109	0.3781	1	1	0.461	0	0	82
22	1	233	0	1	3	0.1109	0.3781	1	1	0.568	8	82	0
22	1	234	1	2	2	0.1109	0.3781	1	1	0.504	85	82	0
22	1	235	1	2	3	0.1109	0.3781	1	1	0.431	92	82	0
22	1	236	1	1	3	0.1109	0.3781	0	1	0.515	84	0	0
22	1	237	0	1	3	0.1109	0.3781	1	1	0.623	7	82	0
22	1	238	0	1	1	0.1109	0.3781	1	1	0.403	9	82	0
22	1	239	1	1	3	0.1109	0.3781	0	1	0.645	71	0	0
22	1	240	1	1	3	0.1109	0.3781	1	1	0.677	67	0	82
22	1	241	1	2	2	0.1109	0.3781	0	0	0.408	0	0	0
22	1	242	1	2	2	0.1109	0.3781	1	1	0.451	90	82	0
22	1	243	1	1	1	0.1109	0.3781	1	1	0.483	87	0	82
22	1	244	0	1	1	0.1109	0.3781	1	1	0.609	7	82	0
22	1	245	1	1	1	0.1109	0.3781	1	1	0.605	74	0	82
22	1	246	0	2	1	0.1109	0.3781	0	1	0.498	9	82	82
22	1	247	1	1	1	0.1109	0.3781	0	1	0.463	89	0	0
22	1	248	0	2	2	0.1109	0.3781	0	1	0.543	8	82	82
22	1	249	0	2	2	0.1109	0.3781	0	1	0.507	8	82	82
22	1	250	1	1	1	0.1109	0.3781	1	1	0.638	71	0	82
22	1	251	0	2	3	0.1109	0.3781	1	1	0.428	9	0	82
22	1	252	9	1	1	0.1109	0.3781	1	1	0.699	0	0	82
22	1	253	0	2	3	0.1109	0.3781	1	1	0.983	5	0	82
22	1	254	1	2	2	0.1109	0.3781	1	1	0.436	91	82	0
22	1	255	9	1	1	0.1109	0.3781	1	1	0.663	0	0	82
22	1	256	1	1	1	0.1109	0.3781	0	1	0.590	76	0	0
22	1	257	1	2	2	0.1109	0.3781	0	1	0.624	73	0	0
22	1	258	0	2	3	0.1109	0.3781	1	1	0.840	5	0	82
22	1	259	9	1	3	0.1109	0.3781	0	1	0.574	0	82	82
22	1	260	0	1	3	0.1109	0.3781	0	1	0.498	9	82	82
22	1	261	9	1	3	0.1109	0.3781	0	1	0.411	0	0	0
22	1	262	9	1	1	0.1109	0.3781	0	1	0.444	0	0	0
22	1	263	1	1	2	0.1109	0.3781	1	1	0.491	86	0	82
22	1	264	0	1	3	0.1109	0.3781	1	0	0.388	0	82	0
22	1	265	0	1	1	0.1109	0.3781	1	1	0.526	8	82	0
22	1	266	0	2	3	0.1109	0.3781	0	1	0.540	8	82	82
22	1	267	0	1	1	0.1109	0.3781	0	1	0.420	9	82	82
22	1	268	1	2	3	0.1109	0.3781	1	1	0.427	92	82	0
22	1	269	9	1	1	0.1109	0.3781	0	1	0.572	0	82	82
22	1	270	0	2	2	0.1109	0.3781	1	1	0.505	8	0	82
22	1	271	1	1	3	0.1109	0.3781	1	1	0.603	75	0	82
22	1	272	0	1	3	0.1109	0.3781	1	1	0.476	9	82	0
22	1	273	1	1	1	0.1109	0.3781	1	1	0.603	75	0	82
22	1	274	1	2	1	0.1109	0.3781	1	1	0.515	83	82	0
22	1	275	9	2	1	0.1109	0.3781	0	1	0.420	0	0	0
22	1	276	1	1	3	0.1109	0.3781	1	1	0.732	62	0	82
22	1	277	0	1	2	0.1109	0.3781	1	1	0.541	8	82	0
22	1	278	1	2	2	0.1109	0.3781	1	1	0.402	95	82	0
22	1	279	0	2	3	0.1109	0.3781	1	1	0.433	9	0	82
22	1	280	1	1	1	0.1109	0.3781	1	1	0.740	61	0	82
22	1	281	0	1	3	0.1109	0.3781	1	1	0.520	8	82	0
22	1	282	9	1	3	0.1109	0.3781	1	1	0.668	0	82	0
22	1	283	9	2	2	0.1109	0.3781	1	1	0.462	0	0	82
22	1	284	0	1	1	0.1109	0.3781	0	1	0.546	8	82	82
22	1	285	9	2	2	0.1109	0.3781	1	1	0.488	0	0	82
22	1	286	0	2	3	0.1109	0.3781	0	1	0.564	8	82	82
22	1	287	1	2	3	0.1109	0.3781	0	1	0.355	99	0	0
22	1	288	1	2	2	0.1109	0.3781	0	1	0.320	100	0	0
22	1	289	9	1	3	0.1109	0.3781	1	1	0.560	0	82	0
22	1	290	1	2	2	0.1109	0.3781	1	1	0.440	91	82	0
22	1	291	9	1	3	0.1109	0.3781	0	1	0.527	0	82	82
22	1	292	9	2	2	0.1109	0.3781	1	1	0.542	0	82	0
22	1	293	9	2	3	0.1109	0.3781	1	1	0.416	0	82	0
22	1	294	0	1	3	0.1109	0.3781	0	1	0.545	8	82	82
22	1	295	0	1	3	0.1109	0.3781	0	1	0.392	10	82	82
22	1	296	9	2	2	0.1109	0.3781	0	1	0.439	0	82	82
22	1	297	0	2	2	0.1109	0.3781	1	1	0.426	9	0	82
22	1	298	1	1	1	0.1109	0.3781	1	1	0.727	62	0	82
22	1	299	9	2	3	0.1109	0.3781	0	1	0.443	0	82	82
22	1	300	1	1	3	0.1109	0.3781	1	0	0.967	0	0	82
22	1	301	1	1	1	0.1109	0.3781	0	1	0.418	93	0	0
22	1	302	0	2	3	0.1109	0.3781	1	1	0.623	7	0	82
22	1	303	0	1	1	0.1109	0.3781	1	1	0.523	8	82	0
22	1	304	0	1	2	0.1109	0.3781	1	1	0.448	9	82	0
22	1	305	1	2	3	0.1109	0.3781	1	1	0.450	90	82	0
22	1	306	1	1	3	0.1109	0.3781	1	1	0.484	87	0	82
22	1	307	9	2	3	0.1109	0.3781	1	1	0.376	0	0	82
22	1	308	9	2	1	0.1109	0.3781	1	1	0.420	0	0	82
22	1	309	1	1	3	0.1109	0.3781	1	1	0.500	85	0	82
22	1	310	0	2	2	0.1109	0.3781	0	1	0.641	7	82	82
22	1	311	0	2	2	0.1109	0.3781	0	1	0.586	8	82	82
22	1	312	9	1	1	0.1109	0.3781	0	1	0.447	0	0	0
22	1	313	0	2	2	0.1109	0.3781	1	1	0.417	9	0	82
22	1	314	1	1	3	0.1109	0.3781	0	1	0.413	94	0	0
22	1	315	9	1	3	0.1109	0.3781	1	0	0.824	0	0	82
22	1	316	1	1	1	0.1109	0.3781	0	1	0.434	92	0	0
22	1	317	0	2	3	0.1109	0.3781	0	1	0.387	10	82	82
22	1	318	0	2	2	0.1109	0.3781	1	1	0.450	9	0	82
22	1	319	9	1	3	0.1109	0.3781	1	1	0.559	0	82	0
22	1	320	0	2	2	0.1109	0.3781	1	1	0.331	10	0	82
22	1	321	9	2	2	0.1109	0.3781	0	1	0.392	0	0	0
22	1	322	0	1	3	0.1109	0.3781	0	1	0.437	9	82	82
22	1	323	1	1	2	0.1109	0.3781	1	1	0.608	74	0	82
22	1	324	1	2	1	0.1109	0.3781	0	1	0.485	86	0	0
22	1	325	0	2	3	0.1109	0.3781	0	1	0.346	10	82	82
22	1	326	1	1	3	0.1109	0.3781	0	1	0.417	93	0	0
22	1	327	0	2	2	0.1109	0.3781	0	1	0.416	9	82	82
22	1	328	9	2	3	0.1109	0.3781	0	1	0.365	0	82	82
22	1	329	0	1	3	0.1109	0.3781	0	1	0.473	9	82	82
22	1	330	0	1	3	0.1109	0.3781	0	1	0.405	9	82	82
22	1	331	1	2	3	0.1109	0.3781	0	1	0.408	94	0	0
22	1	332	0	1	1	0.1109	0.3781	0	1	0.783	6	82	82
22	1	333	1	2	3	0.1109	0.3781	1	1	0.988	50	82	0
22	1	334	1	2	2	0.1109	0.3781	0	1	0.421	93	0	0
22	1	335	1	2	2	0.1109	0.3781	0	1	0.448	90	0	0
22	1	336	0	1	2	0.1109	0.3781	0	1	0.378	10	82	82
22	1	337	0	1	3	0.1109	0.3781	0	1	0.347	10	82	82
22	1	338	9	1	1	0.1109	0.3781	1	1	0.606	0	82	0
22	1	339	0	2	3	0.1109	0.3781	1	1	0.935	5	0	82
22	1	340	0	1	1	0.1109	0.3781	1	1	0.486	9	82	0
22	1	341	1	1	2	0.1109	0.3781	1	1	0.550	80	0	82
22	1	342	9	1	2	0.1109	0.3781	1	1	0.481	0	0	82
22	1	343	9	1	1	0.1109	0.3781	1	1	0.559	0	82	0
22	1	344	9	1	1	0.1109	0.3781	0	1	0.498	0	82	82
22	1	345	0	2	3	0.1109	0.3781	0	1	0.495	9	82	82
22	1	346	1	1	1	0.1109	0.3781	1	0	0.418	0	0	82
22	1	347	1	2	3	0.1109	0.3781	0	1	0.503	85	0	0
22	1	348	0	1	1	0.1109	0.3781	0	1	0.419	9	82	82
22	1	349	1	2	3	0.1109	0.3781	0	1	0.330	100	0	0
22	1	350	0	1	1	0.1109	0.3781	1	0	0.674	0	82	0
22	1	351	0	2	3	0.1109	0.3781	0	1	0.298	10	82	82
22	1	352	1	1	3	0.1109	0.3781	1	1	0.466	88	0	82
22	1	353	1	2	2	0.1109	0.3781	1	1	0.601	75	82	0
22	1	354	0	2	2	0.1109	0.3781	1	1	0.434	9	0	82
22	1	355	1	2	2	0.1109	0.3781	0	1	0.369	98	0	0
22	1	356	0	1	1	0.1109	0.3781	1	1	0.737	6	82	0
22	1	357	1	1	3	0.1109	0.3781	1	1	0.581	77	0	82
22	1	358	0	2	1	0.1109	0.3781	1	1	0.436	9	0	82
22	1	359	1	2	3	0.1109	0.3781	1	1	0.417	93	82	0
22	1	360	1	1	1	0.1109	0.3781	0	1	0.482	87	0	0
22	1	361	0	2	2	0.1109	0.3781	0	1	0.429	9	82	82
22	1	362	0	1	3	0.1109	0.3781	0	1	0.374	10	82	82
22	1	363	0	2	3	0.1109	0.3781	0	1	0.316	10	82	82
22	1	364	1	2	2	0.1109	0.3781	0	1	0.297	100	0	0
22	1	365	9	1	3	0.1109	0.3781	1	0	0.415	0	0	82
22	1	366	0	2	2	0.1109	0.3781	0	0	0.418	0	82	82
22	1	367	1	1	3	0.1109	0.3781	1	0	0.463	0	0	82
22	1	368	1	1	1	0.1109	0.3781	1	1	0.651	70	0	82
22	1	369	1	1	1	0.1109	0.3781	0	1	0.380	97	0	0
22	1	370	0	1	1	0.1109	0.3781	0	1	0.430	9	82	82
22	1	371	0	1	2	0.1109	0.3781	0	1	0.404	9	82	82
22	1	372	0	1	2	0.1109	0.3781	0	1	0.389	10	82	82
22	1	373	0	2	3	0.1109	0.3781	0	0	0.555	0	82	82
22	1	374	1	1	3	0.1109	0.3781	0	1	0.374	98	0	0
22	1	375	0	2	2	0.1109	0.3781	1	1	0.867	5	0	82
22	1	376	1	2	3	0.1109	0.3781	1	1	0.382	97	82	0
22	1	377	0	2	3	0.1109	0.3781	0	1	0.443	9	82	82
22	1	378	1	1	3	0.1109	0.3781	1	0	0.481	0	0	82
22	1	379	1	2	3	0.1109	0.3781	1	1	0.412	94	82	0
22	1	380	1	1	3	0.1109	0.3781	0	1	0.440	91	0	0
22	1	381	1	1	3	0.1109	0.3781	1	1	0.627	72	0	82
22	1	382	9	2	3	0.1109	0.3781	0	1	0.420	0	82	82
22	1	383	0	2	2	0.1109	0.3781	1	0	0.468	0	0	82
22	1	384	1	1	1	0.1109	0.3781	0	1	0.831	52	0	0
22	1	385	0	2	3	0.1109	0.3781	1	1	0.927	5	0	82
22	1	386	0	1	3	0.1109	0.3781	0	1	0.531	8	82	82
22	1	387	9	2	3	0.1109	0.3781	0	1	0.694	0	0	0
22	1	388	1	2	3	0.1109	0.3781	0	1	0.378	97	0	0
22	1	389	0	1	1	0.1109	0.3781	1	1	0.739	6	82	0
22	1	390	9	2	2	0.1109	0.3781	1	1	0.723	0	0	82
22	1	391	1	1	2	0.1109	0.3781	0	1	0.423	93	0	0
22	1	392	0	2	2	0.1109	0.3781	1	1	0.574	8	0	82
22	1	393	0	1	1	0.1109	0.3781	0	1	0.385	10	82	82
22	1	394	0	1	1	0.1109	0.3781	1	0	0.422	0	82	0
22	1	395	1	2	2	0.1109	0.3781	1	1	0.574	78	82	0
22	1	396	0	1	3	0.1109	0.3781	0	1	0.513	8	82	82
22	1	397	0	2	3	0.1109	0.3781	0	1	0.518	8	82	82
22	1	398	1	1	2	0.1109	0.3781	0	1	0.423	93	0	0
22	1	399	9	1	3	0.1109	0.3781	0	1	0.452	0	0	0
22	1	400	9	2	3	0.1109	0.3781	1	1	1.247	0	0	82
22	1	401	1	1	1	0.1109	0.3781	0	1	0.454	90	0	0
22	1	402	0	2	3	0.1109	0.3781	0	1	0.507	8	82	82
22	1	403	9	1	1	0.1109	0.3781	0	1	0.506	0	82	82
22	1	404	0	2	2	0.1109	0.3781	1	1	0.468	9	0	82
22	1	405	0	2	2	0.1109	0.3781	0	1	0.487	9	82	82
22	1	406	1	2	3	0.1109	0.3781	1	1	0.538	81	82	0
22	1	407	9	1	1	0.1109	0.3781	1	0	0.524	0	82	0
22	1	408	1	1	3	0.1109	0.3781	1	1	0.558	79	0	82
22	1	409	1	1	1	0.1109	0.3781	1	1	0.580	77	0	82
22	1	410	0	2	1	0.1109	0.3781	1	1	0.398	10	0	82
22	1	411	0	1	2	0.1109	0.3781	1	1	0.638	7	82	0
22	1	412	9	1	1	0.1109	0.3781	1	1	0.453	0	82	0
22	1	413	9	1	3	0.1109	0.3781	0	1	0.597	0	0	0
22	1	414	1	2	3	0.1109	0.3781	0	1	0.510	84	0	0
22	1	415	1	1	3	0.1109	0.3781	0	1	0.470	88	0	0
22	1	416	1	1	3	0.1109	0.3781	1	0	0.487	0	0	82
22	1	417	1	2	1	0.1109	0.3781	0	1	0.555	79	0	0
22	1	418	9	2	2	0.1109	0.3781	1	1	0.693	0	0	82
22	1	419	0	2	1	0.1109	0.3781	1	1	0.485	9	0	82
22	1	420	9	1	3	0.1109	0.3781	1	1	0.636	0	82	0
22	1	421	0	1	3	0.1109	0.3781	0	1	0.466	9	82	82
22	1	422	0	2	2	0.1109	0.3781	0	1	0.477	9	82	82
22	1	423	1	2	3	0.1109	0.3781	1	1	0.506	84	82	0
22	1	424	1	1	3	0.1109	0.3781	1	0	0.479	0	0	82
22	1	425	1	1	3	0.1109	0.3781	0	1	0.397	95	0	0
22	1	426	0	2	3	0.1109	0.3781	0	1	0.655	7	82	82
22	1	427	1	1	1	0.1109	0.3781	1	1	0.559	79	0	82
22	1	428	0	1	1	0.1109	0.3781	1	1	0.456	9	82	0
22	1	429	1	1	1	0.1109	0.3781	0	1	0.402	95	0	0
22	1	430	9	2	3	0.1109	0.3781	0	1	0.672	0	0	0
22	1	431	0	1	3	0.1109	0.3781	1	1	0.735	6	82	0
22	1	432	9	1	3	0.1109	0.3781	1	0	0.510	0	0	82
22	1	433	1	2	1	0.1109	0.3781	0	1	0.618	73	0	0
22	1	434	0	2	2	0.1109	0.3781	0	1	0.433	9	82	82
22	1	435	0	1	2	0.1109	0.3781	1	1	0.779	6	82	0
22	1	436	0	2	3	0.1109	0.3781	0	1	0.371	10	82	82
22	1	437	1	2	2	0.1109	0.3781	1	1	0.468	88	82	0
22	1	438	1	1	1	0.1109	0.3781	1	1	0.573	78	0	82
22	1	439	0	1	3	0.1109	0.3781	1	1	0.591	8	82	0
22	1	440	1	2	2	0.1109	0.3781	0	1	0.637	71	0	0
22	1	441	0	1	3	0.1109	0.3781	0	1	0.422	9	82	82
22	1	442	9	1	2	0.1109	0.3781	0	1	0.390	0	0	0
22	1	443	9	2	2	0.1109	0.3781	1	1	0.453	0	82	0
22	1	444	0	1	1	0.1109	0.3781	1	0	0.470	0	82	0
22	1	445	0	2	3	0.1109	0.3781	1	1	0.524	8	0	82
22	1	446	0	1	2	0.1109	0.3781	0	1	0.456	9	82	82
22	1	447	9	1	2	0.1109	0.3781	1	1	0.622	0	0	82
22	1	448	0	2	3	0.1109	0.3781	0	1	0.563	8	82	82
22	1	449	9	2	2	0.1109	0.3781	1	1	0.521	0	0	82
22	1	450	0	1	1	0.1109	0.3781	0	1	0.419	9	82	82
22	1	451	1	2	2	0.1109	0.3781	1	1	0.378	97	82	0
22	1	452	0	2	1	0.1109	0.3781	1	1	0.472	9	0	82
22	1	453	9	2	1	0.1109	0.3781	0	1	0.432	0	82	82
22	1	454	9	2	2	0.1109	0.3781	1	1	0.659	0	82	0
22	1	455	0	1	3	0.1109	0.3781	0	1	0.470	9	82	82
22	1	456	0	2	2	0.1109	0.3781	0	1	0.382	10	82	82
22	1	457	1	2	3	0.1109	0.3781	0	1	0.434	92	0	0
22	1	458	1	2	2	0.1109	0.3781	0	1	0.505	85	0	0
22	1	459	1	1	1	0.1109	0.3781	1	1	0.632	72	0	82
22	1	460	1	2	2	0.1109	0.3781	1	1	0.403	95	82	0
22	1	461	1	2	3	0.1109	0.3781	0	1	0.435	91	0	0
22	1	462	9	1	1	0.1109	0.3781	0	1	0.586	0	0	0
22	1	463	1	2	3	0.1109	0.3781	0	1	0.327	100	0	0
22	1	464	1	2	3	0.1109	0.3781	0	1	0.385	97	0	0
22	1	465	1	2	2	0.1109	0.3781	0	1	0.349	100	0	0
22	1	466	0	1	2	0.1109	0.3781	1	0	0.406	0	82	0
22	1	467	0	2	3	0.1109	0.3781	0	1	0.482	9	82	82
22	1	468	0	2	3	0.1109	0.3781	0	1	0.410	9	82	82
22	1	469	9	1	1	0.1109	0.3781	1	0	0.455	0	0	82
22	1	470	1	2	2	0.1109	0.3781	0	1	0.418	93	0	0
22	1	471	0	2	1	0.1109	0.3781	0	1	0.468	9	82	82
22	1	472	1	1	1	0.1109	0.3781	0	1	0.422	93	0	0
22	1	473	1	1	1	0.1109	0.3781	0	1	0.415	94	0	0
22	1	474	1	2	2	0.1109	0.3781	0	1	0.438	91	0	0
22	1	475	0	1	3	0.1109	0.3781	1	1	0.528	8	82	0
22	1	476	0	1	1	0.1109	0.3781	0	1	0.404	9	82	82
22	1	477	1	1	1	0.1109	0.3781	0	1	0.437	91	0	0
22	1	478	0	1	1	0.1109	0.3781	1	1	0.550	8	82	0
22	1	479	0	2	3	0.1109	0.3781	1	1	0.586	8	0	82
22	1	480	1	2	2	0.1109	0.3781	0	1	0.493	86	0	0
22	1	481	1	1	3	0.1109	0.3781	1	0	0.996	0	0	82
22	1	482	1	2	2	0.1109	0.3781	1	1	0.336	100	82	0
22	1	483	1	1	3	0.1109	0.3781	0	1	0.399	95	0	0
22	1	484	9	1	3	0.1109	0.3781	1	0	0.503	0	82	0
22	1	485	0	1	2	0.1109	0.3781	0	1	0.421	9	82	82
22	1	486	1	1	1	0.1109	0.3781	0	1	0.580	77	0	0
22	1	487	1	2	3	0.1109	0.3781	1	1	0.549	80	82	0
22	1	488	1	1	1	0.1109	0.3781	0	1	0.520	83	0	0
22	1	489	1	2	3	0.1109	0.3781	0	1	0.678	67	0	0
22	1	490	0	1	2	0.1109	0.3781	1	0	0.495	0	82	0
22	1	491	0	2	2	0.1109	0.3781	1	1	0.648	7	0	82
22	1	492	9	1	3	0.1109	0.3781	1	0	0.476	0	82	0
22	1	493	9	2	3	0.1109	0.3781	1	1	0.368	0	82	0
22	1	494	1	2	2	0.1109	0.3781	0	1	0.540	81	0	0
22	1	495	0	1	1	0.1109	0.3781	0	1	0.466	9	82	82
22	1	496	9	2	2	0.1109	0.3781	0	1	0.494	0	0	0
22	1	497	0	2	2	0.1109	0.3781	1	1	0.581	8	0	82
22	1	498	1	1	3	0.1109	0.3781	1	1	0.767	58	0	82
22	1	499	1	2	3	0.1109	0.3781	0	1	0.562	79	0	0
22	1	500	0	2	3	0.1109	0.3781	1	1	0.647	7	0	82
22	1	501	1	2	2	0.1109	0.3781	1	1	0.712	64	82	0
22	1	502	0	1	1	0.1109	0.3781	0	1	0.509	8	82	82
22	1	503	1	1	3	0.1109	0.3781	1	1	0.556	79	0	82
22	1	504	0	2	2	0.1109	0.3781	1	1	0.476	9	0	82
22	1	505	9	2	2	0.1109	0.3781	0	1	0.505	0	82	82
22	1	506	9	1	3	0.1109	0.3781	1	0	0.811	0	82	0
22	1	507	1	2	3	0.1109	0.3781	0	1	0.444	91	0	0
22	1	508	9	1	1	0.1109	0.3781	0	1	0.600	0	0	0
22	1	509	1	1	3	0.1109	0.3781	1	1	0.678	67	0	82
22	1	510	1	2	3	0.1109	0.3781	0	0	0.536	0	0	0
22	1	511	1	1	3	0.1109	0.3781	1	1	0.567	78	0	82
22	1	512	0	2	2	0.1109	0.3781	1	1	0.961	5	0	82
22	1	513	0	1	1	0.1109	0.3781	1	1	0.687	7	82	0
22	1	514	1	1	3	0.1109	0.3781	0	1	0.679	67	0	0
22	1	515	1	2	2	0.1109	0.3781	1	1	0.878	50	82	0
22	1	516	1	1	1	0.1109	0.3781	1	0	0.870	0	0	82
22	1	517	0	2	3	0.1109	0.3781	0	1	0.506	8	82	82
22	1	518	1	2	3	0.1109	0.3781	1	1	0.959	50	82	0
22	1	519	1	1	3	0.1109	0.3781	0	1	0.524	83	0	0
22	1	520	1	1	3	0.1109	0.3781	0	1	0.390	96	0	0
22	1	521	1	1	3	0.1109	0.3781	0	1	0.338	100	0	0
22	1	522	1	1	1	0.1109	0.3781	0	1	0.419	93	0	0
22	1	523	0	1	3	0.1109	0.3781	1	0	0.752	0	82	0
22	1	524	9	1	1	0.1109	0.3781	1	1	0.595	0	0	82
22	1	525	0	1	3	0.1109	0.3781	1	1	0.544	8	82	0
22	1	526	0	1	1	0.1109	0.3781	0	1	0.479	9	82	82
22	1	527	9	2	1	0.1109	0.3781	0	1	0.420	0	0	0
22	1	528	0	2	3	0.1109	0.3781	1	1	0.414	9	0	82
22	1	529	1	2	2	0.1109	0.3781	0	1	0.375	98	0	0
22	1	530	9	1	1	0.1109	0.3781	1	1	0.600	0	82	0
22	1	531	1	2	3	0.1109	0.3781	1	1	0.500	85	82	0
22	1	532	9	2	2	0.1109	0.3781	1	1	0.520	0	82	0
22	1	533	0	2	3	0.1109	0.3781	1	1	0.380	10	0	82
22	1	534	9	1	1	0.1109	0.3781	1	1	0.485	0	82	0
22	1	535	1	2	2	0.1109	0.3781	0	1	0.473	88	0	0
22	1	536	1	2	1	0.1109	0.3781	1	1	0.872	50	82	0
22	1	537	0	2	2	0.1109	0.3781	1	1	0.566	8	0	82
22	1	538	1	1	1	0.1109	0.3781	1	1	0.741	61	0	82
22	1	539	1	1	3	0.1109	0.3781	0	1	0.496	85	0	0
22	1	540	1	1	1	0.1109	0.3781	0	1	0.439	91	0	0
22	1	541	1	1	3	0.1109	0.3781	0	1	0.458	89	0	0
22	1	542	9	1	1	0.1109	0.3781	1	1	0.715	0	0	82
22	1	543	0	1	3	0.1109	0.3781	1	1	0.691	7	82	0
22	1	544	0	1	1	0.1109	0.3781	1	0	0.446	0	82	0
22	1	545	9	1	1	0.1109	0.3781	0	1	0.695	0	82	82
22	1	546	1	2	2	0.1109	0.3781	1	1	0.400	95	82	0
22	1	547	1	2	2	0.1109	0.3781	1	1	0.370	98	82	0
22	1	548	9	2	3	0.1109	0.3781	0	1	0.483	0	82	82
22	1	549	9	2	1	0.1109	0.3781	1	1	0.459	0	82	0
22	1	550	0	2	2	0.1109	0.3781	1	1	0.452	9	0	82
22	1	551	1	1	1	0.1109	0.3781	0	1	0.805	55	0	0
22	1	552	1	2	2	0.1109	0.3781	0	0	0.574	0	0	0
22	1	553	1	1	3	0.1109	0.3781	0	0	0.536	0	0	0
22	1	554	9	2	2	0.1109	0.3781	1	1	0.447	0	0	82
22	1	555	0	1	3	0.1109	0.3781	0	0	0.569	0	82	82
22	1	556	0	1	3	0.1109	0.3781	0	1	0.651	7	82	82
22	1	557	0	1	1	0.1109	0.3781	0	1	0.490	9	82	82
22	1	558	0	1	3	0.1109	0.3781	0	1	0.459	9	82	82
22	1	559	0	1	1	0.1109	0.3781	1	0	0.464	0	82	0
22	1	560	9	1	3	0.1109	0.3781	1	1	0.654	0	0	82
22	1	561	0	2	3	0.1109	0.3781	0	1	0.431	9	82	82
22	1	562	1	2	3	0.1109	0.3781	0	1	0.406	94	0	0
22	1	563	0	2	1	0.1109	0.3781	0	1	0.465	9	82	82
22	1	564	0	2	2	0.1109	0.3781	1	1	0.463	9	0	82
22	1	565	1	1	1	0.1109	0.3781	1	1	0.526	82	0	82
22	1	566	0	1	1	0.1109	0.3781	0	1	0.428	9	82	82
22	1	567	1	1	1	0.1109	0.3781	0	1	0.411	94	0	0
22	1	568	1	2	1	0.1109	0.3781	0	1	0.555	79	0	0
22	1	569	1	2	3	0.1109	0.3781	1	1	0.483	87	82	0
22	1	570	0	1	3	0.1109	0.3781	1	0	0.477	0	82	0
22	1	571	0	2	3	0.1109	0.3781	1	1	0.495	9	0	82
22	1	572	9	2	3	0.1109	0.3781	1	1	0.422	0	82	0
22	1	573	1	1	3	0.1109	0.3781	1	1	0.554	80	0	82
22	1	574	1	1	1	0.1109	0.3781	1	1	0.472	88	0	82
22	1	575	9	1	3	0.1109	0.3781	0	1	0.462	0	82	82
22	1	576	1	2	2	0.1109	0.3781	1	1	0.359	99	82	0
22	1	577	9	1	3	0.1109	0.3781	1	1	0.475	0	0	82
22	1	578	1	2	2	0.1109	0.3781	1	1	0.445	91	82	0
22	1	579	0	2	2	0.1109	0.3781	0	1	0.505	8	82	82
22	1	580	1	1	2	0.1109	0.3781	0	1	0.589	76	0	0
22	1	581	1	1	1	0.1109	0.3781	0	1	0.426	92	0	0
22	1	582	1	2	3	0.1109	0.3781	1	1	0.649	70	82	0
22	1	583	0	1	3	0.1109	0.3781	0	1	0.394	10	82	82
22	1	584	1	1	3	0.1109	0.3781	1	1	0.837	51	0	82
22	1	585	0	2	3	0.1109	0.3781	1	1	0.457	9	0	82
22	1	586	0	1	1	0.1109	0.3781	1	1	0.699	7	82	0
22	1	587	9	1	1	0.1109	0.3781	0	1	0.817	0	0	0
22	1	588	1	2	3	0.1109	0.3781	1	1	0.430	92	82	0
22	1	589	0	2	2	0.1109	0.3781	0	1	0.557	8	82	82
22	1	590	0	2	2	0.1109	0.3781	0	1	0.505	8	82	82
22	1	591	1	1	1	0.1109	0.3781	1	1	0.760	59	0	82
22	1	592	9	1	3	0.1109	0.3781	0	1	0.568	0	82	82
22	1	593	0	1	1	0.1109	0.3781	0	1	0.792	6	82	82
22	1	594	0	2	3	0.1109	0.3781	1	1	0.605	7	0	82
22	1	595	9	1	1	0.1109	0.3781	0	1	0.398	0	82	82
22	1	596	1	1	1	0.1109	0.3781	1	1	0.753	60	0	82
22	1	597	9	1	3	0.1109	0.3781	0	1	0.462	0	0	0
22	1	598	1	1	1	0.1109	0.3781	0	1	0.383	97	0	0
22	1	599	9	2	2	0.1109	0.3781	0	1	0.502	0	0	0
22	1	600	1	2	2	0.1109	0.3781	0	1	0.366	98	0	0
22	1	601	1	2	3	0.1109	0.3781	1	1	0.420	93	82	0
22	1	602	0	1	1	0.1109	0.3781	0	1	0.520	8	82	82
22	1	603	0	1	1	0.1109	0.3781	1	1	0.468	9	82	0
22	1	604	1	1	2	0.1109	0.3781	0	1	0.456	89	0	0
22	1	605	1	1	2	0.1109	0.3781	1	1	0.578	77	0	82
22	1	606	0	2	3	0.1109	0.3781	1	0	1.305	0	0	82
22	1	607	1	1	1	0.1109	0.3781	1	1	0.583	77	0	82
22	1	608	0	2	3	0.1109	0.3781	1	1	0.411	9	0	82
22	1	609	0	1	3	0.1109	0.3781	1	1	0.494	9	82	0
22	1	610	0	2	2	0.1109	0.3781	1	1	0.405	9	0	82
22	1	611	1	1	3	0.1109	0.3781	0	1	0.538	81	0	0
22	1	612	1	2	3	0.1109	0.3781	1	1	0.401	95	82	0
22	1	613	0	1	1	0.1109	0.3781	0	1	0.487	9	82	82
22	1	614	9	1	2	0.1109	0.3781	0	1	0.412	0	82	82
22	1	615	1	2	2	0.1109	0.3781	1	1	0.475	87	82	0
22	1	616	0	1	3	0.1109	0.3781	1	1	0.809	5	82	0
22	1	617	9	1	1	0.1109	0.3781	0	1	0.495	0	82	82
22	1	618	0	1	1	0.1109	0.3781	1	1	0.685	7	82	0
22	1	619	0	2	2	0.1109	0.3781	0	1	0.547	8	82	82
22	1	620	9	2	3	0.1109	0.3781	1	1	0.515	0	0	82
22	1	621	1	1	3	0.1109	0.3781	1	1	0.666	68	0	82
22	1	622	9	2	2	0.1109	0.3781	0	1	0.435	0	0	0
22	1	623	1	2	1	0.1109	0.3781	1	1	0.424	93	82	0
22	1	624	0	2	2	0.1109	0.3781	0	0	0.413	0	82	82
22	1	625	1	2	2	0.1109	0.3781	0	0	0.360	0	0	0
22	1	626	0	1	3	0.1109	0.3781	0	0	0.568	0	82	82
22	1	627	0	1	1	0.1109	0.3781	1	1	0.616	7	82	0
22	1	628	1	2	2	0.1109	0.3781	1	1	0.782	57	82	0
22	1	629	0	2	2	0.1109	0.3781	0	0	0.421	0	82	82
22	1	630	0	1	1	0.1109	0.3781	0	0	0.496	0	82	82
22	1	631	0	2	3	0.1109	0.3781	1	1	0.840	5	0	82
22	1	632	9	2	3	0.1109	0.3781	1	1	0.609	0	82	0
22	1	633	1	2	3	0.1109	0.3781	0	1	0.489	86	0	0
22	1	634	0	2	2	0.1109	0.3781	0	1	0.390	10	82	82
22	1	635	0	2	3	0.1109	0.3781	0	1	0.466	9	82	82
22	1	636	0	2	2	0.1109	0.3781	0	1	0.397	10	82	82
22	1	637	0	2	2	0.1109	0.3781	1	0	0.890	0	0	82
22	1	638	9	2	3	0.1109	0.3781	1	1	0.768	0	0	82
22	1	639	0	2	3	0.1109	0.3781	1	1	0.312	10	0	82
22	1	640	0	1	3	0.1109	0.3781	0	1	0.504	8	82	82
22	1	641	0	2	2	0.1109	0.3781	0	1	0.479	9	82	82
22	1	642	9	1	3	0.1109	0.3781	0	1	0.435	0	82	82
22	1	643	9	2	3	0.1109	0.3781	1	1	0.421	0	82	0
22	1	644	1	1	1	0.1109	0.3781	0	1	0.424	93	0	0
22	1	645	0	1	3	0.1109	0.3781	1	1	0.785	6	82	0
22	1	646	0	1	3	0.1109	0.3781	0	1	0.466	9	82	82
22	1	647	0	2	3	0.1109	0.3781	0	1	0.507	8	82	82
22	1	648	9	2	3	0.1109	0.3781	0	1	0.406	0	82	82
22	1	649	1	2	3	0.1109	0.3781	1	1	0.731	62	82	0
22	1	650	9	2	2	0.1109	0.3781	0	1	0.515	0	82	82
22	1	651	0	2	1	0.1109	0.3781	1	1	0.444	9	0	82
22	1	652	9	1	2	0.1109	0.3781	1	0	0.601	0	82	0
22	1	653	0	2	2	0.1109	0.3781	1	1	0.418	9	0	82
22	1	654	1	1	3	0.1109	0.3781	1	1	0.527	82	0	82
22	1	655	0	1	1	0.1109	0.3781	0	1	0.490	9	82	82
22	1	656	9	2	2	0.1109	0.3781	0	1	0.376	0	82	82
22	1	657	1	2	2	0.1109	0.3781	1	1	0.418	93	82	0
22	1	658	9	1	3	0.1109	0.3781	0	1	0.409	0	82	82
22	1	659	9	2	3	0.1109	0.3781	0	1	0.382	0	82	82
22	1	660	0	1	3	0.1109	0.3781	1	0	0.799	0	82	0
22	1	661	0	1	1	0.1109	0.3781	1	1	0.806	5	82	0
22	1	662	0	2	3	0.1109	0.3781	1	1	0.338	10	0	82
22	1	663	1	1	2	0.1109	0.3781	1	1	0.563	79	0	82
22	1	664	1	2	2	0.1109	0.3781	1	1	0.347	100	82	0
22	1	665	9	2	1	0.1109	0.3781	1	1	0.419	0	0	82
22	1	666	0	1	3	0.1109	0.3781	1	1	0.489	9	82	0
22	1	667	9	2	3	0.1109	0.3781	0	1	0.512	0	0	0
22	1	668	1	2	2	0.1109	0.3781	1	0	0.623	0	82	0
22	1	669	1	1	1	0.1109	0.3781	1	1	0.527	82	0	82
22	1	670	0	2	2	0.1109	0.3781	0	1	0.450	9	82	82
22	1	671	0	2	1	0.1109	0.3781	0	1	0.523	8	82	82
22	1	672	1	2	1	0.1109	0.3781	1	1	0.758	59	82	0
22	1	673	0	2	1	0.1109	0.3781	0	1	0.361	10	82	82
22	1	674	0	1	1	0.1109	0.3781	1	0	1.165	0	82	0
22	1	675	0	1	3	0.1109	0.3781	1	1	0.648	7	82	0
22	1	676	1	2	1	0.1109	0.3781	1	1	0.744	61	82	0
22	1	677	9	1	1	0.1109	0.3781	1	1	0.632	0	0	82
22	1	678	1	1	1	0.1109	0.3781	1	1	0.455	89	0	82
22	1	679	1	2	3	0.1109	0.3781	0	1	0.674	68	0	0
22	1	680	1	1	2	0.1109	0.3781	1	1	0.501	85	0	82
22	1	681	1	1	3	0.1109	0.3781	0	1	0.542	81	0	0
22	1	682	0	1	1	0.1109	0.3781	1	0	0.388	0	82	0
22	1	683	1	2	3	0.1109	0.3781	0	0	0.570	0	0	0
22	1	684	0	1	3	0.1109	0.3781	1	1	0.668	7	82	0
22	1	685	0	1	3	0.1109	0.3781	0	1	0.462	9	82	82
22	1	686	1	1	3	0.1109	0.3781	0	1	0.500	85	0	0
22	1	687	0	1	1	0.1109	0.3781	1	0	0.415	0	82	0
22	1	688	1	2	3	0.1109	0.3781	0	1	0.599	75	0	0
22	1	689	1	2	1	0.1109	0.3781	0	1	0.424	93	0	0
22	1	690	1	1	1	0.1109	0.3781	1	1	0.667	68	0	82
22	1	691	9	2	3	0.1109	0.3781	1	1	0.442	0	0	82
22	1	692	0	1	3	0.1109	0.3781	1	1	0.508	8	82	0
22	1	693	0	1	3	0.1109	0.3781	0	1	0.486	9	82	82
22	1	694	0	1	3	0.1109	0.3781	0	1	0.439	9	82	82
22	1	695	9	1	1	0.1109	0.3781	0	1	0.455	0	0	0
22	1	696	1	1	3	0.1109	0.3781	1	0	0.673	0	0	82
22	1	697	1	2	2	0.1109	0.3781	0	0	0.528	0	0	0
22	1	698	0	2	2	0.1109	0.3781	1	1	0.522	8	0	82
22	1	699	0	1	1	0.1109	0.3781	0	1	0.416	9	82	82
22	1	700	9	2	2	0.1109	0.3781	0	1	0.561	0	82	82
22	1	701	0	2	3	0.1109	0.3781	0	1	0.500	9	82	82
22	1	702	1	2	3	0.1109	0.3781	0	1	0.386	96	0	0
22	1	703	1	2	3	0.1109	0.3781	1	1	0.530	82	82	0
22	1	704	1	2	3	0.1109	0.3781	1	1	0.480	87	82	0
22	1	705	0	1	3	0.1109	0.3781	1	0	0.683	0	82	0
22	1	706	9	1	3	0.1109	0.3781	0	1	0.527	0	0	0
22	1	707	9	2	3	0.1109	0.3781	0	1	0.607	0	0	0
22	1	708	0	2	3	0.1109	0.3781	1	1	0.444	9	0	82
22	1	709	1	1	2	0.1109	0.3781	1	0	0.539	0	0	82
22	1	710	0	1	1	0.1109	0.3781	0	1	0.512	8	82	82
22	1	711	0	2	3	0.1109	0.3781	0	1	0.468	9	82	82
22	1	712	9	2	2	0.1109	0.3781	1	1	0.440	0	82	0
22	1	713	0	2	2	0.1109	0.3781	1	1	0.371	10	0	82
22	1	714	1	2	3	0.1109	0.3781	1	1	0.434	92	82	0
22	1	715	1	2	2	0.1109	0.3781	0	0	0.443	0	0	0
22	1	716	1	1	3	0.1109	0.3781	0	0	4.020	0	0	0
22	1	717	9	2	2	0.1109	0.3781	0	1	0.512	0	0	0
22	1	718	1	2	2	0.1109	0.3781	0	1	0.297	100	0	0
22	1	719	0	2	3	0.1109	0.3781	1	1	0.474	9	0	82
22	1	720	1	1	1	0.1109	0.3781	1	0	0.552	0	0	82
