sub	sess	t	rew	loc	cue	co1	co2	or	resp	rt	rew_tot	left_col	right_col
137	1	1	0	2	3	0.0500	0.0688	0	1	0.501	8	0	0
137	1	2	9	1	3	0.0500	0.0688	0	1	0.456	0	0	0
137	1	3	9	1	2	0.0500	0.0688	1	0	0.569	0	0	82
137	1	4	9	1	3	0.0500	0.0688	1	1	0.640	0	0	82
137	1	5	1	1	1	0.0500	0.0688	0	1	0.452	90	82	82
137	1	6	9	2	2	0.0500	0.0688	1	1	0.601	0	82	0
137	1	7	0	1	1	0.0500	0.0688	0	1	0.456	9	0	0
137	1	8	1	1	2	0.0500	0.0688	0	1	0.478	87	82	82
137	1	9	1	1	3	0.0500	0.0688	1	1	0.626	72	82	0
137	1	10	1	1	3	0.0500	0.0688	0	1	0.532	82	82	82
137	1	11	0	1	1	0.0500	0.0688	1	1	0.492	9	0	82
137	1	12	0	2	1	0.0500	0.0688	0	1	0.486	9	0	0
137	1	13	0	2	3	0.0500	0.0688	1	0	0.552	0	82	0
137	1	14	0	1	3	0.0500	0.0688	0	0	0.505	0	0	0
137	1	15	1	1	1	0.0500	0.0688	1	1	0.451	90	82	0
137	1	16	1	1	1	0.0500	0.0688	0	1	0.477	87	82	82
137	1	17	1	1	1	0.0500	0.0688	1	1	0.395	96	82	0
137	1	18	0	1	3	0.0500	0.0688	1	1	0.463	9	0	82
137	1	19	9	1	3	0.0500	0.0688	0	0	0.445	0	82	82
137	1	20	0	1	1	0.0500	0.0688	0	0	0.445	0	0	0
137	1	21	9	1	3	0.0500	0.0688	1	1	0.503	0	0	82
137	1	22	1	2	3	0.0500	0.0688	0	1	0.445	91	82	82
137	1	23	1	1	2	0.0500	0.0688	0	1	0.440	91	82	82
137	1	24	0	1	2	0.0500	0.0688	0	1	0.461	9	0	0
137	1	25	9	1	3	0.0500	0.0688	0	1	0.425	0	0	0
137	1	26	1	2	2	0.0500	0.0688	1	1	0.420	93	0	82
137	1	27	1	1	3	0.0500	0.0688	1	1	0.446	90	82	0
137	1	28	0	1	3	0.0500	0.0688	0	1	0.428	9	0	0
137	1	29	0	2	3	0.0500	0.0688	0	1	0.502	8	0	0
137	1	30	1	1	3	0.0500	0.0688	0	1	0.386	96	82	82
137	1	31	1	1	1	0.0500	0.0688	1	1	0.379	97	82	0
137	1	32	0	1	3	0.0500	0.0688	1	1	0.414	9	0	82
137	1	33	1	2	1	0.0500	0.0688	1	0	0.359	0	0	82
137	1	34	0	1	3	0.0500	0.0688	0	0	0.374	0	0	0
137	1	35	1	2	3	0.0500	0.0688	0	1	0.411	94	82	82
137	1	36	1	2	3	0.0500	0.0688	0	1	0.430	92	82	82
137	1	37	1	2	3	0.0500	0.0688	0	1	0.451	90	82	82
137	1	38	9	2	3	0.0500	0.0688	1	0	0.372	0	82	0
137	1	39	1	1	2	0.0500	0.0688	1	1	0.422	93	82	0
137	1	40	1	1	1	0.0500	0.0688	1	1	0.439	91	82	0
137	1	41	1	1	1	0.0500	0.0688	0	1	0.504	85	82	82
137	1	42	0	2	3	0.0500	0.0688	0	1	0.479	9	0	0
137	1	43	0	1	3	0.0500	0.0688	0	1	0.412	9	0	0
137	1	44	1	1	3	0.0500	0.0688	1	1	0.496	85	82	0
137	1	45	1	2	1	0.0500	0.0688	0	1	0.369	98	82	82
137	1	46	0	2	3	0.0500	0.0688	0	1	0.385	10	0	0
137	1	47	1	1	1	0.0500	0.0688	1	1	0.445	90	82	0
137	1	48	0	2	3	0.0500	0.0688	1	1	0.418	9	82	0
137	1	49	1	2	3	0.0500	0.0688	0	1	0.395	96	82	82
137	1	50	1	1	1	0.0500	0.0688	1	1	0.373	98	82	0
137	1	51	1	2	2	0.0500	0.0688	0	1	0.428	92	82	82
137	1	52	9	1	1	0.0500	0.0688	0	0	0.352	0	82	82
137	1	53	1	2	3	0.0500	0.0688	0	0	0.429	0	82	82
137	1	54	0	1	3	0.0500	0.0688	1	0	0.513	0	0	82
137	1	55	9	2	3	0.0500	0.0688	0	1	0.418	0	0	0
137	1	56	1	1	3	0.0500	0.0688	1	1	0.424	93	82	0
137	1	57	0	2	1	0.0500	0.0688	0	1	0.490	9	0	0
137	1	58	1	1	3	0.0500	0.0688	0	1	0.517	83	82	82
137	1	59	0	1	3	0.0500	0.0688	0	1	0.439	9	0	0
137	1	60	1	1	3	0.0500	0.0688	0	1	0.454	90	82	82
137	1	61	1	2	3	0.0500	0.0688	0	1	0.411	94	82	82
137	1	62	1	1	3	0.0500	0.0688	0	1	0.426	92	82	82
137	1	63	1	2	1	0.0500	0.0688	0	1	0.404	95	82	82
137	1	64	9	1	3	0.0500	0.0688	1	1	0.537	0	82	0
137	1	65	9	2	1	0.0500	0.0688	0	1	0.433	0	82	82
137	1	66	0	2	3	0.0500	0.0688	0	1	0.374	10	0	0
137	1	67	0	2	3	0.0500	0.0688	0	1	0.435	9	0	0
137	1	68	1	2	2	0.0500	0.0688	1	1	0.461	89	0	82
137	1	69	0	1	2	0.0500	0.0688	1	1	0.457	9	0	82
137	1	70	0	1	3	0.0500	0.0688	1	1	0.413	9	0	82
137	1	71	0	1	3	0.0500	0.0688	0	0	0.405	0	0	0
137	1	72	0	1	3	0.0500	0.0688	0	1	0.488	9	0	0
137	1	73	0	2	2	0.0500	0.0688	0	1	0.391	10	0	0
137	1	74	0	2	3	0.0500	0.0688	1	0	0.530	0	82	0
137	1	75	0	2	2	0.0500	0.0688	0	1	0.422	9	0	0
137	1	76	0	2	2	0.0500	0.0688	1	1	0.452	9	82	0
137	1	77	9	1	2	0.0500	0.0688	0	1	0.485	0	82	82
137	1	78	9	2	2	0.0500	0.0688	0	1	0.315	0	0	0
137	1	79	9	1	1	0.0500	0.0688	0	1	0.429	0	0	0
137	1	80	0	2	3	0.0500	0.0688	0	1	0.453	9	0	0
137	1	81	1	2	3	0.0500	0.0688	0	1	0.395	95	82	82
137	1	82	0	2	2	0.0500	0.0688	1	0	0.387	0	82	0
137	1	83	1	2	2	0.0500	0.0688	0	1	0.361	99	82	82
137	1	84	0	1	3	0.0500	0.0688	0	1	0.373	10	0	0
137	1	85	1	2	3	0.0500	0.0688	1	1	0.350	100	0	82
137	1	86	9	2	3	0.0500	0.0688	0	1	0.401	0	82	82
137	1	87	0	1	1	0.0500	0.0688	0	1	0.440	9	0	0
137	1	88	0	2	2	0.0500	0.0688	0	1	0.462	9	0	0
137	1	89	0	1	1	0.0500	0.0688	0	1	0.355	10	0	0
137	1	90	9	1	1	0.0500	0.0688	0	1	0.334	0	0	0
137	1	91	0	2	2	0.0500	0.0688	1	0	0.466	0	82	0
137	1	92	9	2	2	0.0500	0.0688	0	1	0.391	0	82	82
137	1	93	0	2	2	0.0500	0.0688	1	1	0.400	9	82	0
137	1	94	1	1	1	0.0500	0.0688	1	1	0.485	87	82	0
137	1	95	0	2	3	0.0500	0.0688	0	1	0.435	9	0	0
137	1	96	0	2	3	0.0500	0.0688	1	1	0.546	8	82	0
137	1	97	1	2	3	0.0500	0.0688	0	1	0.429	92	82	82
137	1	98	1	2	3	0.0500	0.0688	1	1	0.490	86	0	82
137	1	99	1	1	2	0.0500	0.0688	0	1	0.576	77	82	82
137	1	100	1	1	3	0.0500	0.0688	0	1	0.446	90	82	82
137	1	101	9	2	3	0.0500	0.0688	1	1	0.693	0	0	82
137	1	102	0	2	3	0.0500	0.0688	1	1	0.550	8	82	0
137	1	103	9	1	2	0.0500	0.0688	0	0	0.345	0	0	0
137	1	104	1	1	3	0.0500	0.0688	0	1	0.643	71	82	82
137	1	105	9	2	3	0.0500	0.0688	1	1	0.409	0	82	0
137	1	106	1	2	3	0.0500	0.0688	1	1	0.514	84	0	82
137	1	107	0	1	1	0.0500	0.0688	0	1	0.410	9	0	0
137	1	108	0	1	3	0.0500	0.0688	1	0	0.520	0	0	82
137	1	109	0	1	3	0.0500	0.0688	1	1	0.385	10	0	82
137	1	110	9	1	1	0.0500	0.0688	0	1	0.369	0	0	0
137	1	111	0	1	1	0.0500	0.0688	0	1	0.459	9	0	0
137	1	112	9	2	2	0.0500	0.0688	1	1	0.312	0	0	82
137	1	113	0	1	1	0.0500	0.0688	1	0	0.340	0	0	82
137	1	114	1	2	2	0.0500	0.0688	0	1	0.470	88	82	82
137	1	115	0	2	3	0.0500	0.0688	1	1	0.470	9	82	0
137	1	116	9	2	3	0.0500	0.0688	0	0	0.439	0	0	0
137	1	117	1	1	1	0.0500	0.0688	0	1	0.394	96	82	82
137	1	118	0	1	1	0.0500	0.0688	1	1	0.694	7	0	82
137	1	119	1	2	2	0.0500	0.0688	0	1	0.444	91	82	82
137	1	120	1	2	2	0.0500	0.0688	1	1	0.367	98	0	82
137	1	121	0	1	1	0.0500	0.0688	1	1	0.386	10	0	82
137	1	122	0	2	3	0.0500	0.0688	1	1	0.555	8	82	0
137	1	123	9	1	3	0.0500	0.0688	1	1	0.471	0	82	0
137	1	124	0	1	3	0.0500	0.0688	0	1	0.416	9	0	0
137	1	125	0	1	1	0.0500	0.0688	0	1	0.426	9	0	0
137	1	126	0	1	1	0.0500	0.0688	0	1	0.428	9	0	0
137	1	127	1	2	3	0.0500	0.0688	1	1	0.439	91	0	82
137	1	128	1	2	2	0.0500	0.0688	1	1	0.433	92	0	82
137	1	129	1	2	3	0.0500	0.0688	1	1	0.402	95	0	82
137	1	130	1	2	2	0.0500	0.0688	0	0	0.533	0	82	82
137	1	131	1	1	3	0.0500	0.0688	1	1	0.561	79	82	0
137	1	132	0	2	2	0.0500	0.0688	1	1	0.411	9	82	0
137	1	133	0	2	1	0.0500	0.0688	1	1	0.459	9	82	0
137	1	134	1	1	1	0.0500	0.0688	1	1	0.435	91	82	0
137	1	135	9	1	1	0.0500	0.0688	0	1	0.447	0	82	82
137	1	136	9	1	1	0.0500	0.0688	1	1	0.403	0	0	82
137	1	137	1	2	1	0.0500	0.0688	1	1	0.466	88	0	82
137	1	138	0	2	2	0.0500	0.0688	1	1	0.486	9	82	0
137	1	139	1	1	3	0.0500	0.0688	0	1	0.520	83	82	82
137	1	140	0	1	1	0.0500	0.0688	0	1	0.435	9	0	0
137	1	141	1	2	2	0.0500	0.0688	1	1	0.455	90	0	82
137	1	142	1	2	2	0.0500	0.0688	0	1	0.387	96	82	82
137	1	143	9	1	1	0.0500	0.0688	1	1	0.450	0	82	0
137	1	144	0	1	1	0.0500	0.0688	0	1	0.522	8	0	0
137	1	145	1	1	1	0.0500	0.0688	1	1	0.478	87	82	0
137	1	146	1	1	1	0.0500	0.0688	0	1	0.423	93	82	82
137	1	147	0	1	1	0.0500	0.0688	0	1	0.444	9	0	0
137	1	148	1	1	3	0.0500	0.0688	0	1	0.508	84	82	82
137	1	149	1	1	2	0.0500	0.0688	0	1	0.542	81	82	82
137	1	150	0	1	3	0.0500	0.0688	1	1	0.425	9	0	82
137	1	151	1	1	3	0.0500	0.0688	0	1	0.442	91	82	82
137	1	152	9	1	3	0.0500	0.0688	1	0	0.496	0	0	82
137	1	153	9	1	3	0.0500	0.0688	0	1	0.457	0	0	0
137	1	154	1	2	2	0.0500	0.0688	0	1	0.573	78	82	82
137	1	155	1	2	2	0.0500	0.0688	1	1	0.427	92	0	82
137	1	156	9	1	3	0.0500	0.0688	1	1	0.661	0	0	82
137	1	157	1	2	3	0.0500	0.0688	1	1	0.580	77	0	82
137	1	158	1	2	3	0.0500	0.0688	1	1	0.502	85	0	82
137	1	159	1	1	1	0.0500	0.0688	0	1	0.404	95	82	82
137	1	160	1	1	3	0.0500	0.0688	1	1	0.570	78	82	0
137	1	161	1	1	3	0.0500	0.0688	1	0	0.562	0	82	0
137	1	162	0	1	3	0.0500	0.0688	1	1	0.436	9	0	82
137	1	163	0	1	3	0.0500	0.0688	0	1	0.450	9	0	0
137	1	164	0	1	1	0.0500	0.0688	1	1	0.446	9	0	82
137	1	165	1	2	3	0.0500	0.0688	0	1	0.500	85	82	82
137	1	166	0	1	1	0.0500	0.0688	1	1	0.452	9	0	82
137	1	167	1	2	3	0.0500	0.0688	1	1	0.474	88	0	82
137	1	168	0	1	3	0.0500	0.0688	1	0	0.468	0	0	82
137	1	169	1	2	2	0.0500	0.0688	1	1	0.393	96	0	82
137	1	170	0	2	3	0.0500	0.0688	0	1	0.587	8	0	0
137	1	171	1	2	3	0.0500	0.0688	0	1	0.530	82	82	82
137	1	172	1	1	3	0.0500	0.0688	1	1	0.390	96	82	0
137	1	173	0	2	1	0.0500	0.0688	1	1	0.385	10	82	0
137	1	174	0	2	2	0.0500	0.0688	0	1	0.421	9	0	0
137	1	175	9	2	2	0.0500	0.0688	1	1	0.444	0	82	0
137	1	176	1	1	2	0.0500	0.0688	1	1	0.578	77	82	0
137	1	177	9	2	1	0.0500	0.0688	1	1	0.490	0	0	82
137	1	178	0	2	2	0.0500	0.0688	0	1	0.494	9	0	0
137	1	179	1	1	3	0.0500	0.0688	0	1	0.507	84	82	82
137	1	180	1	1	1	0.0500	0.0688	1	1	0.447	90	82	0
137	1	181	0	1	1	0.0500	0.0688	0	1	0.523	8	0	0
137	1	182	0	2	3	0.0500	0.0688	1	1	0.565	8	82	0
137	1	183	0	2	3	0.0500	0.0688	1	1	0.467	9	82	0
137	1	184	9	2	3	0.0500	0.0688	0	1	0.425	0	82	82
137	1	185	9	2	3	0.0500	0.0688	0	1	0.401	0	0	0
137	1	186	9	2	1	0.0500	0.0688	1	1	0.517	0	82	0
137	1	187	9	2	3	0.0500	0.0688	1	1	0.505	0	0	82
137	1	188	0	2	1	0.0500	0.0688	1	0	0.665	0	82	0
137	1	189	9	2	3	0.0500	0.0688	0	1	0.406	0	0	0
137	1	190	1	1	1	0.0500	0.0688	1	1	0.385	96	82	0
137	1	191	1	1	1	0.0500	0.0688	1	1	0.432	92	82	0
137	1	192	0	1	1	0.0500	0.0688	0	1	0.479	9	0	0
137	1	193	1	1	3	0.0500	0.0688	1	1	0.393	96	82	0
137	1	194	9	2	2	0.0500	0.0688	1	1	0.526	0	0	82
137	1	195	0	1	2	0.0500	0.0688	1	1	0.400	9	0	82
137	1	196	1	2	3	0.0500	0.0688	1	1	0.498	85	0	82
137	1	197	1	1	1	0.0500	0.0688	0	1	0.388	96	82	82
137	1	198	1	2	2	0.0500	0.0688	1	1	0.552	80	0	82
137	1	199	1	2	1	0.0500	0.0688	1	0	0.443	0	0	82
137	1	200	1	1	1	0.0500	0.0688	0	1	0.484	87	82	82
137	1	201	0	2	3	0.0500	0.0688	0	1	0.579	8	0	0
137	1	202	0	2	2	0.0500	0.0688	0	1	0.446	9	0	0
137	1	203	1	2	2	0.0500	0.0688	1	1	0.402	95	0	82
137	1	204	1	2	3	0.0500	0.0688	0	1	0.418	93	82	82
137	1	205	0	2	3	0.0500	0.0688	1	1	0.563	8	82	0
137	1	206	9	2	2	0.0500	0.0688	1	1	0.427	0	82	0
137	1	207	1	2	1	0.0500	0.0688	0	1	0.464	89	82	82
137	1	208	9	1	3	0.0500	0.0688	0	1	0.561	0	82	82
137	1	209	9	2	2	0.0500	0.0688	1	1	0.458	0	0	82
137	1	210	1	2	3	0.0500	0.0688	1	0	0.633	0	0	82
137	1	211	0	2	2	0.0500	0.0688	0	1	0.373	10	0	0
137	1	212	0	1	1	0.0500	0.0688	0	1	0.419	9	0	0
137	1	213	9	2	2	0.0500	0.0688	1	1	0.384	0	0	82
137	1	214	1	1	3	0.0500	0.0688	0	1	0.499	85	82	82
137	1	215	9	2	2	0.0500	0.0688	1	1	0.404	0	82	0
137	1	216	1	2	3	0.0500	0.0688	1	1	0.416	93	0	82
137	1	217	0	1	2	0.0500	0.0688	0	0	0.391	0	0	0
137	1	218	0	1	3	0.0500	0.0688	0	1	0.434	9	0	0
137	1	219	1	1	1	0.0500	0.0688	0	1	0.413	94	82	82
137	1	220	1	2	3	0.0500	0.0688	1	1	0.424	93	0	82
137	1	221	9	1	1	0.0500	0.0688	1	1	0.432	0	82	0
137	1	222	9	2	2	0.0500	0.0688	0	1	0.413	0	0	0
137	1	223	1	2	2	0.0500	0.0688	0	0	0.476	0	82	82
137	1	224	9	1	3	0.0500	0.0688	0	1	0.376	0	0	0
137	1	225	1	2	3	0.0500	0.0688	0	1	0.510	84	82	82
137	1	226	1	2	2	0.0500	0.0688	1	1	0.458	89	0	82
137	1	227	9	1	1	0.0500	0.0688	1	1	0.661	0	0	82
137	1	228	0	1	2	0.0500	0.0688	1	1	0.720	6	0	82
137	1	229	0	1	1	0.0500	0.0688	1	0	0.571	0	0	82
137	1	230	0	1	1	0.0500	0.0688	1	1	0.599	8	0	82
137	1	231	1	1	1	0.0500	0.0688	1	1	0.574	78	82	0
137	1	232	1	1	2	0.0500	0.0688	1	1	0.535	81	82	0
137	1	233	0	1	3	0.0500	0.0688	1	1	0.451	9	0	82
137	1	234	0	1	3	0.0500	0.0688	1	1	0.501	8	0	82
137	1	235	1	1	3	0.0500	0.0688	1	1	0.431	92	82	0
137	1	236	1	1	1	0.0500	0.0688	0	1	0.394	96	82	82
137	1	237	9	1	3	0.0500	0.0688	1	1	0.563	0	82	0
137	1	238	0	1	3	0.0500	0.0688	1	0	0.726	0	0	82
137	1	239	0	2	2	0.0500	0.0688	1	0	0.369	0	82	0
137	1	240	1	2	3	0.0500	0.0688	1	0	0.718	0	0	82
137	1	241	0	1	2	0.0500	0.0688	0	1	0.489	9	0	0
137	1	242	0	1	1	0.0500	0.0688	0	1	0.471	9	0	0
137	1	243	1	2	2	0.0500	0.0688	1	1	0.373	98	0	82
137	1	244	1	2	2	0.0500	0.0688	0	1	0.382	97	82	82
137	1	245	0	1	3	0.0500	0.0688	0	1	0.431	9	0	0
137	1	246	1	1	3	0.0500	0.0688	0	1	0.515	83	82	82
137	1	247	0	2	3	0.0500	0.0688	0	1	0.359	10	0	0
137	1	248	1	2	2	0.0500	0.0688	0	0	0.411	0	82	82
137	1	249	0	2	2	0.0500	0.0688	0	1	0.379	10	0	0
137	1	250	0	1	2	0.0500	0.0688	1	1	0.654	7	0	82
137	1	251	0	2	2	0.0500	0.0688	1	0	0.601	0	82	0
137	1	252	0	2	2	0.0500	0.0688	0	1	0.454	9	0	0
137	1	253	1	1	1	0.0500	0.0688	1	1	0.650	70	82	0
137	1	254	1	2	3	0.0500	0.0688	1	0	0.756	0	0	82
137	1	255	1	2	2	0.0500	0.0688	1	1	0.405	94	0	82
137	1	256	1	1	3	0.0500	0.0688	1	1	0.599	75	82	0
137	1	257	9	2	2	0.0500	0.0688	0	1	0.467	0	0	0
137	1	258	1	1	1	0.0500	0.0688	0	1	0.433	92	82	82
137	1	259	0	1	3	0.0500	0.0688	1	1	0.581	8	0	82
137	1	260	0	1	1	0.0500	0.0688	1	1	0.539	8	0	82
137	1	261	9	2	3	0.0500	0.0688	1	0	0.504	0	82	0
137	1	262	9	2	1	0.0500	0.0688	0	1	0.496	0	0	0
137	1	263	0	2	2	0.0500	0.0688	0	0	0.530	0	0	0
137	1	264	9	2	3	0.0500	0.0688	1	0	0.508	0	82	0
137	1	265	0	2	2	0.0500	0.0688	0	1	0.613	7	0	0
137	1	266	0	2	2	0.0500	0.0688	1	1	0.503	8	82	0
137	1	267	0	1	3	0.0500	0.0688	0	1	0.516	8	0	0
137	1	268	0	2	2	0.0500	0.0688	1	1	0.586	8	82	0
137	1	269	9	1	1	0.0500	0.0688	1	1	0.544	0	0	82
137	1	270	0	2	3	0.0500	0.0688	1	1	0.549	8	82	0
137	1	271	1	2	2	0.0500	0.0688	0	1	0.402	95	82	82
137	1	272	0	1	1	0.0500	0.0688	1	1	0.424	9	0	82
137	1	273	0	2	2	0.0500	0.0688	0	1	0.442	9	0	0
137	1	274	0	2	2	0.0500	0.0688	0	1	0.474	9	0	0
137	1	275	9	2	2	0.0500	0.0688	0	1	0.609	0	82	82
137	1	276	1	2	2	0.0500	0.0688	0	0	0.457	0	82	82
137	1	277	0	2	3	0.0500	0.0688	1	1	0.505	8	82	0
137	1	278	9	1	2	0.0500	0.0688	1	0	0.577	0	82	0
137	1	279	9	1	3	0.0500	0.0688	0	0	0.895	0	82	82
137	1	280	0	1	1	0.0500	0.0688	0	1	0.561	8	0	0
137	1	281	1	1	3	0.0500	0.0688	0	1	0.448	90	82	82
137	1	282	0	2	3	0.0500	0.0688	0	1	0.468	9	0	0
137	1	283	1	1	2	0.0500	0.0688	1	1	0.472	88	82	0
137	1	284	9	1	1	0.0500	0.0688	1	0	0.639	0	82	0
137	1	285	0	2	1	0.0500	0.0688	0	1	0.479	9	0	0
137	1	286	1	2	2	0.0500	0.0688	0	1	0.625	72	82	82
137	1	287	1	2	2	0.0500	0.0688	0	1	0.567	78	82	82
137	1	288	0	2	2	0.0500	0.0688	0	1	0.367	10	0	0
137	1	289	9	1	1	0.0500	0.0688	0	1	0.384	0	82	82
137	1	290	0	1	3	0.0500	0.0688	1	0	0.574	0	0	82
137	1	291	9	1	3	0.0500	0.0688	1	1	0.552	0	82	0
137	1	292	1	2	2	0.0500	0.0688	1	0	0.482	0	0	82
137	1	293	0	2	3	0.0500	0.0688	0	0	0.497	0	0	0
137	1	294	9	1	1	0.0500	0.0688	1	0	0.404	0	0	82
137	1	295	0	1	3	0.0500	0.0688	1	1	0.447	9	0	82
137	1	296	1	1	3	0.0500	0.0688	1	1	0.483	87	82	0
137	1	297	0	1	3	0.0500	0.0688	0	1	0.415	9	0	0
137	1	298	1	1	3	0.0500	0.0688	0	1	0.487	86	82	82
137	1	299	1	2	1	0.0500	0.0688	1	0	0.448	0	0	82
137	1	300	0	1	3	0.0500	0.0688	0	1	0.453	9	0	0
137	1	301	1	1	3	0.0500	0.0688	0	1	0.488	86	82	82
137	1	302	9	1	1	0.0500	0.0688	1	1	0.467	0	82	0
137	1	303	1	2	2	0.0500	0.0688	0	1	0.473	88	82	82
137	1	304	1	1	3	0.0500	0.0688	1	1	0.333	100	82	0
137	1	305	0	2	3	0.0500	0.0688	1	1	0.374	10	82	0
137	1	306	0	1	1	0.0500	0.0688	1	0	0.363	0	0	82
137	1	307	1	1	1	0.0500	0.0688	0	1	0.460	89	82	82
137	1	308	1	2	2	0.0500	0.0688	1	1	0.339	100	0	82
137	1	309	1	2	1	0.0500	0.0688	0	1	0.408	94	82	82
137	1	310	0	2	2	0.0500	0.0688	1	1	0.381	10	82	0
137	1	311	9	2	3	0.0500	0.0688	0	1	0.444	0	82	82
137	1	312	0	1	1	0.0500	0.0688	1	1	0.336	10	0	82
137	1	313	1	1	3	0.0500	0.0688	1	1	0.373	98	82	0
137	1	314	1	2	3	0.0500	0.0688	0	1	0.435	92	82	82
137	1	315	1	2	2	0.0500	0.0688	1	1	0.313	100	0	82
137	1	316	1	1	1	0.0500	0.0688	0	1	0.355	100	82	82
137	1	317	0	1	3	0.0500	0.0688	0	0	0.402	0	0	0
137	1	318	1	2	3	0.0500	0.0688	1	0	0.326	0	0	82
137	1	319	1	1	1	0.0500	0.0688	0	0	0.305	0	82	82
137	1	320	0	2	2	0.0500	0.0688	0	1	0.530	8	0	0
137	1	321	0	2	3	0.0500	0.0688	1	1	0.420	9	82	0
137	1	322	0	2	1	0.0500	0.0688	1	1	0.388	10	82	0
137	1	323	0	2	2	0.0500	0.0688	1	0	0.345	0	82	0
137	1	324	0	1	1	0.0500	0.0688	1	1	0.430	9	0	82
137	1	325	0	1	2	0.0500	0.0688	0	1	0.388	10	0	0
137	1	326	0	2	3	0.0500	0.0688	0	0	0.466	0	0	0
137	1	327	0	2	3	0.0500	0.0688	0	1	0.373	10	0	0
137	1	328	0	2	2	0.0500	0.0688	1	0	0.406	0	82	0
137	1	329	1	1	1	0.0500	0.0688	1	1	0.429	92	82	0
137	1	330	9	1	1	0.0500	0.0688	0	1	0.433	0	82	82
137	1	331	0	2	2	0.0500	0.0688	1	1	0.278	10	82	0
137	1	332	0	1	1	0.0500	0.0688	1	1	0.478	9	0	82
137	1	333	0	2	3	0.0500	0.0688	1	1	0.446	9	82	0
137	1	334	9	2	2	0.0500	0.0688	0	0	0.413	0	82	82
137	1	335	0	2	2	0.0500	0.0688	1	1	0.348	10	82	0
137	1	336	1	1	1	0.0500	0.0688	1	1	0.349	100	82	0
137	1	337	9	2	2	0.0500	0.0688	0	1	0.388	0	82	82
137	1	338	9	1	1	0.0500	0.0688	0	0	0.428	0	0	0
137	1	339	9	2	2	0.0500	0.0688	0	0	0.264	0	0	0
137	1	340	9	2	3	0.0500	0.0688	1	1	0.346	0	0	82
137	1	341	1	1	3	0.0500	0.0688	1	0	0.421	0	82	0
137	1	342	1	2	3	0.0500	0.0688	0	1	0.379	97	82	82
137	1	343	1	2	3	0.0500	0.0688	1	1	0.353	100	0	82
137	1	344	0	1	1	0.0500	0.0688	1	0	0.410	0	0	82
137	1	345	0	2	1	0.0500	0.0688	0	1	0.337	10	0	0
137	1	346	1	2	2	0.0500	0.0688	0	1	0.454	90	82	82
137	1	347	1	1	1	0.0500	0.0688	0	1	0.384	97	82	82
137	1	348	0	1	3	0.0500	0.0688	1	1	0.407	9	0	82
137	1	349	0	2	3	0.0500	0.0688	0	1	0.364	10	0	0
137	1	350	9	2	3	0.0500	0.0688	0	1	0.416	0	82	82
137	1	351	1	2	2	0.0500	0.0688	1	1	0.340	100	0	82
137	1	352	1	2	3	0.0500	0.0688	0	1	0.351	100	82	82
137	1	353	0	2	3	0.0500	0.0688	1	0	0.427	0	82	0
137	1	354	0	2	2	0.0500	0.0688	1	1	0.337	10	82	0
137	1	355	1	1	3	0.0500	0.0688	1	1	0.355	99	82	0
137	1	356	1	1	1	0.0500	0.0688	0	1	0.368	98	82	82
137	1	357	0	1	1	0.0500	0.0688	1	0	0.332	0	0	82
137	1	358	9	1	3	0.0500	0.0688	0	1	0.569	0	82	82
137	1	359	9	2	3	0.0500	0.0688	1	1	0.472	0	0	82
137	1	360	0	2	2	0.0500	0.0688	0	0	0.421	0	0	0
137	1	361	9	1	1	0.0500	0.0688	0	1	0.390	0	82	82
137	1	362	1	1	3	0.0500	0.0688	1	1	0.473	88	82	0
137	1	363	1	2	3	0.0500	0.0688	1	1	0.460	89	0	82
137	1	364	1	2	3	0.0500	0.0688	0	1	0.411	94	82	82
137	1	365	1	1	1	0.0500	0.0688	0	1	0.522	83	82	82
137	1	366	1	1	3	0.0500	0.0688	1	1	0.431	92	82	0
137	1	367	1	1	2	0.0500	0.0688	1	1	0.339	100	82	0
137	1	368	0	2	2	0.0500	0.0688	0	1	0.398	10	0	0
137	1	369	1	2	2	0.0500	0.0688	1	1	0.486	86	0	82
137	1	370	1	1	3	0.0500	0.0688	1	1	0.350	100	82	0
137	1	371	9	1	1	0.0500	0.0688	1	1	0.367	0	82	0
137	1	372	0	2	3	0.0500	0.0688	0	1	0.393	10	0	0
137	1	373	1	1	3	0.0500	0.0688	1	1	0.331	100	82	0
137	1	374	0	2	2	0.0500	0.0688	0	1	0.409	9	0	0
137	1	375	9	1	2	0.0500	0.0688	0	0	0.399	0	0	0
137	1	376	1	1	2	0.0500	0.0688	0	1	0.411	94	82	82
137	1	377	0	2	1	0.0500	0.0688	0	1	0.374	10	0	0
137	1	378	1	2	1	0.0500	0.0688	0	1	0.343	100	82	82
137	1	379	1	2	3	0.0500	0.0688	1	1	0.512	84	0	82
137	1	380	0	1	1	0.0500	0.0688	0	1	0.393	10	0	0
137	1	381	0	1	1	0.0500	0.0688	0	1	0.349	10	0	0
137	1	382	9	2	2	0.0500	0.0688	0	1	0.413	0	82	82
137	1	383	1	2	2	0.0500	0.0688	0	0	0.303	0	82	82
137	1	384	0	2	3	0.0500	0.0688	0	1	0.353	10	0	0
137	1	385	1	2	1	0.0500	0.0688	0	1	0.336	100	82	82
137	1	386	0	1	3	0.0500	0.0688	1	0	0.361	0	0	82
137	1	387	1	2	2	0.0500	0.0688	1	1	0.270	100	0	82
137	1	388	0	1	3	0.0500	0.0688	1	1	0.351	10	0	82
137	1	389	0	1	3	0.0500	0.0688	0	0	0.339	0	0	0
137	1	390	1	2	3	0.0500	0.0688	0	1	0.416	93	82	82
137	1	391	0	2	3	0.0500	0.0688	0	1	0.397	10	0	0
137	1	392	0	2	3	0.0500	0.0688	0	1	0.368	10	0	0
137	1	393	0	1	2	0.0500	0.0688	0	1	0.528	8	0	0
137	1	394	9	2	2	0.0500	0.0688	1	1	0.335	0	0	82
137	1	395	0	2	2	0.0500	0.0688	0	1	0.245	10	0	0
137	1	396	0	1	3	0.0500	0.0688	1	1	0.439	9	0	82
137	1	397	1	2	2	0.0500	0.0688	1	1	0.392	96	0	82
137	1	398	9	2	3	0.0500	0.0688	0	1	0.389	0	0	0
137	1	399	0	1	3	0.0500	0.0688	0	0	0.359	0	0	0
137	1	400	1	2	3	0.0500	0.0688	1	1	0.352	100	0	82
137	1	401	1	2	2	0.0500	0.0688	0	1	0.402	95	82	82
137	1	402	1	1	3	0.0500	0.0688	0	0	0.375	0	82	82
137	1	403	0	1	3	0.0500	0.0688	0	0	0.383	0	0	0
137	1	404	0	2	3	0.0500	0.0688	1	0	0.366	0	82	0
137	1	405	1	1	3	0.0500	0.0688	0	0	0.353	0	82	82
137	1	406	1	1	3	0.0500	0.0688	0	1	0.455	89	82	82
137	1	407	1	1	3	0.0500	0.0688	0	1	0.383	97	82	82
137	1	408	1	2	2	0.0500	0.0688	0	1	0.421	93	82	82
137	1	409	1	2	3	0.0500	0.0688	1	0	0.391	0	0	82
137	1	410	1	2	2	0.0500	0.0688	1	1	0.361	99	0	82
137	1	411	1	1	3	0.0500	0.0688	0	1	0.463	89	82	82
137	1	412	0	2	2	0.0500	0.0688	0	1	0.400	10	0	0
137	1	413	1	1	3	0.0500	0.0688	0	1	0.464	89	82	82
137	1	414	1	1	1	0.0500	0.0688	0	1	0.372	98	82	82
137	1	415	9	2	2	0.0500	0.0688	1	1	0.380	0	82	0
137	1	416	0	1	1	0.0500	0.0688	0	1	0.369	10	0	0
137	1	417	9	1	3	0.0500	0.0688	0	0	0.317	0	82	82
137	1	418	9	1	3	0.0500	0.0688	0	1	0.355	0	0	0
137	1	419	0	1	1	0.0500	0.0688	0	1	0.395	10	0	0
137	1	420	0	1	1	0.0500	0.0688	0	1	0.385	10	0	0
137	1	421	0	1	1	0.0500	0.0688	0	1	0.494	9	0	0
137	1	422	1	1	1	0.0500	0.0688	0	1	0.487	86	82	82
137	1	423	9	2	2	0.0500	0.0688	0	1	0.469	0	82	82
137	1	424	1	2	2	0.0500	0.0688	0	1	0.556	79	82	82
137	1	425	0	2	2	0.0500	0.0688	1	0	0.387	0	82	0
137	1	426	9	2	3	0.0500	0.0688	0	1	0.458	0	82	82
137	1	427	0	2	2	0.0500	0.0688	1	1	0.544	8	82	0
137	1	428	1	2	2	0.0500	0.0688	0	1	0.426	92	82	82
137	1	429	1	2	3	0.0500	0.0688	0	1	0.477	87	82	82
137	1	430	1	2	2	0.0500	0.0688	0	1	0.334	100	82	82
137	1	431	1	1	3	0.0500	0.0688	1	0	0.439	0	82	0
137	1	432	1	2	3	0.0500	0.0688	0	1	0.366	98	82	82
137	1	433	1	1	1	0.0500	0.0688	0	1	0.449	90	82	82
137	1	434	9	2	3	0.0500	0.0688	0	1	0.341	0	0	0
137	1	435	9	1	1	0.0500	0.0688	1	1	0.430	0	0	82
137	1	436	0	1	2	0.0500	0.0688	0	1	0.401	9	0	0
137	1	437	0	1	1	0.0500	0.0688	1	1	0.426	9	0	82
137	1	438	9	2	2	0.0500	0.0688	0	1	0.369	0	82	82
137	1	439	0	2	2	0.0500	0.0688	1	1	0.523	8	82	0
137	1	440	1	1	2	0.0500	0.0688	1	1	0.458	89	82	0
137	1	441	0	2	3	0.0500	0.0688	1	1	0.417	9	82	0
137	1	442	0	1	1	0.0500	0.0688	0	1	0.418	9	0	0
137	1	443	1	1	1	0.0500	0.0688	0	1	0.445	91	82	82
137	1	444	1	1	1	0.0500	0.0688	0	1	0.380	97	82	82
137	1	445	0	1	1	0.0500	0.0688	1	1	0.468	9	0	82
137	1	446	0	2	3	0.0500	0.0688	1	1	0.431	9	82	0
137	1	447	0	1	3	0.0500	0.0688	0	1	0.453	9	0	0
137	1	448	0	2	3	0.0500	0.0688	0	1	0.505	8	0	0
137	1	449	1	2	2	0.0500	0.0688	0	1	0.482	87	82	82
137	1	450	1	1	3	0.0500	0.0688	1	0	0.419	0	82	0
137	1	451	0	2	2	0.0500	0.0688	0	1	0.388	10	0	0
137	1	452	1	2	2	0.0500	0.0688	1	1	0.444	91	0	82
137	1	453	0	1	3	0.0500	0.0688	0	1	0.493	9	0	0
137	1	454	1	2	3	0.0500	0.0688	0	1	0.462	89	82	82
137	1	455	0	2	2	0.0500	0.0688	1	1	0.467	9	82	0
137	1	456	1	2	3	0.0500	0.0688	1	1	0.434	92	0	82
137	1	457	9	2	2	0.0500	0.0688	1	1	0.390	0	82	0
137	1	458	1	1	1	0.0500	0.0688	0	1	0.446	90	82	82
137	1	459	0	1	1	0.0500	0.0688	1	1	0.473	9	0	82
137	1	460	0	2	3	0.0500	0.0688	1	1	0.450	9	82	0
137	1	461	9	1	3	0.0500	0.0688	1	1	0.399	0	82	0
137	1	462	0	2	2	0.0500	0.0688	0	1	0.403	9	0	0
137	1	463	0	2	3	0.0500	0.0688	0	1	0.495	9	0	0
137	1	464	1	2	2	0.0500	0.0688	0	1	0.527	82	82	82
137	1	465	0	1	1	0.0500	0.0688	1	1	0.466	9	0	82
137	1	466	1	2	2	0.0500	0.0688	1	1	0.444	91	0	82
137	1	467	0	1	3	0.0500	0.0688	1	1	0.539	8	0	82
137	1	468	0	1	3	0.0500	0.0688	1	1	0.464	9	0	82
137	1	469	0	1	1	0.0500	0.0688	0	1	0.466	9	0	0
137	1	470	0	1	1	0.0500	0.0688	0	1	0.525	8	0	0
137	1	471	0	2	3	0.0500	0.0688	0	0	0.419	0	0	0
137	1	472	0	2	2	0.0500	0.0688	0	1	0.492	9	0	0
137	1	473	0	1	3	0.0500	0.0688	1	1	0.597	8	0	82
137	1	474	9	1	1	0.0500	0.0688	0	1	0.333	0	0	0
137	1	475	0	1	1	0.0500	0.0688	0	0	0.366	0	0	0
137	1	476	1	1	3	0.0500	0.0688	1	1	0.426	92	82	0
137	1	477	0	1	3	0.0500	0.0688	1	0	0.648	0	0	82
137	1	478	9	2	3	0.0500	0.0688	1	1	0.596	0	82	0
137	1	479	0	2	2	0.0500	0.0688	0	1	0.334	10	0	0
137	1	480	0	2	3	0.0500	0.0688	1	1	0.325	10	82	0
137	1	481	9	2	1	0.0500	0.0688	1	1	0.419	0	82	0
137	1	482	1	1	2	0.0500	0.0688	0	1	0.356	99	82	82
137	1	483	1	2	3	0.0500	0.0688	1	1	0.378	97	0	82
137	1	484	0	2	3	0.0500	0.0688	1	1	0.349	10	82	0
137	1	485	0	2	2	0.0500	0.0688	0	1	0.417	9	0	0
137	1	486	0	2	2	0.0500	0.0688	0	1	0.426	9	0	0
137	1	487	1	1	1	0.0500	0.0688	1	0	0.382	0	82	0
137	1	488	9	1	1	0.0500	0.0688	0	1	0.452	0	82	82
137	1	489	9	1	1	0.0500	0.0688	0	1	0.348	0	0	0
137	1	490	0	2	2	0.0500	0.0688	1	1	0.362	10	82	0
137	1	491	0	2	3	0.0500	0.0688	1	1	0.449	9	82	0
137	1	492	1	2	1	0.0500	0.0688	0	0	0.457	0	82	82
137	1	493	1	2	2	0.0500	0.0688	0	1	3.407	50	82	82
137	1	494	1	2	2	0.0500	0.0688	1	1	0.377	97	0	82
137	1	495	0	2	2	0.0500	0.0688	0	1	0.455	9	0	0
137	1	496	9	1	1	0.0500	0.0688	0	1	0.487	0	0	0
137	1	497	1	1	1	0.0500	0.0688	1	1	0.638	71	82	0
137	1	498	0	1	1	0.0500	0.0688	1	1	0.516	8	0	82
137	1	499	1	2	2	0.0500	0.0688	1	0	0.575	0	0	82
137	1	500	0	1	1	0.0500	0.0688	1	0	0.456	0	0	82
137	1	501	0	2	3	0.0500	0.0688	0	1	0.663	7	0	0
137	1	502	0	2	2	0.0500	0.0688	1	1	0.514	8	82	0
137	1	503	0	2	2	0.0500	0.0688	1	1	0.462	9	82	0
137	1	504	1	2	3	0.0500	0.0688	1	0	0.612	0	0	82
137	1	505	0	1	3	0.0500	0.0688	0	1	0.464	9	0	0
137	1	506	1	1	1	0.0500	0.0688	1	1	0.447	90	82	0
137	1	507	1	2	3	0.0500	0.0688	0	1	0.409	94	82	82
137	1	508	1	2	3	0.0500	0.0688	0	1	0.482	87	82	82
137	1	509	9	2	3	0.0500	0.0688	1	1	0.444	0	0	82
137	1	510	1	2	3	0.0500	0.0688	0	1	0.390	96	82	82
137	1	511	1	1	3	0.0500	0.0688	1	1	0.461	89	82	0
137	1	512	0	1	2	0.0500	0.0688	0	1	0.465	9	0	0
137	1	513	1	2	2	0.0500	0.0688	0	1	0.517	83	82	82
137	1	514	1	1	3	0.0500	0.0688	1	1	0.436	91	82	0
137	1	515	9	1	1	0.0500	0.0688	1	1	0.440	0	0	82
137	1	516	9	2	3	0.0500	0.0688	1	0	0.528	0	0	82
137	1	517	1	1	2	0.0500	0.0688	1	1	0.497	85	82	0
137	1	518	0	2	3	0.0500	0.0688	1	1	0.550	8	82	0
137	1	519	1	2	2	0.0500	0.0688	1	1	0.508	84	0	82
137	1	520	1	1	1	0.0500	0.0688	0	1	0.455	89	82	82
137	1	521	1	2	1	0.0500	0.0688	1	0	0.457	0	0	82
137	1	522	1	2	1	0.0500	0.0688	1	1	0.431	92	0	82
137	1	523	1	1	3	0.0500	0.0688	0	1	0.519	83	82	82
137	1	524	9	2	1	0.0500	0.0688	0	1	0.540	0	82	82
137	1	525	0	1	3	0.0500	0.0688	1	1	0.464	9	0	82
137	1	526	0	2	3	0.0500	0.0688	1	1	0.465	9	82	0
137	1	527	1	1	3	0.0500	0.0688	1	1	0.416	93	82	0
137	1	528	9	1	1	0.0500	0.0688	0	1	0.459	0	82	82
137	1	529	1	2	1	0.0500	0.0688	1	1	0.471	88	0	82
137	1	530	0	1	3	0.0500	0.0688	0	1	0.528	8	0	0
137	1	531	0	1	1	0.0500	0.0688	0	1	0.590	8	0	0
137	1	532	1	2	3	0.0500	0.0688	1	1	0.505	85	0	82
137	1	533	0	1	3	0.0500	0.0688	0	1	0.556	8	0	0
137	1	534	1	1	1	0.0500	0.0688	0	1	0.512	84	82	82
137	1	535	0	1	1	0.0500	0.0688	1	0	0.769	0	0	82
137	1	536	1	2	2	0.0500	0.0688	0	0	0.585	0	82	82
137	1	537	0	1	1	0.0500	0.0688	1	0	0.606	0	0	82
137	1	538	1	2	3	0.0500	0.0688	1	1	0.464	89	0	82
137	1	539	0	2	2	0.0500	0.0688	1	1	0.521	8	82	0
137	1	540	0	1	1	0.0500	0.0688	1	1	0.563	8	0	82
137	1	541	1	2	2	0.0500	0.0688	0	1	0.474	88	82	82
137	1	542	1	2	3	0.0500	0.0688	1	0	0.529	0	0	82
137	1	543	0	2	1	0.0500	0.0688	0	1	0.476	9	0	0
137	1	544	9	2	2	0.0500	0.0688	1	1	0.415	0	82	0
137	1	545	0	1	1	0.0500	0.0688	1	1	0.853	5	0	82
137	1	546	0	2	3	0.0500	0.0688	1	1	0.518	8	82	0
137	1	547	1	1	1	0.0500	0.0688	0	1	0.526	82	82	82
137	1	548	1	1	2	0.0500	0.0688	0	1	0.533	82	82	82
137	1	549	0	1	1	0.0500	0.0688	1	0	0.587	0	0	82
137	1	550	1	2	2	0.0500	0.0688	1	1	0.454	90	0	82
137	1	551	1	1	3	0.0500	0.0688	1	1	0.506	84	82	0
137	1	552	1	2	3	0.0500	0.0688	1	1	0.409	94	0	82
137	1	553	9	2	1	0.0500	0.0688	1	1	0.566	0	0	82
137	1	554	0	2	3	0.0500	0.0688	0	1	0.542	8	0	0
137	1	555	0	2	3	0.0500	0.0688	0	1	0.572	8	0	0
137	1	556	1	1	1	0.0500	0.0688	1	1	0.511	84	82	0
137	1	557	0	2	2	0.0500	0.0688	0	1	0.544	8	0	0
137	1	558	1	1	1	0.0500	0.0688	0	0	0.534	0	82	82
137	1	559	0	2	2	0.0500	0.0688	1	1	0.479	9	82	0
137	1	560	1	2	3	0.0500	0.0688	1	1	0.488	86	0	82
137	1	561	0	2	3	0.0500	0.0688	0	1	0.460	9	0	0
137	1	562	9	1	1	0.0500	0.0688	1	1	0.438	0	0	82
137	1	563	9	2	3	0.0500	0.0688	0	1	0.446	0	82	82
137	1	564	0	2	2	0.0500	0.0688	1	1	0.406	9	82	0
137	1	565	0	2	2	0.0500	0.0688	1	1	0.434	9	82	0
137	1	566	0	1	2	0.0500	0.0688	1	1	0.554	8	0	82
137	1	567	0	2	1	0.0500	0.0688	1	1	0.433	9	82	0
137	1	568	1	2	2	0.0500	0.0688	1	1	0.400	95	0	82
137	1	569	1	1	3	0.0500	0.0688	1	1	0.337	100	82	0
137	1	570	0	2	2	0.0500	0.0688	0	1	0.510	8	0	0
137	1	571	9	2	2	0.0500	0.0688	1	1	0.348	0	0	82
137	1	572	0	2	3	0.0500	0.0688	0	1	0.518	8	0	0
137	1	573	9	2	3	0.0500	0.0688	1	1	0.514	0	82	0
137	1	574	9	2	3	0.0500	0.0688	1	1	0.405	0	0	82
137	1	575	1	2	2	0.0500	0.0688	1	1	0.500	85	0	82
137	1	576	1	1	3	0.0500	0.0688	1	1	0.449	90	82	0
137	1	577	0	1	1	0.0500	0.0688	1	1	0.429	9	0	82
137	1	578	0	2	1	0.0500	0.0688	0	0	0.479	0	0	0
137	1	579	1	1	1	0.0500	0.0688	1	1	0.491	86	82	0
137	1	580	0	1	3	0.0500	0.0688	1	1	0.440	9	0	82
137	1	581	1	1	1	0.0500	0.0688	1	1	0.407	94	82	0
137	1	582	9	1	3	0.0500	0.0688	1	1	0.364	0	82	0
137	1	583	1	1	3	0.0500	0.0688	0	0	0.376	0	82	82
137	1	584	0	1	3	0.0500	0.0688	0	1	0.376	10	0	0
137	1	585	9	1	3	0.0500	0.0688	0	1	0.451	0	82	82
137	1	586	0	2	3	0.0500	0.0688	1	0	0.464	0	82	0
137	1	587	1	1	1	0.0500	0.0688	1	1	0.507	84	82	0
137	1	588	1	1	1	0.0500	0.0688	1	1	0.468	88	82	0
137	1	589	0	2	2	0.0500	0.0688	1	1	0.453	9	82	0
137	1	590	1	1	3	0.0500	0.0688	0	1	0.518	83	82	82
137	1	591	9	2	3	0.0500	0.0688	1	1	0.690	0	82	0
137	1	592	1	2	3	0.0500	0.0688	1	1	0.477	87	0	82
137	1	593	0	2	3	0.0500	0.0688	0	1	0.448	9	0	0
137	1	594	1	1	3	0.0500	0.0688	0	1	0.472	88	82	82
137	1	595	1	2	3	0.0500	0.0688	0	1	0.428	92	82	82
137	1	596	1	1	1	0.0500	0.0688	0	1	0.528	82	82	82
137	1	597	0	1	3	0.0500	0.0688	1	1	0.402	9	0	82
137	1	598	0	2	1	0.0500	0.0688	1	1	0.489	9	82	0
137	1	599	1	1	1	0.0500	0.0688	1	1	0.454	90	82	0
137	1	600	0	2	3	0.0500	0.0688	1	1	0.454	9	82	0
137	1	601	0	2	3	0.0500	0.0688	1	0	0.529	0	82	0
137	1	602	1	1	1	0.0500	0.0688	1	1	0.475	88	82	0
137	1	603	9	1	2	0.0500	0.0688	0	1	0.458	0	82	82
137	1	604	1	1	1	0.0500	0.0688	1	1	0.468	88	82	0
137	1	605	0	1	1	0.0500	0.0688	1	1	0.409	9	0	82
137	1	606	0	1	1	0.0500	0.0688	0	1	0.433	9	0	0
137	1	607	0	1	1	0.0500	0.0688	1	1	0.433	9	0	82
137	1	608	0	1	3	0.0500	0.0688	1	0	0.490	0	0	82
137	1	609	1	1	3	0.0500	0.0688	1	1	0.485	86	82	0
137	1	610	0	1	3	0.0500	0.0688	1	1	0.494	9	0	82
137	1	611	1	2	3	0.0500	0.0688	0	1	0.392	96	82	82
137	1	612	0	1	3	0.0500	0.0688	0	1	0.502	8	0	0
137	1	613	0	1	2	0.0500	0.0688	1	0	0.482	0	0	82
137	1	614	0	1	3	0.0500	0.0688	1	1	0.440	9	0	82
137	1	615	1	2	2	0.0500	0.0688	0	1	0.389	96	82	82
137	1	616	0	1	3	0.0500	0.0688	0	0	0.426	0	0	0
137	1	617	0	1	1	0.0500	0.0688	0	1	0.398	10	0	0
137	1	618	9	2	2	0.0500	0.0688	1	1	0.350	0	0	82
137	1	619	0	2	3	0.0500	0.0688	0	1	0.368	10	0	0
137	1	620	9	2	2	0.0500	0.0688	0	0	0.398	0	0	0
137	1	621	1	2	2	0.0500	0.0688	1	1	0.396	95	0	82
137	1	622	0	2	3	0.0500	0.0688	1	1	0.467	9	82	0
137	1	623	1	1	1	0.0500	0.0688	1	1	0.405	94	82	0
137	1	624	9	2	1	0.0500	0.0688	0	1	0.393	0	0	0
137	1	625	0	2	2	0.0500	0.0688	1	1	0.566	8	82	0
137	1	626	1	2	3	0.0500	0.0688	1	1	0.459	89	0	82
137	1	627	1	1	3	0.0500	0.0688	1	1	0.560	79	82	0
137	1	628	1	2	2	0.0500	0.0688	0	1	0.482	87	82	82
137	1	629	9	1	1	0.0500	0.0688	1	0	0.566	0	82	0
137	1	630	1	1	1	0.0500	0.0688	1	1	0.385	97	82	0
137	1	631	1	2	3	0.0500	0.0688	0	1	0.654	70	82	82
137	1	632	1	1	1	0.0500	0.0688	0	1	0.455	89	82	82
137	1	633	0	1	2	0.0500	0.0688	0	1	0.574	8	0	0
137	1	634	9	1	1	0.0500	0.0688	0	1	0.475	0	82	82
137	1	635	0	1	1	0.0500	0.0688	0	1	0.714	6	0	0
137	1	636	1	1	2	0.0500	0.0688	1	1	0.463	89	82	0
137	1	637	0	2	2	0.0500	0.0688	0	1	0.478	9	0	0
137	1	638	1	2	2	0.0500	0.0688	1	1	0.443	91	0	82
137	1	639	0	2	2	0.0500	0.0688	1	1	0.574	8	82	0
137	1	640	1	1	3	0.0500	0.0688	0	1	0.542	81	82	82
137	1	641	1	2	3	0.0500	0.0688	0	1	0.414	94	82	82
137	1	642	1	2	3	0.0500	0.0688	1	1	0.557	79	0	82
137	1	643	0	1	3	0.0500	0.0688	0	1	0.466	9	0	0
137	1	644	1	1	2	0.0500	0.0688	0	1	0.554	80	82	82
137	1	645	9	2	3	0.0500	0.0688	1	0	0.680	0	82	0
137	1	646	9	2	3	0.0500	0.0688	0	1	0.643	0	82	82
137	1	647	9	2	2	0.0500	0.0688	0	0	0.568	0	0	0
137	1	648	9	1	1	0.0500	0.0688	1	1	0.713	0	0	82
137	1	649	9	2	2	0.0500	0.0688	0	1	0.515	0	0	0
137	1	650	0	1	1	0.0500	0.0688	1	1	0.612	7	0	82
137	1	651	9	1	3	0.0500	0.0688	1	1	0.613	0	82	0
137	1	652	1	2	3	0.0500	0.0688	1	1	0.609	74	0	82
137	1	653	0	2	3	0.0500	0.0688	0	1	0.433	9	0	0
137	1	654	9	1	3	0.0500	0.0688	0	1	0.503	0	0	0
137	1	655	1	1	3	0.0500	0.0688	1	1	0.483	87	82	0
137	1	656	0	1	3	0.0500	0.0688	1	1	0.559	8	0	82
137	1	657	0	1	3	0.0500	0.0688	1	1	0.490	9	0	82
137	1	658	9	2	2	0.0500	0.0688	0	1	0.482	0	82	82
137	1	659	1	1	3	0.0500	0.0688	0	0	0.571	0	82	82
137	1	660	0	2	3	0.0500	0.0688	1	0	0.599	0	82	0
137	1	661	9	2	3	0.0500	0.0688	0	1	0.485	0	0	0
137	1	662	0	1	3	0.0500	0.0688	0	0	0.560	0	0	0
137	1	663	1	2	2	0.0500	0.0688	1	1	0.529	82	0	82
137	1	664	1	2	3	0.0500	0.0688	0	1	0.686	66	82	82
137	1	665	9	1	3	0.0500	0.0688	0	1	0.598	0	82	82
137	1	666	1	2	2	0.0500	0.0688	0	0	0.529	0	82	82
137	1	667	9	1	3	0.0500	0.0688	1	1	0.550	0	0	82
137	1	668	9	1	1	0.0500	0.0688	1	1	0.529	0	82	0
137	1	669	1	1	1	0.0500	0.0688	1	0	0.537	0	82	0
137	1	670	9	1	1	0.0500	0.0688	0	1	0.489	0	0	0
137	1	671	0	2	2	0.0500	0.0688	0	0	0.680	0	0	0
137	1	672	9	2	2	0.0500	0.0688	1	1	0.511	0	0	82
137	1	673	0	2	1	0.0500	0.0688	0	1	0.903	5	0	0
137	1	674	1	2	2	0.0500	0.0688	0	1	0.577	77	82	82
137	1	675	1	1	3	0.0500	0.0688	0	1	0.572	78	82	82
137	1	676	0	2	3	0.0500	0.0688	1	1	0.635	7	82	0
137	1	677	9	1	3	0.0500	0.0688	1	1	0.468	0	82	0
137	1	678	9	1	2	0.0500	0.0688	1	1	0.497	0	0	82
137	1	679	0	1	1	0.0500	0.0688	0	1	0.392	10	0	0
137	1	680	9	2	3	0.0500	0.0688	1	1	0.353	0	0	82
137	1	681	1	1	3	0.0500	0.0688	0	1	0.492	86	82	82
137	1	682	9	2	3	0.0500	0.0688	0	1	0.350	0	0	0
137	1	683	1	2	3	0.0500	0.0688	0	1	0.447	90	82	82
137	1	684	1	1	1	0.0500	0.0688	0	1	0.420	93	82	82
137	1	685	9	2	3	0.0500	0.0688	0	1	0.410	0	82	82
137	1	686	1	2	2	0.0500	0.0688	1	1	0.441	91	0	82
137	1	687	9	2	2	0.0500	0.0688	1	1	0.404	0	82	0
137	1	688	1	2	1	0.0500	0.0688	1	1	0.542	81	0	82
137	1	689	0	1	1	0.0500	0.0688	1	1	0.578	8	0	82
137	1	690	9	1	1	0.0500	0.0688	1	1	0.488	0	82	0
137	1	691	0	2	3	0.0500	0.0688	0	1	0.500	8	0	0
137	1	692	9	1	3	0.0500	0.0688	1	1	0.541	0	0	82
137	1	693	9	1	2	0.0500	0.0688	1	1	0.499	0	82	0
137	1	694	0	2	2	0.0500	0.0688	1	0	0.756	0	82	0
137	1	695	0	1	2	0.0500	0.0688	1	1	0.504	8	0	82
137	1	696	0	1	3	0.0500	0.0688	1	1	0.566	8	0	82
137	1	697	0	1	3	0.0500	0.0688	0	1	0.566	8	0	0
137	1	698	1	1	1	0.0500	0.0688	0	1	0.484	87	82	82
137	1	699	1	1	3	0.0500	0.0688	0	1	0.461	89	82	82
137	1	700	9	2	2	0.0500	0.0688	0	1	0.355	0	0	0
137	1	701	1	1	3	0.0500	0.0688	0	1	0.492	86	82	82
137	1	702	1	1	1	0.0500	0.0688	0	1	0.515	84	82	82
137	1	703	0	2	2	0.0500	0.0688	0	1	0.578	8	0	0
137	1	704	0	1	3	0.0500	0.0688	0	1	0.498	9	0	0
137	1	705	9	1	3	0.0500	0.0688	0	1	0.519	0	0	0
137	1	706	1	2	1	0.0500	0.0688	0	1	0.480	87	82	82
137	1	707	0	1	1	0.0500	0.0688	0	1	0.458	9	0	0
137	1	708	1	2	3	0.0500	0.0688	0	1	0.448	90	82	82
137	1	709	0	1	2	0.0500	0.0688	1	0	0.572	0	0	82
137	1	710	1	1	1	0.0500	0.0688	1	1	0.486	86	82	0
137	1	711	1	2	3	0.0500	0.0688	0	1	0.429	92	82	82
137	1	712	9	1	3	0.0500	0.0688	1	1	0.513	0	0	82
137	1	713	0	1	3	0.0500	0.0688	0	1	0.434	9	0	0
137	1	714	1	1	1	0.0500	0.0688	1	1	0.464	89	82	0
137	1	715	9	1	3	0.0500	0.0688	0	1	0.500	0	0	0
137	1	716	9	1	3	0.0500	0.0688	0	1	0.508	0	82	82
137	1	717	0	2	1	0.0500	0.0688	1	1	0.529	8	82	0
137	1	718	9	1	3	0.0500	0.0688	1	1	0.633	0	0	82
137	1	719	0	2	2	0.0500	0.0688	1	1	0.718	6	82	0
137	1	720	0	2	1	0.0500	0.0688	1	0	0.568	0	82	0
