sub	sess	t	rew	loc	cue	co1	co2	or	resp	rt	rew_tot	left_col	right_col
75	1	1	0	1	3	0.0765	0.2059	1	0	0.668	0	0	82
75	1	2	1	2	3	0.0765	0.2059	0	1	0.512	84	82	82
75	1	3	0	2	2	0.0765	0.2059	0	1	0.495	9	0	0
75	1	4	0	2	2	0.0765	0.2059	0	1	0.390	10	0	0
75	1	5	9	2	1	0.0765	0.2059	1	1	0.527	0	82	0
75	1	6	1	1	3	0.0765	0.2059	1	1	0.402	95	82	0
75	1	7	1	1	3	0.0765	0.2059	1	1	0.566	78	82	0
75	1	8	9	1	3	0.0765	0.2059	0	1	0.557	0	0	0
75	1	9	1	2	3	0.0765	0.2059	1	1	0.434	92	0	82
75	1	10	9	1	1	0.0765	0.2059	1	1	0.573	0	82	0
75	1	11	1	2	3	0.0765	0.2059	0	1	0.394	96	82	82
75	1	12	9	1	1	0.0765	0.2059	1	1	0.436	0	0	82
75	1	13	1	2	3	0.0765	0.2059	0	1	0.391	96	82	82
75	1	14	1	2	2	0.0765	0.2059	0	1	0.389	96	82	82
75	1	15	0	2	2	0.0765	0.2059	0	1	0.387	10	0	0
75	1	16	1	2	2	0.0765	0.2059	0	1	0.380	97	82	82
75	1	17	0	1	3	0.0765	0.2059	1	1	0.422	9	0	82
75	1	18	1	1	3	0.0765	0.2059	0	1	0.385	97	82	82
75	1	19	0	1	3	0.0765	0.2059	1	1	0.347	10	0	82
75	1	20	0	2	2	0.0765	0.2059	0	1	0.301	10	0	0
75	1	21	0	2	3	0.0765	0.2059	0	1	0.360	10	0	0
75	1	22	9	2	3	0.0765	0.2059	0	1	0.328	0	0	0
75	1	23	0	1	3	0.0765	0.2059	1	1	0.388	10	0	82
75	1	24	1	1	1	0.0765	0.2059	1	0	0.265	0	82	0
75	1	25	0	1	1	0.0765	0.2059	0	1	0.323	10	0	0
75	1	26	1	2	2	0.0765	0.2059	1	0	0.325	0	0	82
75	1	27	0	2	2	0.0765	0.2059	1	1	0.359	10	82	0
75	1	28	0	2	3	0.0765	0.2059	1	0	0.391	0	82	0
75	1	29	1	1	3	0.0765	0.2059	0	1	0.436	91	82	82
75	1	30	0	1	3	0.0765	0.2059	0	1	0.390	10	0	0
75	1	31	0	2	3	0.0765	0.2059	0	1	0.345	10	0	0
75	1	32	1	2	2	0.0765	0.2059	1	1	0.347	100	0	82
75	1	33	0	1	1	0.0765	0.2059	0	1	0.340	10	0	0
75	1	34	9	2	2	0.0765	0.2059	0	1	0.348	0	82	82
75	1	35	9	1	3	0.0765	0.2059	1	1	0.384	0	82	0
75	1	36	0	2	2	0.0765	0.2059	0	1	0.244	10	0	0
75	1	37	0	2	3	0.0765	0.2059	1	1	0.349	10	82	0
75	1	38	0	1	1	0.0765	0.2059	1	1	0.438	9	0	82
75	1	39	1	2	3	0.0765	0.2059	0	0	0.364	0	82	82
75	1	40	1	2	1	0.0765	0.2059	0	1	0.376	97	82	82
75	1	41	1	1	2	0.0765	0.2059	1	0	0.286	0	82	0
75	1	42	1	1	3	0.0765	0.2059	1	1	0.276	100	82	0
75	1	43	1	1	1	0.0765	0.2059	0	1	0.457	89	82	82
75	1	44	1	2	2	0.0765	0.2059	1	1	0.356	99	0	82
75	1	45	0	1	1	0.0765	0.2059	1	1	0.476	9	0	82
75	1	46	1	1	1	0.0765	0.2059	0	1	0.350	100	82	82
75	1	47	1	1	3	0.0765	0.2059	0	1	0.387	96	82	82
75	1	48	9	2	2	0.0765	0.2059	1	0	0.452	0	0	82
75	1	49	1	1	1	0.0765	0.2059	1	0	0.664	0	82	0
75	1	50	1	2	3	0.0765	0.2059	0	1	0.420	93	82	82
75	1	51	1	1	3	0.0765	0.2059	0	1	0.328	100	82	82
75	1	52	1	2	2	0.0765	0.2059	1	1	0.427	92	0	82
75	1	53	1	1	3	0.0765	0.2059	1	1	0.548	80	82	0
75	1	54	1	1	3	0.0765	0.2059	1	1	0.474	88	82	0
75	1	55	0	2	2	0.0765	0.2059	1	0	0.316	0	82	0
75	1	56	1	1	1	0.0765	0.2059	0	1	0.397	95	82	82
75	1	57	1	2	3	0.0765	0.2059	1	1	0.472	88	0	82
75	1	58	1	2	2	0.0765	0.2059	0	1	0.345	100	82	82
75	1	59	0	2	1	0.0765	0.2059	1	1	0.308	10	82	0
75	1	60	1	2	3	0.0765	0.2059	1	1	0.468	88	0	82
75	1	61	1	1	2	0.0765	0.2059	0	1	0.376	97	82	82
75	1	62	0	1	3	0.0765	0.2059	1	1	0.378	10	0	82
75	1	63	0	2	1	0.0765	0.2059	1	1	0.560	8	82	0
75	1	64	9	2	3	0.0765	0.2059	1	1	0.410	0	0	82
75	1	65	0	2	3	0.0765	0.2059	0	0	0.442	0	0	0
75	1	66	0	2	2	0.0765	0.2059	0	1	0.411	9	0	0
75	1	67	1	2	3	0.0765	0.2059	0	1	0.367	98	82	82
75	1	68	0	2	3	0.0765	0.2059	1	1	0.546	8	82	0
75	1	69	1	1	3	0.0765	0.2059	0	1	0.606	74	82	82
75	1	70	9	1	3	0.0765	0.2059	0	1	0.605	0	0	0
75	1	71	9	2	3	0.0765	0.2059	0	1	0.393	0	82	82
75	1	72	1	1	2	0.0765	0.2059	1	1	0.470	88	82	0
75	1	73	1	1	2	0.0765	0.2059	0	1	0.302	100	82	82
75	1	74	0	1	1	0.0765	0.2059	1	1	0.552	8	0	82
75	1	75	1	2	2	0.0765	0.2059	1	0	0.425	0	0	82
75	1	76	9	1	2	0.0765	0.2059	1	1	0.359	0	82	0
75	1	77	1	1	2	0.0765	0.2059	1	1	0.359	99	82	0
75	1	78	1	2	2	0.0765	0.2059	0	1	0.464	89	82	82
75	1	79	1	1	1	0.0765	0.2059	0	0	0.362	0	82	82
75	1	80	0	1	1	0.0765	0.2059	0	1	0.445	9	0	0
75	1	81	0	2	3	0.0765	0.2059	0	1	0.408	9	0	0
75	1	82	9	2	3	0.0765	0.2059	0	1	0.348	0	82	82
75	1	83	9	2	3	0.0765	0.2059	0	1	0.314	0	0	0
75	1	84	1	1	3	0.0765	0.2059	1	1	0.390	96	82	0
75	1	85	0	1	3	0.0765	0.2059	0	1	0.299	10	0	0
75	1	86	0	1	1	0.0765	0.2059	1	0	0.339	0	0	82
75	1	87	0	2	2	0.0765	0.2059	1	1	0.770	6	82	0
75	1	88	1	2	3	0.0765	0.2059	0	1	0.397	95	82	82
75	1	89	1	2	3	0.0765	0.2059	0	1	0.348	100	82	82
75	1	90	0	1	1	0.0765	0.2059	1	1	0.365	10	0	82
75	1	91	1	2	3	0.0765	0.2059	0	1	0.277	100	82	82
75	1	92	0	2	3	0.0765	0.2059	0	1	0.314	10	0	0
75	1	93	0	1	1	0.0765	0.2059	0	1	0.323	10	0	0
75	1	94	1	2	3	0.0765	0.2059	1	1	0.380	97	0	82
75	1	95	1	1	1	0.0765	0.2059	1	0	0.245	0	82	0
75	1	96	0	1	3	0.0765	0.2059	1	1	0.421	9	0	82
75	1	97	0	2	3	0.0765	0.2059	1	1	0.458	9	82	0
75	1	98	9	2	3	0.0765	0.2059	1	1	0.291	0	0	82
75	1	99	0	1	1	0.0765	0.2059	1	1	0.287	10	0	82
75	1	100	0	1	2	0.0765	0.2059	1	1	0.352	10	0	82
75	1	101	9	2	2	0.0765	0.2059	1	0	0.254	0	82	0
75	1	102	1	1	3	0.0765	0.2059	1	1	0.430	92	82	0
75	1	103	0	1	1	0.0765	0.2059	1	1	0.338	10	0	82
75	1	104	1	1	1	0.0765	0.2059	0	1	0.364	99	82	82
75	1	105	0	1	3	0.0765	0.2059	0	0	0.320	0	0	0
75	1	106	9	2	3	0.0765	0.2059	0	1	0.382	0	82	82
75	1	107	1	2	2	0.0765	0.2059	0	1	0.395	96	82	82
75	1	108	1	1	3	0.0765	0.2059	0	0	0.391	0	82	82
75	1	109	0	2	2	0.0765	0.2059	0	1	0.374	10	0	0
75	1	110	0	1	3	0.0765	0.2059	1	1	0.534	8	0	82
75	1	111	1	2	3	0.0765	0.2059	0	1	0.331	100	82	82
75	1	112	0	2	2	0.0765	0.2059	0	1	0.434	9	0	0
75	1	113	1	1	1	0.0765	0.2059	1	1	0.323	100	82	0
75	1	114	0	2	2	0.0765	0.2059	1	1	0.524	8	82	0
75	1	115	1	2	1	0.0765	0.2059	1	0	0.166	0	0	82
75	1	116	0	2	2	0.0765	0.2059	1	0	0.412	0	82	0
75	1	117	1	1	1	0.0765	0.2059	1	1	0.349	100	82	0
75	1	118	1	1	1	0.0765	0.2059	1	1	0.349	100	82	0
75	1	119	1	2	3	0.0765	0.2059	1	1	0.405	94	0	82
75	1	120	9	2	3	0.0765	0.2059	1	1	0.626	0	82	0
75	1	121	9	1	3	0.0765	0.2059	0	1	0.365	0	82	82
75	1	122	0	1	1	0.0765	0.2059	1	0	4.679	0	0	82
75	1	123	9	2	2	0.0765	0.2059	0	1	0.327	0	82	82
75	1	124	0	1	3	0.0765	0.2059	1	1	0.443	9	0	82
75	1	125	1	1	1	0.0765	0.2059	1	1	0.366	98	82	0
75	1	126	0	2	2	0.0765	0.2059	1	0	0.323	0	82	0
75	1	127	0	1	1	0.0765	0.2059	0	0	0.395	0	0	0
75	1	128	9	1	3	0.0765	0.2059	0	1	0.345	0	82	82
75	1	129	0	1	2	0.0765	0.2059	0	1	0.363	10	0	0
75	1	130	1	2	2	0.0765	0.2059	1	1	0.424	93	0	82
75	1	131	9	2	1	0.0765	0.2059	0	1	0.336	0	0	0
75	1	132	0	2	3	0.0765	0.2059	1	1	0.704	6	82	0
75	1	133	0	2	3	0.0765	0.2059	0	1	0.387	10	0	0
75	1	134	1	2	1	0.0765	0.2059	0	1	0.334	100	82	82
75	1	135	9	1	1	0.0765	0.2059	0	1	0.447	0	0	0
75	1	136	1	1	3	0.0765	0.2059	0	1	0.363	99	82	82
75	1	137	0	1	3	0.0765	0.2059	1	0	0.347	0	0	82
75	1	138	0	1	1	0.0765	0.2059	0	1	0.301	10	0	0
75	1	139	0	1	1	0.0765	0.2059	1	1	0.376	10	0	82
75	1	140	0	2	3	0.0765	0.2059	0	0	0.378	0	0	0
75	1	141	1	1	2	0.0765	0.2059	0	0	0.382	0	82	82
75	1	142	0	2	3	0.0765	0.2059	1	0	0.412	0	82	0
75	1	143	9	1	2	0.0765	0.2059	0	1	0.402	0	0	0
75	1	144	0	2	2	0.0765	0.2059	1	0	0.385	0	82	0
75	1	145	9	1	1	0.0765	0.2059	0	1	0.375	0	0	0
75	1	146	1	1	3	0.0765	0.2059	0	1	0.413	94	82	82
75	1	147	0	1	1	0.0765	0.2059	0	1	0.402	9	0	0
75	1	148	1	1	1	0.0765	0.2059	0	1	0.337	100	82	82
75	1	149	1	2	1	0.0765	0.2059	1	1	0.274	100	0	82
75	1	150	9	1	1	0.0765	0.2059	1	0	0.486	0	0	82
75	1	151	1	2	3	0.0765	0.2059	1	1	0.323	100	0	82
75	1	152	0	1	3	0.0765	0.2059	0	0	0.358	0	0	0
75	1	153	9	2	2	0.0765	0.2059	0	1	0.404	0	82	82
75	1	154	0	2	3	0.0765	0.2059	1	1	0.545	8	82	0
75	1	155	9	1	3	0.0765	0.2059	1	1	0.417	0	0	82
75	1	156	1	1	1	0.0765	0.2059	1	1	0.317	100	82	0
75	1	157	9	2	2	0.0765	0.2059	1	0	0.243	0	82	0
75	1	158	1	2	1	0.0765	0.2059	0	1	0.295	100	82	82
75	1	159	0	1	1	0.0765	0.2059	1	0	0.253	0	0	82
75	1	160	1	2	2	0.0765	0.2059	1	0	0.291	0	0	82
75	1	161	9	2	2	0.0765	0.2059	1	1	0.390	0	0	82
75	1	162	9	2	1	0.0765	0.2059	1	0	0.268	0	0	82
75	1	163	0	2	2	0.0765	0.2059	1	1	0.717	6	82	0
75	1	164	0	2	3	0.0765	0.2059	0	1	0.361	10	0	0
75	1	165	0	1	1	0.0765	0.2059	1	1	0.288	10	0	82
75	1	166	9	1	3	0.0765	0.2059	1	0	0.321	0	0	82
75	1	167	1	2	1	0.0765	0.2059	1	1	0.361	99	0	82
75	1	168	0	1	1	0.0765	0.2059	1	1	0.303	10	0	82
75	1	169	0	2	3	0.0765	0.2059	0	0	0.384	0	0	0
75	1	170	0	1	2	0.0765	0.2059	0	1	0.408	9	0	0
75	1	171	0	1	3	0.0765	0.2059	0	0	0.449	0	0	0
75	1	172	9	2	2	0.0765	0.2059	1	1	0.357	0	0	82
75	1	173	0	1	3	0.0765	0.2059	1	1	0.338	10	0	82
75	1	174	1	2	2	0.0765	0.2059	0	1	0.345	100	82	82
75	1	175	1	1	3	0.0765	0.2059	0	1	0.312	100	82	82
75	1	176	0	1	3	0.0765	0.2059	0	1	0.366	10	0	0
75	1	177	1	1	3	0.0765	0.2059	1	1	0.352	100	82	0
75	1	178	0	2	2	0.0765	0.2059	1	0	0.403	0	82	0
75	1	179	1	1	3	0.0765	0.2059	1	1	0.409	94	82	0
75	1	180	1	2	1	0.0765	0.2059	0	1	0.389	96	82	82
75	1	181	1	2	3	0.0765	0.2059	1	1	0.384	97	0	82
75	1	182	1	2	2	0.0765	0.2059	0	1	0.338	100	82	82
75	1	183	0	2	2	0.0765	0.2059	0	1	0.310	10	0	0
75	1	184	1	1	1	0.0765	0.2059	0	1	0.324	100	82	82
75	1	185	9	1	1	0.0765	0.2059	0	1	0.309	0	82	82
75	1	186	0	1	1	0.0765	0.2059	1	0	0.258	0	0	82
75	1	187	1	2	3	0.0765	0.2059	1	1	0.432	92	0	82
75	1	188	1	1	3	0.0765	0.2059	1	1	0.393	96	82	0
75	1	189	9	1	1	0.0765	0.2059	0	1	0.295	0	82	82
75	1	190	0	2	3	0.0765	0.2059	1	1	0.416	9	82	0
75	1	191	1	1	1	0.0765	0.2059	0	1	0.281	100	82	82
75	1	192	9	2	2	0.0765	0.2059	0	1	0.307	0	0	0
75	1	193	1	2	2	0.0765	0.2059	1	1	0.397	95	0	82
75	1	194	1	2	3	0.0765	0.2059	1	0	0.229	0	0	82
75	1	195	1	2	3	0.0765	0.2059	0	1	0.346	100	82	82
75	1	196	0	2	2	0.0765	0.2059	0	1	0.384	10	0	0
75	1	197	0	1	2	0.0765	0.2059	0	0	0.473	0	0	0
75	1	198	1	1	1	0.0765	0.2059	1	1	0.426	92	82	0
75	1	199	9	1	3	0.0765	0.2059	1	1	0.381	0	82	0
75	1	200	0	1	3	0.0765	0.2059	0	1	0.335	10	0	0
75	1	201	0	1	1	0.0765	0.2059	0	1	0.267	10	0	0
75	1	202	0	2	1	0.0765	0.2059	0	1	0.256	10	0	0
75	1	203	0	2	2	0.0765	0.2059	0	1	0.278	10	0	0
75	1	204	1	2	2	0.0765	0.2059	1	0	0.272	0	0	82
75	1	205	1	2	3	0.0765	0.2059	0	1	0.424	93	82	82
75	1	206	1	2	2	0.0765	0.2059	0	1	0.289	100	82	82
75	1	207	9	2	3	0.0765	0.2059	0	1	0.311	0	82	82
75	1	208	0	1	1	0.0765	0.2059	0	0	0.317	0	0	0
75	1	209	0	2	3	0.0765	0.2059	0	1	0.339	10	0	0
75	1	210	0	1	1	0.0765	0.2059	1	1	0.362	10	0	82
75	1	211	1	1	3	0.0765	0.2059	0	1	0.296	100	82	82
75	1	212	1	1	3	0.0765	0.2059	1	1	0.363	99	82	0
75	1	213	1	2	3	0.0765	0.2059	0	1	0.321	100	82	82
75	1	214	1	2	2	0.0765	0.2059	0	1	0.334	100	82	82
75	1	215	1	2	2	0.0765	0.2059	0	1	0.340	100	82	82
75	1	216	1	2	3	0.0765	0.2059	0	1	0.314	100	82	82
75	1	217	9	2	3	0.0765	0.2059	0	1	0.284	0	0	0
75	1	218	0	1	1	0.0765	0.2059	0	1	0.315	10	0	0
75	1	219	0	1	3	0.0765	0.2059	1	0	0.299	0	0	82
75	1	220	0	2	2	0.0765	0.2059	0	1	0.314	10	0	0
75	1	221	1	1	1	0.0765	0.2059	0	1	0.371	98	82	82
75	1	222	0	1	1	0.0765	0.2059	1	1	0.267	10	0	82
75	1	223	0	1	3	0.0765	0.2059	1	0	0.229	0	0	82
75	1	224	1	1	1	0.0765	0.2059	0	1	0.418	93	82	82
75	1	225	1	1	3	0.0765	0.2059	0	1	0.361	99	82	82
75	1	226	0	1	3	0.0765	0.2059	0	1	0.414	9	0	0
75	1	227	9	1	1	0.0765	0.2059	0	1	0.305	0	82	82
75	1	228	9	2	2	0.0765	0.2059	0	1	0.251	0	0	0
75	1	229	1	1	1	0.0765	0.2059	1	1	0.308	100	82	0
75	1	230	1	1	3	0.0765	0.2059	1	0	0.233	0	82	0
75	1	231	1	1	1	0.0765	0.2059	0	1	0.259	100	82	82
75	1	232	9	2	2	0.0765	0.2059	1	0	0.256	0	82	0
75	1	233	1	2	3	0.0765	0.2059	1	0	0.104	0	0	82
75	1	234	0	2	3	0.0765	0.2059	1	1	0.285	10	82	0
75	1	235	1	2	3	0.0765	0.2059	0	1	0.293	100	82	82
75	1	236	1	1	3	0.0765	0.2059	0	1	0.322	100	82	82
75	1	237	1	1	3	0.0765	0.2059	1	1	0.450	90	82	0
75	1	238	1	1	3	0.0765	0.2059	0	1	0.326	100	82	82
75	1	239	9	2	2	0.0765	0.2059	0	1	0.338	0	82	82
75	1	240	1	2	2	0.0765	0.2059	0	1	0.305	100	82	82
75	1	241	9	1	1	0.0765	0.2059	1	0	0.318	0	0	82
75	1	242	0	2	2	0.0765	0.2059	1	1	0.575	8	82	0
75	1	243	0	1	1	0.0765	0.2059	0	1	0.324	10	0	0
75	1	244	0	1	1	0.0765	0.2059	0	1	0.338	10	0	0
75	1	245	0	2	2	0.0765	0.2059	1	1	0.445	9	82	0
75	1	246	1	1	1	0.0765	0.2059	1	0	0.299	0	82	0
75	1	247	0	2	3	0.0765	0.2059	1	0	0.411	0	82	0
75	1	248	0	1	3	0.0765	0.2059	1	1	0.345	10	0	82
75	1	249	9	2	2	0.0765	0.2059	1	1	0.366	0	82	0
75	1	250	0	1	3	0.0765	0.2059	0	1	0.317	10	0	0
75	1	251	9	1	3	0.0765	0.2059	0	1	0.437	0	82	82
75	1	252	9	1	3	0.0765	0.2059	1	1	0.385	0	82	0
75	1	253	1	1	2	0.0765	0.2059	0	1	0.300	100	82	82
75	1	254	1	1	1	0.0765	0.2059	1	0	2.389	0	82	0
75	1	255	9	1	3	0.0765	0.2059	0	1	0.344	0	0	0
75	1	256	1	2	3	0.0765	0.2059	1	1	0.334	100	0	82
75	1	257	1	1	1	0.0765	0.2059	0	1	0.380	97	82	82
75	1	258	1	2	2	0.0765	0.2059	1	1	0.415	93	0	82
75	1	259	9	1	1	0.0765	0.2059	1	1	0.329	0	0	82
75	1	260	0	2	3	0.0765	0.2059	0	1	0.302	10	0	0
75	1	261	1	2	2	0.0765	0.2059	1	1	0.348	100	0	82
75	1	262	0	1	1	0.0765	0.2059	0	0	0.354	0	0	0
75	1	263	9	1	1	0.0765	0.2059	0	1	0.332	0	82	82
75	1	264	9	1	3	0.0765	0.2059	0	1	0.357	0	82	82
75	1	265	0	2	3	0.0765	0.2059	0	1	0.268	10	0	0
75	1	266	0	1	3	0.0765	0.2059	0	1	0.333	10	0	0
75	1	267	0	2	2	0.0765	0.2059	0	1	0.312	10	0	0
75	1	268	0	2	2	0.0765	0.2059	1	0	0.244	0	82	0
75	1	269	0	1	3	0.0765	0.2059	1	0	0.451	0	0	82
75	1	270	1	2	3	0.0765	0.2059	1	1	0.408	94	0	82
75	1	271	9	2	3	0.0765	0.2059	1	1	0.414	0	0	82
75	1	272	1	2	3	0.0765	0.2059	1	0	0.018	0	0	82
75	1	273	1	1	1	0.0765	0.2059	0	1	0.299	100	82	82
75	1	274	0	2	2	0.0765	0.2059	0	1	0.335	10	0	0
75	1	275	0	1	1	0.0765	0.2059	0	1	0.369	10	0	0
75	1	276	0	1	2	0.0765	0.2059	0	1	0.343	10	0	0
75	1	277	0	1	3	0.0765	0.2059	0	1	0.476	9	0	0
75	1	278	1	1	3	0.0765	0.2059	1	0	0.337	0	82	0
75	1	279	1	2	3	0.0765	0.2059	1	0	0.397	0	0	82
75	1	280	1	1	3	0.0765	0.2059	0	1	0.370	98	82	82
75	1	281	9	2	2	0.0765	0.2059	1	1	0.355	0	0	82
75	1	282	9	2	1	0.0765	0.2059	0	1	0.299	0	82	82
75	1	283	9	1	3	0.0765	0.2059	1	0	0.329	0	0	82
75	1	284	1	1	1	0.0765	0.2059	0	1	0.363	99	82	82
75	1	285	1	1	3	0.0765	0.2059	1	1	0.396	95	82	0
75	1	286	0	1	1	0.0765	0.2059	0	1	0.310	10	0	0
75	1	287	0	2	2	0.0765	0.2059	1	1	0.582	8	82	0
75	1	288	9	2	2	0.0765	0.2059	0	1	0.397	0	0	0
75	1	289	1	1	1	0.0765	0.2059	1	1	0.311	100	82	0
75	1	290	0	1	2	0.0765	0.2059	1	0	0.434	0	0	82
75	1	291	9	1	1	0.0765	0.2059	1	1	0.419	0	82	0
75	1	292	0	1	3	0.0765	0.2059	0	1	0.322	10	0	0
75	1	293	0	1	3	0.0765	0.2059	1	1	0.488	9	0	82
75	1	294	1	2	1	0.0765	0.2059	1	0	0.285	0	0	82
75	1	295	0	1	3	0.0765	0.2059	0	0	0.535	0	0	0
75	1	296	0	1	3	0.0765	0.2059	0	1	0.292	10	0	0
75	1	297	0	2	3	0.0765	0.2059	1	0	0.459	0	82	0
75	1	298	1	1	3	0.0765	0.2059	0	1	0.388	96	82	82
75	1	299	0	2	2	0.0765	0.2059	0	1	0.379	10	0	0
75	1	300	1	1	3	0.0765	0.2059	1	0	0.348	0	82	0
75	1	301	1	2	2	0.0765	0.2059	0	1	0.300	100	82	82
75	1	302	0	2	1	0.0765	0.2059	1	1	0.582	8	82	0
75	1	303	1	1	1	0.0765	0.2059	1	1	0.384	97	82	0
75	1	304	0	2	3	0.0765	0.2059	1	1	0.395	10	82	0
75	1	305	0	1	3	0.0765	0.2059	1	0	0.381	0	0	82
75	1	306	0	2	1	0.0765	0.2059	0	1	0.417	9	0	0
75	1	307	0	2	3	0.0765	0.2059	0	1	0.337	10	0	0
75	1	308	0	2	3	0.0765	0.2059	1	1	0.375	10	82	0
75	1	309	9	1	1	0.0765	0.2059	1	1	0.512	0	82	0
75	1	310	9	1	1	0.0765	0.2059	0	0	0.644	0	0	0
75	1	311	1	1	1	0.0765	0.2059	1	1	0.372	98	82	0
75	1	312	1	2	2	0.0765	0.2059	0	1	0.313	100	82	82
75	1	313	0	1	2	0.0765	0.2059	1	1	0.879	5	0	82
75	1	314	1	2	2	0.0765	0.2059	1	1	0.447	90	0	82
75	1	315	0	1	3	0.0765	0.2059	0	1	0.347	10	0	0
75	1	316	9	2	3	0.0765	0.2059	1	1	0.273	0	0	82
75	1	317	1	2	2	0.0765	0.2059	0	1	0.213	100	82	82
75	1	318	1	1	2	0.0765	0.2059	1	0	0.270	0	82	0
75	1	319	1	1	1	0.0765	0.2059	0	1	0.401	95	82	82
75	1	320	1	2	2	0.0765	0.2059	0	1	0.414	94	82	82
75	1	321	0	2	1	0.0765	0.2059	0	1	0.393	10	0	0
75	1	322	0	1	1	0.0765	0.2059	0	1	0.557	8	0	0
75	1	323	1	1	1	0.0765	0.2059	1	1	0.384	97	82	0
75	1	324	0	2	1	0.0765	0.2059	1	0	0.475	0	82	0
75	1	325	0	2	3	0.0765	0.2059	1	1	0.518	8	82	0
75	1	326	0	2	3	0.0765	0.2059	0	1	0.534	8	0	0
75	1	327	1	2	3	0.0765	0.2059	1	1	0.418	93	0	82
75	1	328	9	2	3	0.0765	0.2059	1	0	0.013	0	82	0
75	1	329	1	1	3	0.0765	0.2059	0	1	0.384	97	82	82
75	1	330	0	2	2	0.0765	0.2059	1	0	0.340	0	82	0
75	1	331	1	2	2	0.0765	0.2059	0	1	0.423	93	82	82
75	1	332	9	1	3	0.0765	0.2059	1	1	0.577	0	0	82
75	1	333	9	1	1	0.0765	0.2059	1	1	0.686	0	82	0
75	1	334	1	1	1	0.0765	0.2059	0	0	0.825	0	82	82
75	1	335	0	2	3	0.0765	0.2059	1	0	0.591	0	82	0
75	1	336	1	2	2	0.0765	0.2059	1	1	0.405	94	0	82
75	1	337	0	2	3	0.0765	0.2059	0	1	0.441	9	0	0
75	1	338	0	2	2	0.0765	0.2059	1	1	0.750	6	82	0
75	1	339	9	1	3	0.0765	0.2059	1	1	0.403	0	82	0
75	1	340	9	1	3	0.0765	0.2059	0	1	0.328	0	0	0
75	1	341	0	1	3	0.0765	0.2059	0	1	0.334	10	0	0
75	1	342	1	2	2	0.0765	0.2059	1	1	0.410	94	0	82
75	1	343	0	2	2	0.0765	0.2059	0	1	0.377	10	0	0
75	1	344	1	2	2	0.0765	0.2059	1	1	0.406	94	0	82
75	1	345	9	1	2	0.0765	0.2059	1	0	0.451	0	0	82
75	1	346	0	2	2	0.0765	0.2059	1	0	0.666	0	82	0
75	1	347	1	2	3	0.0765	0.2059	1	1	0.402	95	0	82
75	1	348	9	2	3	0.0765	0.2059	1	0	0.481	0	82	0
75	1	349	9	2	3	0.0765	0.2059	1	1	1.063	0	82	0
75	1	350	1	2	2	0.0765	0.2059	1	1	0.460	89	0	82
75	1	351	1	2	3	0.0765	0.2059	0	1	0.437	91	82	82
75	1	352	0	1	1	0.0765	0.2059	1	1	0.408	9	0	82
75	1	353	0	2	3	0.0765	0.2059	0	1	0.289	10	0	0
75	1	354	9	1	2	0.0765	0.2059	0	1	0.347	0	82	82
75	1	355	0	2	3	0.0765	0.2059	1	0	0.496	0	82	0
75	1	356	0	1	2	0.0765	0.2059	1	1	0.413	9	0	82
75	1	357	9	1	1	0.0765	0.2059	0	0	0.306	0	0	0
75	1	358	9	2	3	0.0765	0.2059	0	1	0.324	0	0	0
75	1	359	0	2	1	0.0765	0.2059	0	1	0.258	10	0	0
75	1	360	9	2	2	0.0765	0.2059	0	1	0.287	0	0	0
75	1	361	0	1	3	0.0765	0.2059	1	0	0.247	0	0	82
75	1	362	1	2	2	0.0765	0.2059	1	1	0.390	96	0	82
75	1	363	1	2	3	0.0765	0.2059	0	1	0.327	100	82	82
75	1	364	9	2	3	0.0765	0.2059	1	1	0.422	0	82	0
75	1	365	0	2	3	0.0765	0.2059	1	1	0.396	10	82	0
75	1	366	0	2	2	0.0765	0.2059	0	1	0.194	10	0	0
75	1	367	0	2	1	0.0765	0.2059	1	1	0.240	10	82	0
75	1	368	1	2	3	0.0765	0.2059	1	0	0.289	0	0	82
75	1	369	0	2	3	0.0765	0.2059	1	0	0.248	0	82	0
75	1	370	1	1	3	0.0765	0.2059	1	1	0.412	94	82	0
75	1	371	9	2	2	0.0765	0.2059	0	1	0.244	0	82	82
75	1	372	0	1	1	0.0765	0.2059	1	0	0.321	0	0	82
75	1	373	1	1	3	0.0765	0.2059	1	1	0.372	98	82	0
75	1	374	9	2	3	0.0765	0.2059	0	1	0.342	0	0	0
75	1	375	0	1	2	0.0765	0.2059	0	1	0.261	10	0	0
75	1	376	1	2	3	0.0765	0.2059	0	1	0.344	100	82	82
75	1	377	1	1	3	0.0765	0.2059	1	1	0.241	100	82	0
75	1	378	0	2	1	0.0765	0.2059	1	1	0.364	10	82	0
75	1	379	1	1	1	0.0765	0.2059	1	0	0.189	0	82	0
75	1	380	1	2	3	0.0765	0.2059	1	1	0.355	99	0	82
75	1	381	9	1	1	0.0765	0.2059	0	1	0.280	0	82	82
75	1	382	0	1	3	0.0765	0.2059	1	1	0.288	10	0	82
75	1	383	9	1	3	0.0765	0.2059	0	1	0.295	0	82	82
75	1	384	0	2	2	0.0765	0.2059	0	1	0.220	10	0	0
75	1	385	0	1	2	0.0765	0.2059	0	1	0.144	10	0	0
75	1	386	0	2	3	0.0765	0.2059	0	0	0.220	0	0	0
75	1	387	1	1	1	0.0765	0.2059	1	1	0.330	100	82	0
75	1	388	0	2	3	0.0765	0.2059	0	1	0.320	10	0	0
75	1	389	1	1	3	0.0765	0.2059	1	1	1.132	50	82	0
75	1	390	9	1	3	0.0765	0.2059	1	0	0.265	0	0	82
75	1	391	0	2	2	0.0765	0.2059	0	1	0.314	10	0	0
75	1	392	0	2	1	0.0765	0.2059	0	0	0.287	0	0	0
75	1	393	0	1	1	0.0765	0.2059	0	1	0.279	10	0	0
75	1	394	1	1	3	0.0765	0.2059	1	1	0.335	100	82	0
75	1	395	0	2	3	0.0765	0.2059	1	0	0.214	0	82	0
75	1	396	1	1	1	0.0765	0.2059	1	1	0.236	100	82	0
75	1	397	9	2	1	0.0765	0.2059	1	0	0.343	0	82	0
75	1	398	1	1	1	0.0765	0.2059	1	1	0.303	100	82	0
75	1	399	0	1	1	0.0765	0.2059	0	1	0.251	10	0	0
75	1	400	0	1	1	0.0765	0.2059	0	1	0.505	8	0	0
75	1	401	1	2	2	0.0765	0.2059	0	1	0.239	100	82	82
75	1	402	9	1	3	0.0765	0.2059	1	0	0.218	0	0	82
75	1	403	1	1	3	0.0765	0.2059	1	0	0.155	0	82	0
75	1	404	0	1	3	0.0765	0.2059	1	0	0.197	0	0	82
75	1	405	0	1	1	0.0765	0.2059	1	1	0.330	10	0	82
75	1	406	1	1	1	0.0765	0.2059	0	1	0.213	100	82	82
75	1	407	9	1	3	0.0765	0.2059	0	1	0.284	0	82	82
75	1	408	0	1	3	0.0765	0.2059	0	1	0.218	10	0	0
75	1	409	0	1	3	0.0765	0.2059	1	1	0.126	10	0	82
75	1	410	9	1	1	0.0765	0.2059	0	1	0.246	0	82	82
75	1	411	1	1	1	0.0765	0.2059	0	1	0.153	100	82	82
75	1	412	9	1	3	0.0765	0.2059	1	0	0.495	0	0	82
75	1	413	9	1	3	0.0765	0.2059	0	1	0.176	0	0	0
75	1	414	9	2	3	0.0765	0.2059	1	0	0.164	0	82	0
75	1	415	1	1	1	0.0765	0.2059	1	1	-0.184	100	82	0
75	1	416	0	2	2	0.0765	0.2059	1	0	0.433	0	82	0
75	1	417	1	1	1	0.0765	0.2059	0	1	0.335	100	82	82
75	1	418	1	2	3	0.0765	0.2059	1	1	0.586	76	0	82
75	1	419	1	1	3	0.0765	0.2059	0	0	0.401	0	82	82
75	1	420	9	2	3	0.0765	0.2059	0	1	0.394	0	82	82
75	1	421	1	1	3	0.0765	0.2059	0	0	0.393	0	82	82
75	1	422	1	1	1	0.0765	0.2059	0	1	0.422	93	82	82
75	1	423	0	1	3	0.0765	0.2059	0	1	0.383	10	0	0
75	1	424	9	2	3	0.0765	0.2059	0	1	0.513	0	82	82
75	1	425	1	2	3	0.0765	0.2059	1	1	0.283	100	0	82
75	1	426	9	2	1	0.0765	0.2059	0	1	0.442	0	0	0
75	1	427	9	1	1	0.0765	0.2059	1	0	0.590	0	82	0
75	1	428	9	1	1	0.0765	0.2059	1	1	0.437	0	82	0
75	1	429	1	2	3	0.0765	0.2059	1	1	0.383	97	0	82
75	1	430	1	1	3	0.0765	0.2059	0	1	0.437	91	82	82
75	1	431	1	1	3	0.0765	0.2059	0	0	0.283	0	82	82
75	1	432	1	1	1	0.0765	0.2059	0	1	0.578	77	82	82
75	1	433	1	2	2	0.0765	0.2059	1	1	0.412	94	0	82
75	1	434	0	1	1	0.0765	0.2059	1	1	0.473	9	0	82
75	1	435	9	1	1	0.0765	0.2059	0	1	0.382	0	82	82
75	1	436	9	2	2	0.0765	0.2059	1	1	0.389	0	82	0
75	1	437	9	2	2	0.0765	0.2059	1	0	0.230	0	0	82
75	1	438	0	1	3	0.0765	0.2059	0	1	0.415	9	0	0
75	1	439	1	2	3	0.0765	0.2059	0	1	0.363	99	82	82
75	1	440	1	2	3	0.0765	0.2059	1	0	0.327	0	0	82
75	1	441	0	1	3	0.0765	0.2059	0	1	1.089	5	0	0
75	1	442	0	2	2	0.0765	0.2059	1	1	0.681	7	82	0
75	1	443	1	1	1	0.0765	0.2059	0	1	0.339	100	82	82
75	1	444	0	2	2	0.0765	0.2059	0	1	0.400	9	0	0
75	1	445	0	1	3	0.0765	0.2059	1	1	0.401	9	0	82
75	1	446	1	2	3	0.0765	0.2059	1	0	0.275	0	0	82
75	1	447	0	2	3	0.0765	0.2059	0	1	0.275	10	0	0
75	1	448	0	1	2	0.0765	0.2059	1	0	0.774	0	0	82
75	1	449	0	1	1	0.0765	0.2059	1	1	0.472	9	0	82
75	1	450	1	1	1	0.0765	0.2059	0	1	0.430	92	82	82
75	1	451	1	2	2	0.0765	0.2059	0	1	0.409	94	82	82
75	1	452	1	2	3	0.0765	0.2059	0	1	0.385	97	82	82
75	1	453	0	1	3	0.0765	0.2059	0	1	0.388	10	0	0
75	1	454	0	2	2	0.0765	0.2059	1	1	0.537	8	82	0
75	1	455	0	2	3	0.0765	0.2059	1	1	0.447	9	82	0
75	1	456	0	1	3	0.0765	0.2059	0	1	0.428	9	0	0
75	1	457	1	1	1	0.0765	0.2059	1	1	0.377	97	82	0
75	1	458	0	2	3	0.0765	0.2059	0	1	0.420	9	0	0
75	1	459	0	1	3	0.0765	0.2059	1	0	0.887	0	0	82
75	1	460	1	1	3	0.0765	0.2059	1	1	0.429	92	82	0
75	1	461	0	2	3	0.0765	0.2059	1	0	0.477	0	82	0
75	1	462	1	2	1	0.0765	0.2059	0	1	0.416	93	82	82
75	1	463	0	2	3	0.0765	0.2059	1	1	0.989	5	82	0
75	1	464	9	1	3	0.0765	0.2059	1	1	0.427	0	82	0
75	1	465	0	1	1	0.0765	0.2059	1	1	0.371	10	0	82
75	1	466	9	2	2	0.0765	0.2059	0	1	0.376	0	0	0
75	1	467	9	2	2	0.0765	0.2059	0	1	0.363	0	82	82
75	1	468	1	1	2	0.0765	0.2059	0	1	0.290	100	82	82
75	1	469	0	1	1	0.0765	0.2059	1	1	0.448	9	0	82
75	1	470	9	2	2	0.0765	0.2059	1	0	0.280	0	0	82
75	1	471	1	1	2	0.0765	0.2059	1	0	0.266	0	82	0
75	1	472	1	2	3	0.0765	0.2059	0	1	0.370	98	82	82
75	1	473	0	2	3	0.0765	0.2059	0	1	0.378	10	0	0
75	1	474	9	1	1	0.0765	0.2059	1	1	0.295	0	82	0
75	1	475	1	2	2	0.0765	0.2059	1	0	0.270	0	0	82
75	1	476	1	2	1	0.0765	0.2059	0	1	0.540	81	82	82
75	1	477	0	1	1	0.0765	0.2059	1	1	0.505	8	0	82
75	1	478	0	1	1	0.0765	0.2059	1	0	0.326	0	0	82
75	1	479	1	1	1	0.0765	0.2059	1	1	0.412	94	82	0
75	1	480	0	2	2	0.0765	0.2059	0	1	0.294	10	0	0
75	1	481	0	1	3	0.0765	0.2059	1	1	0.462	9	0	82
75	1	482	1	2	3	0.0765	0.2059	0	1	0.329	100	82	82
75	1	483	1	1	3	0.0765	0.2059	1	1	0.402	95	82	0
75	1	484	9	1	1	0.0765	0.2059	0	0	0.292	0	0	0
75	1	485	1	2	2	0.0765	0.2059	1	1	0.378	97	0	82
75	1	486	0	2	2	0.0765	0.2059	1	0	0.251	0	82	0
75	1	487	0	1	1	0.0765	0.2059	1	1	0.398	10	0	82
75	1	488	1	1	1	0.0765	0.2059	1	0	0.498	0	82	0
75	1	489	9	2	2	0.0765	0.2059	1	1	0.383	0	0	82
75	1	490	1	1	1	0.0765	0.2059	0	1	0.451	90	82	82
75	1	491	1	2	2	0.0765	0.2059	1	0	0.164	0	0	82
75	1	492	1	2	2	0.0765	0.2059	0	1	0.314	100	82	82
75	1	493	1	2	2	0.0765	0.2059	1	1	0.255	100	0	82
75	1	494	0	1	1	0.0765	0.2059	1	1	0.260	10	0	82
75	1	495	1	1	3	0.0765	0.2059	0	1	0.466	88	82	82
75	1	496	9	2	3	0.0765	0.2059	0	1	0.328	0	82	82
75	1	497	0	1	1	0.0765	0.2059	0	0	0.253	0	0	0
75	1	498	0	2	1	0.0765	0.2059	0	1	0.236	10	0	0
75	1	499	9	2	3	0.0765	0.2059	1	0	0.278	0	0	82
75	1	500	9	2	2	0.0765	0.2059	1	0	0.257	0	82	0
75	1	501	0	2	2	0.0765	0.2059	0	1	0.258	10	0	0
75	1	502	1	2	2	0.0765	0.2059	0	1	0.460	89	82	82
75	1	503	0	1	1	0.0765	0.2059	0	0	0.341	0	0	0
75	1	504	1	2	2	0.0765	0.2059	1	1	0.334	100	0	82
75	1	505	1	2	2	0.0765	0.2059	0	1	0.285	100	82	82
75	1	506	0	2	3	0.0765	0.2059	1	1	0.399	10	82	0
75	1	507	0	1	1	0.0765	0.2059	1	1	0.288	10	0	82
75	1	508	0	1	3	0.0765	0.2059	0	0	0.362	0	0	0
75	1	509	0	1	3	0.0765	0.2059	0	1	0.341	10	0	0
75	1	510	1	1	3	0.0765	0.2059	1	1	0.385	96	82	0
75	1	511	1	1	1	0.0765	0.2059	0	0	0.243	0	82	82
75	1	512	1	1	3	0.0765	0.2059	0	1	0.227	100	82	82
75	1	513	1	2	3	0.0765	0.2059	0	1	0.278	100	82	82
75	1	514	0	2	3	0.0765	0.2059	0	1	0.321	10	0	0
75	1	515	1	1	2	0.0765	0.2059	0	1	0.252	100	82	82
75	1	516	1	2	2	0.0765	0.2059	1	0	0.203	0	0	82
75	1	517	0	2	3	0.0765	0.2059	1	0	0.272	0	82	0
75	1	518	0	2	2	0.0765	0.2059	1	1	0.434	9	82	0
75	1	519	9	2	3	0.0765	0.2059	0	1	0.271	0	82	82
75	1	520	9	2	2	0.0765	0.2059	0	1	0.384	0	0	0
75	1	521	9	2	3	0.0765	0.2059	1	1	0.376	0	82	0
75	1	522	1	2	2	0.0765	0.2059	0	1	0.329	100	82	82
75	1	523	0	2	3	0.0765	0.2059	0	1	0.298	10	0	0
75	1	524	1	1	1	0.0765	0.2059	1	1	0.267	100	82	0
75	1	525	1	2	3	0.0765	0.2059	1	0	0.195	0	0	82
75	1	526	0	2	2	0.0765	0.2059	1	1	0.464	9	82	0
75	1	527	9	1	1	0.0765	0.2059	1	1	0.263	0	0	82
75	1	528	0	2	2	0.0765	0.2059	1	0	0.215	0	82	0
75	1	529	1	2	2	0.0765	0.2059	0	1	0.228	100	82	82
75	1	530	1	1	3	0.0765	0.2059	0	0	0.213	0	82	82
75	1	531	0	1	2	0.0765	0.2059	1	0	0.656	0	0	82
75	1	532	9	2	3	0.0765	0.2059	0	1	0.259	0	0	0
75	1	533	1	1	2	0.0765	0.2059	1	1	0.638	71	82	0
75	1	534	9	1	1	0.0765	0.2059	1	1	0.248	0	82	0
75	1	535	1	1	3	0.0765	0.2059	0	1	0.578	77	82	82
75	1	536	1	1	1	0.0765	0.2059	1	1	0.222	100	82	0
75	1	537	0	2	2	0.0765	0.2059	1	0	0.545	0	82	0
75	1	538	0	1	1	0.0765	0.2059	1	1	-0.093	10	0	82
75	1	539	1	1	1	0.0765	0.2059	0	0	0.251	0	82	82
75	1	540	9	1	3	0.0765	0.2059	1	1	0.351	0	82	0
75	1	541	9	1	3	0.0765	0.2059	1	1	0.424	0	82	0
75	1	542	9	1	1	0.0765	0.2059	1	1	0.261	0	0	82
75	1	543	1	1	1	0.0765	0.2059	1	1	-0.018	100	82	0
75	1	544	1	2	2	0.0765	0.2059	1	1	0.405	94	0	82
75	1	545	1	1	2	0.0765	0.2059	0	1	0.135	100	82	82
75	1	546	0	2	2	0.0765	0.2059	0	1	0.095	10	0	0
75	1	547	0	2	3	0.0765	0.2059	0	1	0.286	10	0	0
75	1	548	0	1	3	0.0765	0.2059	1	1	0.440	9	0	82
75	1	549	0	2	3	0.0765	0.2059	0	1	0.200	10	0	0
75	1	550	9	1	1	0.0765	0.2059	1	1	0.135	0	0	82
75	1	551	1	2	2	0.0765	0.2059	0	1	0.239	100	82	82
75	1	552	1	1	3	0.0765	0.2059	1	1	0.443	91	82	0
75	1	553	9	2	1	0.0765	0.2059	0	0	0.220	0	82	82
75	1	554	0	1	3	0.0765	0.2059	1	0	0.302	0	0	82
75	1	555	1	2	2	0.0765	0.2059	0	1	0.210	100	82	82
75	1	556	9	2	3	0.0765	0.2059	1	0	0.234	0	0	82
75	1	557	9	1	1	0.0765	0.2059	0	0	0.262	0	0	0
75	1	558	1	2	1	0.0765	0.2059	0	0	0.032	0	82	82
75	1	559	1	2	3	0.0765	0.2059	1	1	0.383	97	0	82
75	1	560	1	1	1	0.0765	0.2059	0	0	0.248	0	82	82
75	1	561	1	2	3	0.0765	0.2059	0	1	0.249	100	82	82
75	1	562	0	2	3	0.0765	0.2059	1	1	0.384	10	82	0
75	1	563	1	1	1	0.0765	0.2059	1	0	0.275	0	82	0
75	1	564	1	1	3	0.0765	0.2059	0	1	0.281	100	82	82
75	1	565	0	2	2	0.0765	0.2059	0	1	0.258	10	0	0
75	1	566	1	2	2	0.0765	0.2059	1	1	0.461	89	0	82
75	1	567	9	2	2	0.0765	0.2059	1	1	0.394	0	0	82
75	1	568	0	2	2	0.0765	0.2059	0	1	0.236	10	0	0
75	1	569	0	2	2	0.0765	0.2059	1	0	0.472	0	82	0
75	1	570	0	1	3	0.0765	0.2059	0	0	0.423	0	0	0
75	1	571	0	1	1	0.0765	0.2059	0	1	0.519	8	0	0
75	1	572	0	2	2	0.0765	0.2059	0	1	0.396	10	0	0
75	1	573	0	1	1	0.0765	0.2059	1	1	0.237	10	0	82
75	1	574	0	2	3	0.0765	0.2059	0	1	0.328	10	0	0
75	1	575	9	2	3	0.0765	0.2059	1	1	0.315	0	0	82
75	1	576	1	2	2	0.0765	0.2059	0	1	0.251	100	82	82
75	1	577	0	2	3	0.0765	0.2059	0	1	0.398	10	0	0
75	1	578	9	2	3	0.0765	0.2059	0	1	0.396	0	0	0
75	1	579	1	2	3	0.0765	0.2059	0	1	0.410	94	82	82
75	1	580	0	1	1	0.0765	0.2059	0	1	0.242	10	0	0
75	1	581	9	2	2	0.0765	0.2059	1	0	0.291	0	82	0
75	1	582	0	2	3	0.0765	0.2059	1	0	0.600	0	82	0
75	1	583	1	1	3	0.0765	0.2059	0	0	0.368	0	82	82
75	1	584	1	2	2	0.0765	0.2059	0	1	0.178	100	82	82
75	1	585	9	2	3	0.0765	0.2059	1	1	0.579	0	82	0
75	1	586	0	2	2	0.0765	0.2059	1	1	0.261	10	82	0
75	1	587	1	2	3	0.0765	0.2059	0	1	0.349	100	82	82
75	1	588	9	1	3	0.0765	0.2059	0	1	0.262	0	0	0
75	1	589	9	1	1	0.0765	0.2059	0	0	0.135	0	0	0
75	1	590	0	1	1	0.0765	0.2059	1	1	0.554	8	0	82
75	1	591	9	2	3	0.0765	0.2059	1	1	0.400	0	0	82
75	1	592	1	2	2	0.0765	0.2059	0	1	0.217	100	82	82
75	1	593	9	2	2	0.0765	0.2059	0	1	0.395	0	82	82
75	1	594	0	1	3	0.0765	0.2059	0	1	-0.038	10	0	0
75	1	595	0	1	1	0.0765	0.2059	0	0	0.108	0	0	0
75	1	596	0	1	3	0.0765	0.2059	0	1	0.241	10	0	0
75	1	597	0	2	1	0.0765	0.2059	1	1	0.386	10	82	0
75	1	598	1	2	3	0.0765	0.2059	1	1	0.457	89	0	82
75	1	599	0	2	2	0.0765	0.2059	1	0	-0.161	0	82	0
75	1	600	0	1	3	0.0765	0.2059	0	0	0.335	0	0	0
75	1	601	1	2	3	0.0765	0.2059	1	1	0.235	100	0	82
75	1	602	0	2	3	0.0765	0.2059	1	1	0.520	8	82	0
75	1	603	1	1	1	0.0765	0.2059	1	1	0.073	100	82	0
75	1	604	1	2	1	0.0765	0.2059	0	0	0.216	0	82	82
75	1	605	1	1	1	0.0765	0.2059	0	0	0.157	0	82	82
75	1	606	1	2	3	0.0765	0.2059	1	0	0.252	0	0	82
75	1	607	0	2	3	0.0765	0.2059	1	1	0.613	7	82	0
75	1	608	0	2	2	0.0765	0.2059	0	1	0.381	10	0	0
75	1	609	9	1	3	0.0765	0.2059	0	1	0.457	0	0	0
75	1	610	1	1	3	0.0765	0.2059	1	1	0.385	97	82	0
75	1	611	1	2	1	0.0765	0.2059	1	0	0.212	0	0	82
75	1	612	0	1	1	0.0765	0.2059	0	1	0.228	10	0	0
75	1	613	1	1	3	0.0765	0.2059	0	1	0.287	100	82	82
75	1	614	0	2	3	0.0765	0.2059	0	1	0.369	10	0	0
75	1	615	1	2	1	0.0765	0.2059	1	0	0.267	0	0	82
75	1	616	0	2	3	0.0765	0.2059	0	1	0.341	10	0	0
75	1	617	1	2	2	0.0765	0.2059	1	1	0.383	97	0	82
75	1	618	1	2	1	0.0765	0.2059	1	0	0.291	0	0	82
75	1	619	0	1	3	0.0765	0.2059	1	0	0.889	0	0	82
75	1	620	1	2	3	0.0765	0.2059	1	1	0.320	100	0	82
75	1	621	1	1	3	0.0765	0.2059	0	1	0.425	93	82	82
75	1	622	0	1	3	0.0765	0.2059	1	1	0.771	6	0	82
75	1	623	1	1	1	0.0765	0.2059	0	1	0.465	88	82	82
75	1	624	0	2	2	0.0765	0.2059	1	1	0.637	7	82	0
75	1	625	0	2	2	0.0765	0.2059	1	1	0.633	7	82	0
75	1	626	9	1	2	0.0765	0.2059	1	1	0.548	0	82	0
75	1	627	1	2	3	0.0765	0.2059	1	1	0.424	93	0	82
75	1	628	9	1	2	0.0765	0.2059	1	1	0.279	0	0	82
75	1	629	0	1	2	0.0765	0.2059	0	1	0.235	10	0	0
75	1	630	1	2	3	0.0765	0.2059	0	0	0.243	0	82	82
75	1	631	0	1	1	0.0765	0.2059	0	0	0.196	0	0	0
75	1	632	9	2	2	0.0765	0.2059	1	1	0.436	0	82	0
75	1	633	1	1	3	0.0765	0.2059	1	1	0.434	92	82	0
75	1	634	0	2	1	0.0765	0.2059	0	1	0.382	10	0	0
75	1	635	1	2	2	0.0765	0.2059	1	1	0.456	89	0	82
75	1	636	1	2	3	0.0765	0.2059	0	1	0.250	100	82	82
75	1	637	1	2	3	0.0765	0.2059	0	1	0.341	100	82	82
75	1	638	0	2	3	0.0765	0.2059	1	1	0.236	10	82	0
75	1	639	1	1	1	0.0765	0.2059	0	0	-0.093	0	82	82
75	1	640	0	2	2	0.0765	0.2059	1	0	0.254	0	82	0
75	1	641	1	2	1	0.0765	0.2059	1	1	0.403	95	0	82
75	1	642	9	2	3	0.0765	0.2059	0	1	0.282	0	0	0
75	1	643	0	1	3	0.0765	0.2059	1	1	0.624	7	0	82
75	1	644	0	1	1	0.0765	0.2059	0	0	0.352	0	0	0
75	1	645	1	1	2	0.0765	0.2059	0	1	0.356	99	82	82
75	1	646	0	1	3	0.0765	0.2059	1	1	0.544	8	0	82
75	1	647	1	1	3	0.0765	0.2059	0	1	0.459	89	82	82
75	1	648	1	1	3	0.0765	0.2059	1	0	0.553	0	82	0
75	1	649	1	2	2	0.0765	0.2059	1	1	0.419	93	0	82
75	1	650	0	2	2	0.0765	0.2059	0	1	0.291	10	0	0
75	1	651	0	2	3	0.0765	0.2059	1	1	0.460	9	82	0
75	1	652	1	1	1	0.0765	0.2059	0	0	0.263	0	82	82
75	1	653	1	2	2	0.0765	0.2059	0	1	0.257	100	82	82
75	1	654	9	2	2	0.0765	0.2059	0	1	0.323	0	0	0
75	1	655	0	2	3	0.0765	0.2059	0	1	0.310	10	0	0
75	1	656	9	1	3	0.0765	0.2059	1	1	0.525	0	0	82
75	1	657	1	2	2	0.0765	0.2059	1	0	-0.080	0	0	82
75	1	658	1	2	2	0.0765	0.2059	1	1	0.422	93	0	82
75	1	659	1	1	2	0.0765	0.2059	1	0	0.306	0	82	0
75	1	660	0	1	3	0.0765	0.2059	1	1	0.475	9	0	82
75	1	661	1	1	3	0.0765	0.2059	0	1	0.414	94	82	82
75	1	662	1	2	2	0.0765	0.2059	0	1	0.354	100	82	82
75	1	663	1	1	1	0.0765	0.2059	1	1	0.660	69	82	0
75	1	664	0	1	1	0.0765	0.2059	0	1	0.381	10	0	0
75	1	665	0	2	2	0.0765	0.2059	1	0	0.261	0	82	0
75	1	666	1	1	1	0.0765	0.2059	1	1	0.181	100	82	0
75	1	667	0	2	3	0.0765	0.2059	1	0	0.329	0	82	0
75	1	668	9	2	2	0.0765	0.2059	0	1	0.189	0	82	82
75	1	669	0	2	3	0.0765	0.2059	1	1	0.736	6	82	0
75	1	670	9	1	1	0.0765	0.2059	0	0	0.486	0	0	0
75	1	671	1	2	2	0.0765	0.2059	1	0	0.198	0	0	82
75	1	672	1	1	1	0.0765	0.2059	1	1	0.552	80	82	0
75	1	673	9	1	3	0.0765	0.2059	0	1	0.253	0	82	82
75	1	674	0	2	3	0.0765	0.2059	0	1	0.281	10	0	0
75	1	675	0	2	3	0.0765	0.2059	0	1	0.261	10	0	0
75	1	676	9	1	1	0.0765	0.2059	0	0	0.222	0	82	82
75	1	677	1	1	3	0.0765	0.2059	1	0	0.311	0	82	0
75	1	678	0	1	3	0.0765	0.2059	0	1	0.213	10	0	0
75	1	679	1	2	3	0.0765	0.2059	1	1	0.478	87	0	82
75	1	680	1	1	1	0.0765	0.2059	0	1	0.515	84	82	82
75	1	681	0	1	2	0.0765	0.2059	1	0	-0.117	0	0	82
75	1	682	0	1	2	0.0765	0.2059	1	0	0.503	0	0	82
75	1	683	0	2	2	0.0765	0.2059	0	1	0.246	10	0	0
75	1	684	0	1	3	0.0765	0.2059	0	1	0.411	9	0	0
75	1	685	1	2	3	0.0765	0.2059	0	1	0.351	100	82	82
75	1	686	0	2	2	0.0765	0.2059	0	1	0.228	10	0	0
75	1	687	0	1	3	0.0765	0.2059	1	1	0.501	8	0	82
75	1	688	9	1	3	0.0765	0.2059	0	1	0.228	0	0	0
75	1	689	9	1	3	0.0765	0.2059	0	1	0.394	0	82	82
75	1	690	1	2	3	0.0765	0.2059	1	1	0.431	92	0	82
75	1	691	0	1	1	0.0765	0.2059	0	1	0.225	10	0	0
75	1	692	0	1	1	0.0765	0.2059	1	1	-0.091	10	0	82
75	1	693	9	2	1	0.0765	0.2059	1	0	0.247	0	0	82
75	1	694	1	2	2	0.0765	0.2059	0	1	0.222	100	82	82
75	1	695	0	1	1	0.0765	0.2059	0	0	0.250	0	0	0
75	1	696	0	1	1	0.0765	0.2059	0	1	0.239	10	0	0
75	1	697	1	2	3	0.0765	0.2059	0	1	0.396	95	82	82
75	1	698	9	2	2	0.0765	0.2059	0	1	0.224	0	0	0
75	1	699	9	1	1	0.0765	0.2059	1	1	0.421	0	0	82
75	1	700	0	2	2	0.0765	0.2059	0	1	0.227	10	0	0
75	1	701	1	1	3	0.0765	0.2059	1	1	0.314	100	82	0
75	1	702	0	2	2	0.0765	0.2059	0	1	0.254	10	0	0
75	1	703	1	1	2	0.0765	0.2059	1	1	0.549	80	82	0
75	1	704	1	2	3	0.0765	0.2059	0	1	0.276	100	82	82
75	1	705	0	1	1	0.0765	0.2059	0	0	0.189	0	0	0
75	1	706	0	2	1	0.0765	0.2059	0	0	0.070	0	0	0
75	1	707	1	1	3	0.0765	0.2059	0	1	0.255	100	82	82
75	1	708	0	1	2	0.0765	0.2059	0	1	0.228	10	0	0
75	1	709	9	1	2	0.0765	0.2059	0	1	0.208	0	82	82
75	1	710	1	1	3	0.0765	0.2059	0	1	0.281	100	82	82
75	1	711	9	1	3	0.0765	0.2059	1	0	0.515	0	82	0
75	1	712	0	1	3	0.0765	0.2059	0	1	0.380	10	0	0
75	1	713	0	1	1	0.0765	0.2059	1	1	0.470	9	0	82
75	1	714	9	1	2	0.0765	0.2059	0	1	0.234	0	0	0
75	1	715	1	1	3	0.0765	0.2059	1	1	0.308	100	82	0
75	1	716	0	2	1	0.0765	0.2059	1	1	0.583	8	82	0
75	1	717	1	2	2	0.0765	0.2059	0	1	0.266	100	82	82
75	1	718	0	1	3	0.0765	0.2059	0	1	0.447	9	0	0
75	1	719	0	2	2	0.0765	0.2059	1	1	0.573	8	82	0
75	1	720	0	1	3	0.0765	0.2059	1	1	0.892	5	0	82
