sub	sess	t	rew	loc	cue	co1	co2	or	resp	rt	rew_tot	left_col	right_col
24	1	1	9	2	2	0.0500	0.0500	0	1	0.990	0	0	0
24	1	2	0	1	1	0.0500	0.0500	1	1	0.916	5	82	0
24	1	3	1	2	2	0.0500	0.0500	0	1	0.898	50	0	0
24	1	4	0	2	3	0.0500	0.0500	1	1	1.786	5	0	82
24	1	5	0	2	2	0.0500	0.0500	0	1	0.896	5	82	82
24	1	6	0	1	2	0.0500	0.0500	1	1	1.133	5	82	0
24	1	7	0	2	3	0.0500	0.0500	1	1	0.852	5	0	82
24	1	8	0	2	3	0.0500	0.0500	0	1	0.936	5	82	82
24	1	9	1	2	3	0.0500	0.0500	1	1	0.688	66	82	0
24	1	10	9	1	1	0.0500	0.0500	0	1	1.623	0	0	0
24	1	11	9	2	2	0.0500	0.0500	1	1	0.886	0	82	0
24	1	12	9	1	3	0.0500	0.0500	0	0	2.028	0	0	0
24	1	13	9	1	2	0.0500	0.0500	1	1	1.007	0	0	82
24	1	14	0	2	2	0.0500	0.0500	0	1	1.119	5	82	82
24	1	15	1	2	2	0.0500	0.0500	1	1	0.919	50	82	0
24	1	16	1	1	1	0.0500	0.0500	1	1	0.978	50	0	82
24	1	17	0	2	3	0.0500	0.0500	0	1	0.849	5	82	82
24	1	18	9	1	1	0.0500	0.0500	1	1	0.695	0	0	82
24	1	19	9	1	3	0.0500	0.0500	1	1	0.909	0	82	0
24	1	20	0	1	3	0.0500	0.0500	0	1	0.911	5	82	82
24	1	21	1	2	2	0.0500	0.0500	0	1	1.196	50	0	0
24	1	22	0	1	3	0.0500	0.0500	1	1	0.909	5	82	0
24	1	23	1	1	1	0.0500	0.0500	1	1	1.022	50	0	82
24	1	24	1	2	3	0.0500	0.0500	1	1	1.080	50	82	0
24	1	25	1	2	2	0.0500	0.0500	0	1	0.812	54	0	0
24	1	26	9	2	3	0.0500	0.0500	0	1	0.973	0	82	82
24	1	27	1	2	3	0.0500	0.0500	0	1	0.855	50	0	0
24	1	28	1	2	1	0.0500	0.0500	0	1	0.990	50	0	0
24	1	29	9	1	3	0.0500	0.0500	1	1	0.798	0	0	82
24	1	30	0	1	1	0.0500	0.0500	0	1	1.377	5	82	82
24	1	31	0	1	1	0.0500	0.0500	1	1	0.685	7	82	0
24	1	32	1	1	1	0.0500	0.0500	0	1	0.751	60	0	0
24	1	33	0	2	3	0.0500	0.0500	1	1	1.005	5	0	82
24	1	34	0	2	2	0.0500	0.0500	0	1	0.976	5	82	82
24	1	35	0	2	1	0.0500	0.0500	1	1	1.091	5	0	82
24	1	36	0	1	3	0.0500	0.0500	0	1	1.080	5	82	82
24	1	37	9	2	2	0.0500	0.0500	0	1	1.241	0	82	82
24	1	38	1	2	3	0.0500	0.0500	0	1	0.850	50	0	0
24	1	39	1	2	2	0.0500	0.0500	0	1	0.697	65	0	0
24	1	40	0	2	2	0.0500	0.0500	0	1	0.830	5	82	82
24	1	41	1	2	3	0.0500	0.0500	0	1	0.735	61	0	0
24	1	42	0	1	1	0.0500	0.0500	0	1	1.267	5	82	82
24	1	43	1	2	2	0.0500	0.0500	0	1	0.863	50	0	0
24	1	44	1	2	3	0.0500	0.0500	1	1	0.875	50	82	0
24	1	45	0	2	3	0.0500	0.0500	1	1	1.058	5	0	82
24	1	46	9	1	1	0.0500	0.0500	0	1	0.884	0	82	82
24	1	47	9	1	3	0.0500	0.0500	0	1	1.199	0	0	0
24	1	48	1	2	2	0.0500	0.0500	1	1	0.899	50	82	0
24	1	49	9	2	1	0.0500	0.0500	1	1	0.981	0	82	0
24	1	50	0	1	3	0.0500	0.0500	0	1	1.053	5	82	82
24	1	51	9	2	1	0.0500	0.0500	0	1	1.107	0	82	82
24	1	52	1	1	1	0.0500	0.0500	0	1	0.960	50	0	0
24	1	53	9	2	2	0.0500	0.0500	0	1	0.724	0	82	82
24	1	54	1	2	1	0.0500	0.0500	1	1	1.209	50	82	0
24	1	55	0	1	1	0.0500	0.0500	1	1	1.297	5	82	0
24	1	56	1	2	3	0.0500	0.0500	1	1	0.835	52	82	0
24	1	57	1	2	2	0.0500	0.0500	1	1	0.927	50	82	0
24	1	58	0	1	3	0.0500	0.0500	0	1	2.779	5	82	82
24	1	59	1	1	1	0.0500	0.0500	1	1	0.801	55	0	82
24	1	60	0	2	3	0.0500	0.0500	1	1	0.870	5	0	82
24	1	61	0	1	1	0.0500	0.0500	0	0	1.454	0	82	82
24	1	62	9	2	1	0.0500	0.0500	1	1	1.330	0	0	82
24	1	63	0	2	3	0.0500	0.0500	0	1	0.939	5	82	82
24	1	64	1	1	3	0.0500	0.0500	0	1	1.589	50	0	0
24	1	65	1	1	3	0.0500	0.0500	1	1	1.178	50	0	82
24	1	66	1	1	2	0.0500	0.0500	1	1	1.340	50	0	82
24	1	67	0	1	1	0.0500	0.0500	0	1	0.947	5	82	82
24	1	68	1	1	3	0.0500	0.0500	0	1	0.983	50	0	0
24	1	69	9	2	3	0.0500	0.0500	1	1	1.093	0	0	82
24	1	70	0	2	2	0.0500	0.0500	1	1	1.036	5	0	82
24	1	71	0	2	3	0.0500	0.0500	1	1	0.710	6	0	82
24	1	72	9	2	3	0.0500	0.0500	0	1	0.687	0	0	0
24	1	73	1	1	3	0.0500	0.0500	1	0	0.778	0	0	82
24	1	74	1	2	2	0.0500	0.0500	0	1	1.033	50	0	0
24	1	75	0	2	2	0.0500	0.0500	0	0	0.907	0	82	82
24	1	76	0	1	1	0.0500	0.0500	1	1	1.048	5	82	0
24	1	77	9	2	3	0.0500	0.0500	1	1	0.782	0	0	82
24	1	78	0	1	3	0.0500	0.0500	0	1	0.860	5	82	82
24	1	79	0	1	3	0.0500	0.0500	1	1	0.821	5	82	0
24	1	80	1	1	3	0.0500	0.0500	1	1	0.761	59	0	82
24	1	81	9	1	3	0.0500	0.0500	1	1	0.834	0	82	0
24	1	82	1	2	3	0.0500	0.0500	1	1	0.781	57	82	0
24	1	83	1	2	2	0.0500	0.0500	0	1	0.977	50	0	0
24	1	84	0	2	3	0.0500	0.0500	1	1	2.359	5	0	82
24	1	85	0	1	1	0.0500	0.0500	0	1	0.877	5	82	82
24	1	86	9	1	1	0.0500	0.0500	1	1	0.740	0	0	82
24	1	87	0	1	3	0.0500	0.0500	1	1	0.878	5	82	0
24	1	88	9	2	2	0.0500	0.0500	1	1	1.534	0	0	82
24	1	89	1	2	3	0.0500	0.0500	0	1	0.924	50	0	0
24	1	90	0	2	3	0.0500	0.0500	0	1	0.810	5	82	82
24	1	91	1	1	3	0.0500	0.0500	1	1	0.594	76	0	82
24	1	92	0	1	3	0.0500	0.0500	0	1	0.974	5	82	82
24	1	93	0	1	1	0.0500	0.0500	0	1	1.014	5	82	82
24	1	94	1	2	2	0.0500	0.0500	1	1	0.766	58	82	0
24	1	95	0	2	2	0.0500	0.0500	0	1	0.572	8	82	82
24	1	96	0	1	1	0.0500	0.0500	1	1	0.641	7	82	0
24	1	97	9	1	1	0.0500	0.0500	1	1	0.647	0	0	82
24	1	98	1	2	3	0.0500	0.0500	1	1	0.828	52	82	0
24	1	99	0	2	1	0.0500	0.0500	1	1	2.076	5	0	82
24	1	100	9	2	1	0.0500	0.0500	0	1	1.012	0	0	0
24	1	101	1	1	1	0.0500	0.0500	0	1	1.647	50	0	0
24	1	102	1	2	3	0.0500	0.0500	0	1	1.218	50	0	0
24	1	103	0	1	2	0.0500	0.0500	0	1	1.477	5	82	82
24	1	104	9	1	1	0.0500	0.0500	0	1	0.918	0	0	0
24	1	105	9	1	1	0.0500	0.0500	0	1	0.597	0	82	82
24	1	106	0	2	3	0.0500	0.0500	0	1	1.424	5	82	82
24	1	107	0	2	3	0.0500	0.0500	1	0	1.058	0	0	82
24	1	108	9	2	2	0.0500	0.0500	0	1	0.794	0	0	0
24	1	109	1	2	2	0.0500	0.0500	0	1	0.547	80	0	0
24	1	110	1	1	1	0.0500	0.0500	0	1	0.891	50	0	0
24	1	111	0	2	1	0.0500	0.0500	0	0	1.656	0	82	82
24	1	112	9	1	1	0.0500	0.0500	1	1	0.884	0	0	82
24	1	113	0	1	1	0.0500	0.0500	1	1	0.597	8	82	0
24	1	114	9	1	3	0.0500	0.0500	1	1	0.705	0	0	82
24	1	115	0	1	2	0.0500	0.0500	1	1	1.016	5	82	0
24	1	116	1	1	3	0.0500	0.0500	0	1	0.985	50	0	0
24	1	117	1	1	3	0.0500	0.0500	0	1	0.890	50	0	0
24	1	118	1	1	1	0.0500	0.0500	0	0	1.578	0	0	0
24	1	119	1	2	1	0.0500	0.0500	1	1	1.682	50	82	0
24	1	120	1	1	3	0.0500	0.0500	1	1	0.697	65	0	82
24	1	121	1	2	3	0.0500	0.0500	0	1	1.377	50	0	0
24	1	122	0	1	1	0.0500	0.0500	0	1	1.341	5	82	82
24	1	123	0	2	3	0.0500	0.0500	1	1	0.920	5	0	82
24	1	124	1	2	3	0.0500	0.0500	0	1	0.750	60	0	0
24	1	125	1	2	1	0.0500	0.0500	1	1	1.104	50	82	0
24	1	126	1	1	1	0.0500	0.0500	0	1	0.733	62	0	0
24	1	127	1	1	1	0.0500	0.0500	0	1	1.284	50	0	0
24	1	128	0	1	1	0.0500	0.0500	0	1	0.713	6	82	82
24	1	129	0	2	1	0.0500	0.0500	1	1	1.090	5	0	82
24	1	130	0	1	1	0.0500	0.0500	0	1	0.758	6	82	82
24	1	131	0	1	3	0.0500	0.0500	1	1	1.421	5	82	0
24	1	132	1	1	3	0.0500	0.0500	1	1	0.722	63	0	82
24	1	133	1	1	3	0.0500	0.0500	1	1	0.625	72	0	82
24	1	134	0	1	1	0.0500	0.0500	1	1	0.432	9	82	0
24	1	135	1	1	2	0.0500	0.0500	1	1	0.708	64	0	82
24	1	136	9	2	3	0.0500	0.0500	1	1	0.566	0	0	82
24	1	137	1	2	3	0.0500	0.0500	0	1	0.925	50	0	0
24	1	138	1	1	3	0.0500	0.0500	0	1	0.772	58	0	0
24	1	139	0	2	2	0.0500	0.0500	0	1	0.728	6	82	82
24	1	140	0	2	3	0.0500	0.0500	0	1	0.603	7	82	82
24	1	141	0	2	3	0.0500	0.0500	0	1	0.787	6	82	82
24	1	142	0	1	1	0.0500	0.0500	1	1	0.618	7	82	0
24	1	143	1	1	1	0.0500	0.0500	1	1	0.662	69	0	82
24	1	144	0	1	3	0.0500	0.0500	1	1	0.768	6	82	0
24	1	145	0	2	1	0.0500	0.0500	1	0	0.909	0	0	82
24	1	146	0	2	3	0.0500	0.0500	0	1	0.692	7	82	82
24	1	147	9	1	1	0.0500	0.0500	0	1	0.694	0	82	82
24	1	148	0	1	3	0.0500	0.0500	1	1	0.701	6	82	0
24	1	149	1	2	2	0.0500	0.0500	0	1	0.602	75	0	0
24	1	150	9	2	3	0.0500	0.0500	0	1	0.682	0	0	0
24	1	151	1	1	2	0.0500	0.0500	0	1	1.640	50	0	0
24	1	152	1	1	3	0.0500	0.0500	0	1	1.923	50	0	0
24	1	153	1	2	3	0.0500	0.0500	1	1	0.867	50	82	0
24	1	154	1	1	1	0.0500	0.0500	0	1	0.803	55	0	0
24	1	155	1	2	2	0.0500	0.0500	1	1	0.918	50	82	0
24	1	156	0	2	2	0.0500	0.0500	0	1	0.729	6	82	82
24	1	157	9	2	3	0.0500	0.0500	1	1	0.999	0	82	0
24	1	158	9	2	2	0.0500	0.0500	0	1	0.668	0	82	82
24	1	159	1	2	2	0.0500	0.0500	0	1	0.934	50	0	0
24	1	160	1	2	2	0.0500	0.0500	0	1	0.697	65	0	0
24	1	161	0	2	2	0.0500	0.0500	1	1	0.773	6	0	82
24	1	162	9	2	3	0.0500	0.0500	0	1	0.621	0	82	82
24	1	163	9	2	2	0.0500	0.0500	1	1	0.771	0	0	82
24	1	164	9	1	3	0.0500	0.0500	1	1	0.782	0	82	0
24	1	165	0	2	3	0.0500	0.0500	1	1	0.731	6	0	82
24	1	166	0	1	1	0.0500	0.0500	1	1	0.569	8	82	0
24	1	167	0	2	2	0.0500	0.0500	0	0	0.780	0	82	82
24	1	168	0	1	3	0.0500	0.0500	1	0	1.281	0	82	0
24	1	169	9	1	1	0.0500	0.0500	1	1	0.701	0	82	0
24	1	170	1	2	2	0.0500	0.0500	1	1	0.861	50	82	0
24	1	171	9	1	3	0.0500	0.0500	1	1	0.648	0	0	82
24	1	172	9	2	3	0.0500	0.0500	1	1	0.722	0	0	82
24	1	173	9	2	2	0.0500	0.0500	1	1	0.502	0	0	82
24	1	174	1	1	3	0.0500	0.0500	1	1	0.547	80	0	82
24	1	175	1	2	3	0.0500	0.0500	1	1	0.613	74	82	0
24	1	176	0	1	3	0.0500	0.0500	0	1	0.744	6	82	82
24	1	177	1	2	1	0.0500	0.0500	0	1	1.020	50	0	0
24	1	178	0	1	3	0.0500	0.0500	0	1	0.782	6	82	82
24	1	179	9	2	2	0.0500	0.0500	1	1	0.607	0	0	82
24	1	180	0	2	2	0.0500	0.0500	1	1	0.631	7	0	82
24	1	181	0	1	3	0.0500	0.0500	0	1	0.800	6	82	82
24	1	182	1	2	3	0.0500	0.0500	0	1	0.746	60	0	0
24	1	183	1	2	2	0.0500	0.0500	1	1	0.578	77	82	0
24	1	184	1	2	3	0.0500	0.0500	1	0	0.940	0	82	0
24	1	185	9	1	1	0.0500	0.0500	1	1	0.487	0	82	0
24	1	186	0	1	3	0.0500	0.0500	0	1	0.730	6	82	82
24	1	187	1	1	3	0.0500	0.0500	0	1	1.215	50	0	0
24	1	188	1	1	3	0.0500	0.0500	1	1	0.622	73	0	82
24	1	189	1	1	2	0.0500	0.0500	0	1	1.466	50	0	0
24	1	190	9	2	2	0.0500	0.0500	1	1	0.823	0	82	0
24	1	191	9	1	1	0.0500	0.0500	1	1	0.558	0	82	0
24	1	192	9	1	2	0.0500	0.0500	1	1	0.724	0	82	0
24	1	193	0	2	1	0.0500	0.0500	0	1	0.663	7	82	82
24	1	194	0	2	2	0.0500	0.0500	1	1	0.788	6	0	82
24	1	195	9	1	1	0.0500	0.0500	0	1	0.762	0	82	82
24	1	196	1	1	1	0.0500	0.0500	1	1	0.720	63	0	82
24	1	197	1	1	3	0.0500	0.0500	1	1	0.782	57	0	82
24	1	198	1	1	1	0.0500	0.0500	0	1	2.847	50	0	0
24	1	199	1	2	2	0.0500	0.0500	0	1	0.883	50	0	0
24	1	200	9	1	3	0.0500	0.0500	0	1	0.716	0	0	0
24	1	201	1	1	1	0.0500	0.0500	0	1	0.705	65	0	0
24	1	202	1	1	3	0.0500	0.0500	0	1	0.706	64	0	0
24	1	203	9	2	2	0.0500	0.0500	0	1	0.770	0	82	82
24	1	204	9	1	1	0.0500	0.0500	1	0	1.019	0	82	0
24	1	205	0	2	2	0.0500	0.0500	1	1	0.839	5	0	82
24	1	206	0	2	2	0.0500	0.0500	1	1	0.770	6	0	82
24	1	207	0	1	3	0.0500	0.0500	0	1	1.560	5	82	82
24	1	208	0	1	1	0.0500	0.0500	1	1	0.539	8	82	0
24	1	209	0	2	2	0.0500	0.0500	1	1	2.004	5	0	82
24	1	210	0	1	1	0.0500	0.0500	0	1	2.838	5	82	82
24	1	211	9	1	2	0.0500	0.0500	0	1	0.934	0	82	82
24	1	212	0	2	1	0.0500	0.0500	0	1	1.132	5	82	82
24	1	213	1	2	3	0.0500	0.0500	0	1	0.737	61	0	0
24	1	214	1	1	3	0.0500	0.0500	0	1	1.194	50	0	0
24	1	215	0	2	3	0.0500	0.0500	1	1	1.017	5	0	82
24	1	216	1	2	3	0.0500	0.0500	0	1	1.240	50	0	0
24	1	217	0	1	1	0.0500	0.0500	0	1	1.050	5	82	82
24	1	218	9	2	3	0.0500	0.0500	0	1	0.683	0	82	82
24	1	219	0	2	2	0.0500	0.0500	1	1	1.100	5	0	82
24	1	220	0	1	1	0.0500	0.0500	1	1	0.558	8	82	0
24	1	221	1	2	2	0.0500	0.0500	1	1	0.710	64	82	0
24	1	222	0	2	3	0.0500	0.0500	0	1	1.946	5	82	82
24	1	223	9	1	3	0.0500	0.0500	1	1	1.076	0	0	82
24	1	224	1	1	3	0.0500	0.0500	1	1	1.548	50	0	82
24	1	225	1	1	1	0.0500	0.0500	1	0	1.343	0	0	82
24	1	226	0	2	2	0.0500	0.0500	1	1	0.705	6	0	82
24	1	227	1	1	3	0.0500	0.0500	1	1	0.724	63	0	82
24	1	228	1	2	3	0.0500	0.0500	1	1	0.498	85	82	0
24	1	229	1	2	3	0.0500	0.0500	1	1	0.556	79	82	0
24	1	230	0	1	3	0.0500	0.0500	0	1	0.523	8	82	82
24	1	231	0	2	3	0.0500	0.0500	0	0	0.854	0	82	82
24	1	232	1	2	2	0.0500	0.0500	1	1	0.712	64	82	0
24	1	233	1	2	2	0.0500	0.0500	1	1	0.700	65	82	0
24	1	234	1	2	2	0.0500	0.0500	0	1	0.704	65	0	0
24	1	235	0	1	3	0.0500	0.0500	1	0	0.708	0	82	0
24	1	236	1	1	1	0.0500	0.0500	1	1	0.513	84	0	82
24	1	237	0	2	3	0.0500	0.0500	0	1	0.760	6	82	82
24	1	238	1	2	1	0.0500	0.0500	0	1	0.891	50	0	0
24	1	239	1	2	3	0.0500	0.0500	1	0	0.711	0	82	0
24	1	240	1	2	2	0.0500	0.0500	0	1	1.088	50	0	0
24	1	241	1	1	2	0.0500	0.0500	0	0	0.716	0	0	0
24	1	242	1	1	1	0.0500	0.0500	0	1	0.630	72	0	0
24	1	243	1	2	3	0.0500	0.0500	1	1	0.877	50	82	0
24	1	244	1	2	3	0.0500	0.0500	0	0	0.814	0	0	0
24	1	245	1	1	3	0.0500	0.0500	0	1	0.772	58	0	0
24	1	246	0	2	3	0.0500	0.0500	0	1	0.592	8	82	82
24	1	247	1	1	2	0.0500	0.0500	0	1	0.893	50	0	0
24	1	248	1	2	3	0.0500	0.0500	0	0	0.577	0	0	0
24	1	249	9	1	3	0.0500	0.0500	0	1	1.098	0	82	82
24	1	250	1	1	1	0.0500	0.0500	0	1	0.768	58	0	0
24	1	251	9	2	2	0.0500	0.0500	0	1	0.727	0	0	0
24	1	252	1	1	3	0.0500	0.0500	1	1	0.856	50	0	82
24	1	253	9	1	2	0.0500	0.0500	0	1	1.078	0	0	0
24	1	254	9	1	3	0.0500	0.0500	0	1	1.009	0	82	82
24	1	255	1	1	3	0.0500	0.0500	1	0	0.862	0	0	82
24	1	256	9	1	1	0.0500	0.0500	0	1	1.121	0	0	0
24	1	257	0	1	3	0.0500	0.0500	1	1	0.895	5	82	0
24	1	258	1	1	1	0.0500	0.0500	1	1	0.532	82	0	82
24	1	259	0	2	3	0.0500	0.0500	0	1	0.559	8	82	82
24	1	260	1	2	3	0.0500	0.0500	0	1	0.587	76	0	0
24	1	261	9	1	3	0.0500	0.0500	0	0	2.158	0	82	82
24	1	262	0	1	1	0.0500	0.0500	1	0	0.713	0	82	0
24	1	263	9	1	1	0.0500	0.0500	0	1	1.553	0	0	0
24	1	264	1	2	2	0.0500	0.0500	1	1	0.673	68	82	0
24	1	265	0	1	2	0.0500	0.0500	0	1	0.965	5	82	82
24	1	266	0	2	2	0.0500	0.0500	0	0	0.544	0	82	82
24	1	267	0	1	3	0.0500	0.0500	0	1	0.737	6	82	82
24	1	268	1	2	2	0.0500	0.0500	1	1	0.642	71	82	0
24	1	269	1	1	1	0.0500	0.0500	1	0	0.810	0	0	82
24	1	270	0	1	1	0.0500	0.0500	1	1	0.522	8	82	0
24	1	271	1	1	3	0.0500	0.0500	0	1	0.753	60	0	0
24	1	272	0	1	1	0.0500	0.0500	0	1	0.717	6	82	82
24	1	273	1	2	3	0.0500	0.0500	1	0	0.890	0	82	0
24	1	274	1	1	1	0.0500	0.0500	1	0	0.658	0	0	82
24	1	275	0	2	2	0.0500	0.0500	0	1	0.582	8	82	82
24	1	276	0	2	2	0.0500	0.0500	1	1	1.958	5	0	82
24	1	277	1	1	3	0.0500	0.0500	0	1	0.778	57	0	0
24	1	278	0	1	1	0.0500	0.0500	0	1	0.559	8	82	82
24	1	279	1	1	1	0.0500	0.0500	1	1	0.628	72	0	82
24	1	280	0	2	2	0.0500	0.0500	0	1	0.649	7	82	82
24	1	281	0	2	3	0.0500	0.0500	1	1	0.716	6	0	82
24	1	282	0	1	3	0.0500	0.0500	0	1	0.660	7	82	82
24	1	283	0	2	3	0.0500	0.0500	0	1	0.739	6	82	82
24	1	284	1	1	1	0.0500	0.0500	1	1	0.553	80	0	82
24	1	285	1	2	3	0.0500	0.0500	0	1	0.740	61	0	0
24	1	286	0	2	3	0.0500	0.0500	1	1	0.718	6	0	82
24	1	287	0	1	1	0.0500	0.0500	0	1	0.567	8	82	82
24	1	288	0	1	1	0.0500	0.0500	1	1	0.430	9	82	0
24	1	289	1	1	3	0.0500	0.0500	1	1	0.580	77	0	82
24	1	290	1	1	3	0.0500	0.0500	0	0	2.119	0	0	0
24	1	291	0	2	3	0.0500	0.0500	0	1	0.776	6	82	82
24	1	292	1	2	2	0.0500	0.0500	1	0	0.801	0	82	0
24	1	293	0	1	3	0.0500	0.0500	0	1	0.936	5	82	82
24	1	294	9	2	3	0.0500	0.0500	1	1	0.545	0	82	0
24	1	295	0	2	2	0.0500	0.0500	1	0	0.509	0	0	82
24	1	296	0	1	1	0.0500	0.0500	1	1	0.624	7	82	0
24	1	297	0	2	2	0.0500	0.0500	1	0	0.854	0	0	82
24	1	298	0	1	3	0.0500	0.0500	1	1	0.588	8	82	0
24	1	299	1	1	1	0.0500	0.0500	1	1	0.762	59	0	82
24	1	300	0	1	2	0.0500	0.0500	1	1	0.723	6	82	0
24	1	301	0	1	3	0.0500	0.0500	1	0	2.132	0	82	0
24	1	302	0	1	1	0.0500	0.0500	0	1	0.824	5	82	82
24	1	303	0	1	3	0.0500	0.0500	1	1	0.644	7	82	0
24	1	304	1	2	3	0.0500	0.0500	1	0	1.066	0	82	0
24	1	305	1	2	2	0.0500	0.0500	0	1	0.621	73	0	0
24	1	306	1	1	3	0.0500	0.0500	0	1	0.946	50	0	0
24	1	307	0	1	2	0.0500	0.0500	0	1	0.770	6	82	82
24	1	308	0	1	1	0.0500	0.0500	1	1	0.665	7	82	0
24	1	309	1	2	3	0.0500	0.0500	0	1	0.664	69	0	0
24	1	310	0	2	2	0.0500	0.0500	0	1	0.629	7	82	82
24	1	311	9	2	3	0.0500	0.0500	1	1	0.645	0	82	0
24	1	312	1	1	3	0.0500	0.0500	0	1	1.009	50	0	0
24	1	313	0	2	2	0.0500	0.0500	0	1	1.022	5	82	82
24	1	314	1	2	2	0.0500	0.0500	1	1	0.583	77	82	0
24	1	315	1	2	2	0.0500	0.0500	0	0	0.598	0	0	0
24	1	316	1	1	2	0.0500	0.0500	1	0	2.408	0	0	82
24	1	317	0	2	3	0.0500	0.0500	1	1	0.752	6	0	82
24	1	318	0	2	2	0.0500	0.0500	0	0	0.668	0	82	82
24	1	319	9	2	3	0.0500	0.0500	0	0	1.270	0	82	82
24	1	320	9	2	2	0.0500	0.0500	0	1	0.795	0	0	0
24	1	321	0	2	3	0.0500	0.0500	0	1	0.863	5	82	82
24	1	322	0	1	3	0.0500	0.0500	1	1	0.783	6	82	0
24	1	323	0	2	2	0.0500	0.0500	1	1	0.635	7	0	82
24	1	324	1	1	1	0.0500	0.0500	0	1	0.657	69	0	0
24	1	325	0	1	3	0.0500	0.0500	1	0	0.886	0	82	0
24	1	326	0	1	3	0.0500	0.0500	1	1	0.920	5	82	0
24	1	327	9	1	3	0.0500	0.0500	1	1	0.673	0	82	0
24	1	328	0	1	3	0.0500	0.0500	1	1	0.781	6	82	0
24	1	329	1	1	3	0.0500	0.0500	1	1	0.614	74	0	82
24	1	330	9	1	3	0.0500	0.0500	0	1	0.805	0	0	0
24	1	331	0	2	2	0.0500	0.0500	1	1	0.673	7	0	82
24	1	332	1	1	1	0.0500	0.0500	1	1	0.625	72	0	82
24	1	333	1	1	1	0.0500	0.0500	0	1	0.913	50	0	0
24	1	334	0	1	2	0.0500	0.0500	1	1	1.008	5	82	0
24	1	335	1	1	1	0.0500	0.0500	0	1	1.242	50	0	0
24	1	336	0	1	3	0.0500	0.0500	0	1	1.255	5	82	82
24	1	337	9	2	3	0.0500	0.0500	1	1	1.686	0	82	0
24	1	338	9	1	3	0.0500	0.0500	0	0	0.755	0	82	82
24	1	339	0	2	3	0.0500	0.0500	1	1	0.670	7	0	82
24	1	340	1	1	1	0.0500	0.0500	0	1	1.050	50	0	0
24	1	341	1	2	2	0.0500	0.0500	1	1	0.593	76	82	0
24	1	342	0	1	1	0.0500	0.0500	0	1	0.762	6	82	82
24	1	343	1	1	3	0.0500	0.0500	0	1	0.715	64	0	0
24	1	344	1	1	2	0.0500	0.0500	1	1	0.783	57	0	82
24	1	345	1	1	1	0.0500	0.0500	1	1	0.452	90	0	82
24	1	346	0	1	2	0.0500	0.0500	0	1	0.727	6	82	82
24	1	347	0	2	2	0.0500	0.0500	1	1	1.020	5	0	82
24	1	348	9	2	3	0.0500	0.0500	0	1	0.790	0	0	0
24	1	349	0	2	2	0.0500	0.0500	0	1	0.691	7	82	82
24	1	350	1	2	1	0.0500	0.0500	0	1	0.774	58	0	0
24	1	351	0	2	3	0.0500	0.0500	1	1	0.715	6	0	82
24	1	352	9	2	2	0.0500	0.0500	1	1	0.492	0	82	0
24	1	353	0	2	2	0.0500	0.0500	1	1	0.789	6	0	82
24	1	354	1	2	3	0.0500	0.0500	1	1	0.766	58	82	0
24	1	355	1	1	1	0.0500	0.0500	1	1	0.642	71	0	82
24	1	356	9	2	3	0.0500	0.0500	0	1	0.829	0	0	0
24	1	357	1	2	2	0.0500	0.0500	1	1	0.624	73	82	0
24	1	358	9	2	2	0.0500	0.0500	1	1	0.531	0	82	0
24	1	359	0	2	1	0.0500	0.0500	0	1	0.882	5	82	82
24	1	360	1	2	1	0.0500	0.0500	1	1	0.763	59	82	0
24	1	361	0	2	3	0.0500	0.0500	1	1	0.568	8	0	82
24	1	362	0	1	3	0.0500	0.0500	1	1	0.710	6	82	0
24	1	363	1	2	3	0.0500	0.0500	1	1	0.561	79	82	0
24	1	364	9	1	1	0.0500	0.0500	1	1	0.420	0	0	82
24	1	365	0	1	3	0.0500	0.0500	1	1	0.691	7	82	0
24	1	366	1	1	3	0.0500	0.0500	0	1	0.673	68	0	0
24	1	367	9	1	1	0.0500	0.0500	0	1	0.689	0	82	82
24	1	368	1	2	3	0.0500	0.0500	1	1	0.582	77	82	0
24	1	369	1	1	1	0.0500	0.0500	1	1	0.431	92	0	82
24	1	370	0	2	2	0.0500	0.0500	1	1	0.622	7	0	82
24	1	371	1	2	2	0.0500	0.0500	1	1	1.061	50	82	0
24	1	372	9	2	2	0.0500	0.0500	0	1	0.648	0	82	82
24	1	373	1	1	3	0.0500	0.0500	0	0	0.673	0	0	0
24	1	374	1	2	2	0.0500	0.0500	0	1	0.809	54	0	0
24	1	375	9	1	3	0.0500	0.0500	1	1	0.739	0	0	82
24	1	376	0	1	1	0.0500	0.0500	1	1	0.449	9	82	0
24	1	377	9	2	3	0.0500	0.0500	1	1	0.656	0	82	0
24	1	378	0	2	3	0.0500	0.0500	0	1	0.652	7	82	82
24	1	379	9	1	1	0.0500	0.0500	1	0	0.764	0	82	0
24	1	380	9	2	3	0.0500	0.0500	1	0	0.711	0	82	0
24	1	381	9	1	3	0.0500	0.0500	0	1	0.662	0	0	0
24	1	382	9	2	2	0.0500	0.0500	1	1	0.607	0	0	82
24	1	383	0	2	3	0.0500	0.0500	1	1	0.529	8	0	82
24	1	384	9	1	1	0.0500	0.0500	1	1	0.751	0	0	82
24	1	385	1	2	2	0.0500	0.0500	1	1	0.603	75	82	0
24	1	386	9	2	3	0.0500	0.0500	1	1	0.592	0	0	82
24	1	387	9	2	2	0.0500	0.0500	1	0	0.828	0	82	0
24	1	388	1	1	2	0.0500	0.0500	0	0	2.027	0	0	0
24	1	389	1	2	3	0.0500	0.0500	1	1	0.644	71	82	0
24	1	390	1	2	2	0.0500	0.0500	0	1	0.717	63	0	0
24	1	391	1	1	1	0.0500	0.0500	1	1	1.011	50	0	82
24	1	392	0	2	2	0.0500	0.0500	0	1	0.513	8	82	82
24	1	393	9	2	2	0.0500	0.0500	1	1	0.618	0	0	82
24	1	394	9	2	3	0.0500	0.0500	0	1	0.777	0	82	82
24	1	395	1	1	3	0.0500	0.0500	0	1	0.849	50	0	0
24	1	396	0	1	3	0.0500	0.0500	0	1	0.601	7	82	82
24	1	397	1	1	1	0.0500	0.0500	0	1	0.638	71	0	0
24	1	398	1	1	3	0.0500	0.0500	0	1	0.578	77	0	0
24	1	399	0	1	3	0.0500	0.0500	0	1	0.675	7	82	82
24	1	400	1	2	3	0.0500	0.0500	0	1	1.265	50	0	0
24	1	401	0	2	2	0.0500	0.0500	1	1	0.610	7	0	82
24	1	402	1	1	3	0.0500	0.0500	1	1	1.791	50	0	82
24	1	403	0	2	3	0.0500	0.0500	1	1	0.644	7	0	82
24	1	404	9	2	3	0.0500	0.0500	0	1	0.656	0	0	0
24	1	405	1	1	1	0.0500	0.0500	0	0	0.886	0	0	0
24	1	406	1	1	1	0.0500	0.0500	1	0	0.753	0	0	82
24	1	407	1	2	3	0.0500	0.0500	0	1	0.568	78	0	0
24	1	408	9	2	2	0.0500	0.0500	1	1	0.600	0	0	82
24	1	409	1	1	1	0.0500	0.0500	0	1	0.649	70	0	0
24	1	410	9	1	1	0.0500	0.0500	0	1	0.661	0	0	0
24	1	411	0	1	3	0.0500	0.0500	0	1	0.807	5	82	82
24	1	412	1	2	2	0.0500	0.0500	0	1	0.776	57	0	0
24	1	413	0	1	3	0.0500	0.0500	1	0	1.093	0	82	0
24	1	414	9	2	2	0.0500	0.0500	0	0	0.734	0	82	82
24	1	415	0	1	1	0.0500	0.0500	0	1	0.640	7	82	82
24	1	416	9	1	2	0.0500	0.0500	1	0	0.747	0	0	82
24	1	417	0	2	1	0.0500	0.0500	1	1	0.816	5	0	82
24	1	418	0	2	3	0.0500	0.0500	1	1	0.573	8	0	82
24	1	419	1	1	1	0.0500	0.0500	1	1	2.797	50	0	82
24	1	420	0	2	3	0.0500	0.0500	0	1	0.685	7	82	82
24	1	421	1	2	3	0.0500	0.0500	0	1	0.667	68	0	0
24	1	422	1	2	2	0.0500	0.0500	1	0	0.876	0	82	0
24	1	423	9	1	3	0.0500	0.0500	0	1	0.679	0	82	82
24	1	424	9	1	3	0.0500	0.0500	1	0	0.953	0	82	0
24	1	425	0	1	2	0.0500	0.0500	0	1	0.748	6	82	82
24	1	426	1	1	1	0.0500	0.0500	0	1	0.606	74	0	0
24	1	427	1	1	1	0.0500	0.0500	0	1	0.513	84	0	0
24	1	428	1	2	3	0.0500	0.0500	0	1	0.679	67	0	0
24	1	429	1	2	3	0.0500	0.0500	0	1	0.732	62	0	0
24	1	430	1	2	3	0.0500	0.0500	0	1	0.580	77	0	0
24	1	431	9	2	3	0.0500	0.0500	0	1	0.533	0	82	82
24	1	432	1	1	3	0.0500	0.0500	1	0	0.810	0	0	82
24	1	433	9	1	3	0.0500	0.0500	0	1	0.976	0	0	0
24	1	434	0	1	3	0.0500	0.0500	1	1	1.293	5	82	0
24	1	435	9	2	3	0.0500	0.0500	0	0	1.173	0	82	82
24	1	436	1	2	2	0.0500	0.0500	0	1	0.826	52	0	0
24	1	437	1	2	2	0.0500	0.0500	1	1	0.623	73	82	0
24	1	438	0	2	3	0.0500	0.0500	1	1	0.574	8	0	82
24	1	439	1	2	2	0.0500	0.0500	1	1	0.678	67	82	0
24	1	440	0	2	3	0.0500	0.0500	1	1	0.565	8	0	82
24	1	441	0	1	1	0.0500	0.0500	0	1	0.605	7	82	82
24	1	442	1	2	2	0.0500	0.0500	1	1	0.643	71	82	0
24	1	443	0	1	3	0.0500	0.0500	0	1	0.823	5	82	82
24	1	444	9	1	1	0.0500	0.0500	0	1	0.718	0	82	82
24	1	445	9	1	1	0.0500	0.0500	1	1	0.689	0	82	0
24	1	446	9	1	1	0.0500	0.0500	1	1	0.576	0	0	82
24	1	447	1	2	3	0.0500	0.0500	0	1	1.740	50	0	0
24	1	448	0	1	1	0.0500	0.0500	0	1	0.911	5	82	82
24	1	449	1	1	3	0.0500	0.0500	1	1	0.800	55	0	82
24	1	450	0	1	3	0.0500	0.0500	1	1	0.682	7	82	0
24	1	451	1	2	3	0.0500	0.0500	1	1	0.579	77	82	0
24	1	452	1	1	1	0.0500	0.0500	0	1	0.596	75	0	0
24	1	453	9	1	3	0.0500	0.0500	1	0	0.685	0	0	82
24	1	454	1	1	1	0.0500	0.0500	0	1	0.486	86	0	0
24	1	455	1	2	3	0.0500	0.0500	0	1	1.121	50	0	0
24	1	456	0	2	2	0.0500	0.0500	0	1	1.001	5	82	82
24	1	457	9	2	1	0.0500	0.0500	0	1	0.729	0	0	0
24	1	458	0	2	2	0.0500	0.0500	0	1	0.609	7	82	82
24	1	459	1	1	3	0.0500	0.0500	0	1	0.954	50	0	0
24	1	460	9	1	1	0.0500	0.0500	0	1	0.634	0	0	0
24	1	461	1	1	1	0.0500	0.0500	1	1	1.032	50	0	82
24	1	462	0	2	2	0.0500	0.0500	0	1	0.746	6	82	82
24	1	463	0	2	2	0.0500	0.0500	0	1	0.564	8	82	82
24	1	464	0	2	3	0.0500	0.0500	0	1	0.584	8	82	82
24	1	465	0	2	2	0.0500	0.0500	1	1	0.592	8	0	82
24	1	466	0	1	1	0.0500	0.0500	0	1	0.576	8	82	82
24	1	467	0	1	1	0.0500	0.0500	1	1	0.545	8	82	0
24	1	468	1	1	3	0.0500	0.0500	1	1	0.914	50	0	82
24	1	469	1	2	3	0.0500	0.0500	0	1	0.759	59	0	0
24	1	470	1	2	3	0.0500	0.0500	1	0	0.652	0	82	0
24	1	471	0	2	2	0.0500	0.0500	0	1	0.498	9	82	82
24	1	472	0	1	3	0.0500	0.0500	0	1	0.854	5	82	82
24	1	473	0	1	3	0.0500	0.0500	0	1	0.584	8	82	82
24	1	474	1	1	1	0.0500	0.0500	1	1	0.466	88	0	82
24	1	475	1	2	3	0.0500	0.0500	1	1	1.146	50	82	0
24	1	476	0	2	2	0.0500	0.0500	0	1	1.281	5	82	82
24	1	477	1	2	1	0.0500	0.0500	0	1	0.860	50	0	0
24	1	478	1	1	3	0.0500	0.0500	0	1	0.675	68	0	0
24	1	479	0	2	2	0.0500	0.0500	1	1	0.592	8	0	82
24	1	480	1	2	3	0.0500	0.0500	1	1	0.503	85	82	0
24	1	481	1	1	1	0.0500	0.0500	1	1	0.514	84	0	82
24	1	482	1	1	3	0.0500	0.0500	0	1	0.692	66	0	0
24	1	483	9	2	2	0.0500	0.0500	0	1	0.828	0	0	0
24	1	484	1	2	1	0.0500	0.0500	1	1	0.861	50	82	0
24	1	485	1	1	3	0.0500	0.0500	1	1	0.668	68	0	82
24	1	486	0	1	1	0.0500	0.0500	1	1	0.411	9	82	0
24	1	487	9	2	3	0.0500	0.0500	0	1	1.474	0	82	82
24	1	488	9	2	3	0.0500	0.0500	1	1	0.592	0	82	0
24	1	489	0	1	3	0.0500	0.0500	0	1	0.968	5	82	82
24	1	490	0	1	3	0.0500	0.0500	1	1	0.614	7	82	0
24	1	491	1	1	3	0.0500	0.0500	1	0	0.923	0	0	82
24	1	492	1	2	2	0.0500	0.0500	0	1	0.683	67	0	0
24	1	493	9	1	2	0.0500	0.0500	1	1	0.794	0	82	0
24	1	494	1	2	3	0.0500	0.0500	0	1	0.578	77	0	0
24	1	495	0	1	3	0.0500	0.0500	0	1	0.669	7	82	82
24	1	496	0	2	3	0.0500	0.0500	1	1	0.948	5	0	82
24	1	497	1	2	2	0.0500	0.0500	1	1	0.598	75	82	0
24	1	498	1	1	3	0.0500	0.0500	1	0	0.722	0	0	82
24	1	499	1	2	2	0.0500	0.0500	1	1	0.927	50	82	0
24	1	500	1	2	3	0.0500	0.0500	1	1	0.506	84	82	0
24	1	501	0	1	1	0.0500	0.0500	1	1	0.494	9	82	0
24	1	502	0	2	2	0.0500	0.0500	1	1	0.511	8	0	82
24	1	503	9	1	3	0.0500	0.0500	0	1	0.600	0	82	82
24	1	504	1	1	3	0.0500	0.0500	1	1	0.636	71	0	82
24	1	505	9	2	2	0.0500	0.0500	1	1	0.576	0	82	0
24	1	506	1	2	3	0.0500	0.0500	0	0	0.747	0	0	0
24	1	507	1	1	1	0.0500	0.0500	0	1	0.668	68	0	0
24	1	508	0	2	3	0.0500	0.0500	1	1	0.935	5	0	82
24	1	509	0	2	3	0.0500	0.0500	1	1	0.470	9	0	82
24	1	510	9	1	1	0.0500	0.0500	0	1	0.642	0	0	0
24	1	511	0	2	2	0.0500	0.0500	0	1	0.602	7	82	82
24	1	512	0	1	2	0.0500	0.0500	0	1	0.663	7	82	82
24	1	513	0	2	2	0.0500	0.0500	1	1	0.539	8	0	82
24	1	514	1	2	1	0.0500	0.0500	1	1	0.597	75	82	0
24	1	515	0	1	3	0.0500	0.0500	1	1	0.570	8	82	0
24	1	516	1	1	3	0.0500	0.0500	0	1	1.068	50	0	0
24	1	517	9	1	2	0.0500	0.0500	0	1	0.668	0	82	82
24	1	518	0	2	3	0.0500	0.0500	1	1	0.670	7	0	82
24	1	519	0	2	2	0.0500	0.0500	0	1	0.598	8	82	82
24	1	520	1	2	1	0.0500	0.0500	0	1	1.118	50	0	0
24	1	521	1	2	2	0.0500	0.0500	0	1	1.981	50	0	0
24	1	522	1	1	3	0.0500	0.0500	1	1	4.889	50	0	82
24	1	523	0	1	1	0.0500	0.0500	0	1	0.947	5	82	82
24	1	524	1	2	3	0.0500	0.0500	1	1	1.157	50	82	0
24	1	525	9	2	3	0.0500	0.0500	0	1	0.742	0	0	0
24	1	526	0	1	1	0.0500	0.0500	1	1	0.679	7	82	0
24	1	527	0	1	1	0.0500	0.0500	1	1	0.585	8	82	0
24	1	528	1	2	3	0.0500	0.0500	1	1	0.519	83	82	0
24	1	529	0	1	3	0.0500	0.0500	1	1	0.546	8	82	0
24	1	530	0	1	1	0.0500	0.0500	1	1	0.483	9	82	0
24	1	531	0	2	2	0.0500	0.0500	0	1	0.541	8	82	82
24	1	532	0	1	3	0.0500	0.0500	0	1	1.859	5	82	82
24	1	533	1	1	1	0.0500	0.0500	1	1	0.596	75	0	82
24	1	534	1	1	2	0.0500	0.0500	0	1	0.854	50	0	0
24	1	535	9	2	1	0.0500	0.0500	0	1	0.672	0	82	82
24	1	536	0	1	1	0.0500	0.0500	0	0	0.962	0	82	82
24	1	537	1	2	2	0.0500	0.0500	0	1	0.515	83	0	0
24	1	538	1	2	2	0.0500	0.0500	0	1	0.569	78	0	0
24	1	539	0	2	3	0.0500	0.0500	0	1	0.598	8	82	82
24	1	540	0	2	3	0.0500	0.0500	0	1	0.570	8	82	82
24	1	541	1	1	3	0.0500	0.0500	0	0	1.596	0	0	0
24	1	542	1	2	3	0.0500	0.0500	0	1	0.549	80	0	0
24	1	543	9	2	3	0.0500	0.0500	1	1	0.500	0	0	82
24	1	544	1	1	2	0.0500	0.0500	1	1	0.647	70	0	82
24	1	545	9	2	3	0.0500	0.0500	1	1	0.499	0	0	82
24	1	546	0	1	2	0.0500	0.0500	1	1	0.699	7	82	0
24	1	547	0	2	2	0.0500	0.0500	0	1	0.504	8	82	82
24	1	548	0	2	3	0.0500	0.0500	0	1	0.638	7	82	82
24	1	549	9	1	1	0.0500	0.0500	1	1	0.553	0	82	0
24	1	550	9	1	3	0.0500	0.0500	1	1	0.920	0	0	82
24	1	551	9	2	2	0.0500	0.0500	0	1	0.553	0	0	0
24	1	552	9	1	2	0.0500	0.0500	0	1	1.157	0	0	0
24	1	553	1	1	3	0.0500	0.0500	1	0	0.817	0	0	82
24	1	554	9	2	3	0.0500	0.0500	0	1	0.771	0	0	0
24	1	555	9	1	3	0.0500	0.0500	1	1	0.746	0	82	0
24	1	556	1	1	2	0.0500	0.0500	1	0	0.613	0	0	82
24	1	557	0	1	1	0.0500	0.0500	1	1	0.534	8	82	0
24	1	558	1	2	1	0.0500	0.0500	0	1	0.675	68	0	0
24	1	559	0	2	1	0.0500	0.0500	0	1	0.629	7	82	82
24	1	560	0	1	1	0.0500	0.0500	0	1	1.191	5	82	82
24	1	561	0	1	3	0.0500	0.0500	1	1	0.758	6	82	0
24	1	562	9	2	2	0.0500	0.0500	1	0	0.537	0	0	82
24	1	563	9	1	1	0.0500	0.0500	0	1	0.646	0	0	0
24	1	564	1	1	3	0.0500	0.0500	0	1	1.159	50	0	0
24	1	565	1	1	1	0.0500	0.0500	1	0	1.005	0	0	82
24	1	566	9	2	1	0.0500	0.0500	1	0	0.728	0	0	82
24	1	567	1	2	2	0.0500	0.0500	1	1	0.856	50	82	0
24	1	568	0	1	1	0.0500	0.0500	0	1	0.587	8	82	82
24	1	569	1	2	2	0.0500	0.0500	0	1	0.727	62	0	0
24	1	570	0	2	3	0.0500	0.0500	0	1	0.523	8	82	82
24	1	571	0	2	2	0.0500	0.0500	1	1	0.704	6	0	82
24	1	572	9	1	3	0.0500	0.0500	0	1	0.627	0	0	0
24	1	573	0	1	3	0.0500	0.0500	1	1	0.793	6	82	0
24	1	574	1	1	2	0.0500	0.0500	1	1	0.701	65	0	82
24	1	575	0	1	1	0.0500	0.0500	0	1	0.622	7	82	82
24	1	576	0	1	3	0.0500	0.0500	0	1	0.793	6	82	82
24	1	577	1	1	3	0.0500	0.0500	0	1	0.746	60	0	0
24	1	578	1	1	1	0.0500	0.0500	1	0	1.035	0	0	82
24	1	579	1	1	1	0.0500	0.0500	0	1	2.573	50	0	0
24	1	580	9	1	1	0.0500	0.0500	0	0	1.882	0	82	82
24	1	581	0	2	3	0.0500	0.0500	1	1	0.683	7	0	82
24	1	582	1	2	2	0.0500	0.0500	0	1	0.602	75	0	0
24	1	583	0	2	2	0.0500	0.0500	0	1	0.552	8	82	82
24	1	584	0	1	1	0.0500	0.0500	0	1	1.083	5	82	82
24	1	585	1	1	3	0.0500	0.0500	0	1	0.775	57	0	0
24	1	586	0	2	1	0.0500	0.0500	0	1	0.655	7	82	82
24	1	587	0	1	2	0.0500	0.0500	0	1	0.656	7	82	82
24	1	588	0	1	2	0.0500	0.0500	1	1	0.626	7	82	0
24	1	589	1	1	1	0.0500	0.0500	0	1	0.635	72	0	0
24	1	590	0	2	3	0.0500	0.0500	0	1	0.667	7	82	82
24	1	591	9	1	3	0.0500	0.0500	1	1	0.845	0	82	0
24	1	592	9	1	1	0.0500	0.0500	1	1	0.453	0	0	82
24	1	593	9	2	3	0.0500	0.0500	1	1	0.602	0	0	82
24	1	594	0	1	3	0.0500	0.0500	1	1	0.475	9	82	0
24	1	595	0	1	2	0.0500	0.0500	0	0	0.667	0	82	82
24	1	596	1	1	2	0.0500	0.0500	1	1	0.734	62	0	82
24	1	597	0	2	2	0.0500	0.0500	0	1	0.639	7	82	82
24	1	598	0	1	3	0.0500	0.0500	0	1	0.719	6	82	82
24	1	599	0	2	1	0.0500	0.0500	0	1	0.679	7	82	82
24	1	600	1	2	2	0.0500	0.0500	1	1	0.659	69	82	0
24	1	601	0	1	2	0.0500	0.0500	1	1	0.691	7	82	0
24	1	602	0	2	2	0.0500	0.0500	1	1	0.601	7	0	82
24	1	603	1	1	1	0.0500	0.0500	0	1	0.710	64	0	0
24	1	604	0	2	3	0.0500	0.0500	1	1	0.646	7	0	82
24	1	605	1	2	1	0.0500	0.0500	1	1	0.579	77	82	0
24	1	606	9	1	1	0.0500	0.0500	0	1	0.568	0	82	82
24	1	607	9	2	3	0.0500	0.0500	1	1	0.554	0	82	0
24	1	608	0	1	3	0.0500	0.0500	0	1	0.582	8	82	82
24	1	609	0	2	2	0.0500	0.0500	1	1	0.709	6	0	82
24	1	610	1	1	1	0.0500	0.0500	1	1	0.716	63	0	82
24	1	611	1	2	1	0.0500	0.0500	0	1	0.647	70	0	0
24	1	612	0	2	3	0.0500	0.0500	0	1	0.575	8	82	82
24	1	613	9	1	3	0.0500	0.0500	1	1	0.674	0	82	0
24	1	614	0	1	1	0.0500	0.0500	1	1	0.623	7	82	0
24	1	615	0	2	3	0.0500	0.0500	1	1	0.655	7	0	82
24	1	616	0	2	3	0.0500	0.0500	0	1	0.705	6	82	82
24	1	617	1	2	1	0.0500	0.0500	1	1	0.679	67	82	0
24	1	618	9	1	1	0.0500	0.0500	1	1	0.773	0	82	0
24	1	619	0	1	3	0.0500	0.0500	1	1	1.074	5	82	0
24	1	620	0	1	1	0.0500	0.0500	0	1	1.319	5	82	82
24	1	621	1	2	3	0.0500	0.0500	1	1	0.582	77	82	0
24	1	622	0	1	3	0.0500	0.0500	0	1	0.770	6	82	82
24	1	623	1	1	1	0.0500	0.0500	1	1	1.025	50	0	82
24	1	624	1	1	2	0.0500	0.0500	0	1	0.823	53	0	0
24	1	625	0	1	3	0.0500	0.0500	1	0	1.026	0	82	0
24	1	626	0	1	3	0.0500	0.0500	0	1	0.556	8	82	82
24	1	627	1	1	1	0.0500	0.0500	1	0	0.635	0	0	82
24	1	628	0	2	3	0.0500	0.0500	1	1	0.681	7	0	82
24	1	629	0	1	3	0.0500	0.0500	1	0	0.646	0	82	0
24	1	630	0	2	2	0.0500	0.0500	1	1	0.606	7	0	82
24	1	631	1	1	1	0.0500	0.0500	0	1	0.899	50	0	0
24	1	632	9	2	2	0.0500	0.0500	0	0	0.638	0	0	0
24	1	633	0	1	1	0.0500	0.0500	0	1	0.624	7	82	82
24	1	634	1	2	3	0.0500	0.0500	1	1	0.529	82	82	0
24	1	635	0	1	2	0.0500	0.0500	1	1	0.592	8	82	0
24	1	636	0	1	1	0.0500	0.0500	1	1	0.491	9	82	0
24	1	637	1	2	2	0.0500	0.0500	1	1	0.457	89	82	0
24	1	638	1	2	2	0.0500	0.0500	0	0	1.519	0	0	0
24	1	639	1	2	3	0.0500	0.0500	0	1	0.608	74	0	0
24	1	640	0	2	3	0.0500	0.0500	0	1	0.534	8	82	82
24	1	641	0	1	3	0.0500	0.0500	1	1	0.667	7	82	0
24	1	642	9	2	2	0.0500	0.0500	0	1	0.969	0	82	82
24	1	643	1	1	3	0.0500	0.0500	0	1	0.772	58	0	0
24	1	644	0	2	2	0.0500	0.0500	1	1	0.523	8	0	82
24	1	645	0	2	3	0.0500	0.0500	1	1	0.602	7	0	82
24	1	646	1	1	1	0.0500	0.0500	1	0	0.951	0	0	82
24	1	647	0	2	2	0.0500	0.0500	1	1	0.613	7	0	82
24	1	648	1	2	3	0.0500	0.0500	0	1	0.611	74	0	0
24	1	649	0	2	2	0.0500	0.0500	0	0	1.524	0	82	82
24	1	650	1	2	2	0.0500	0.0500	0	1	0.626	72	0	0
24	1	651	0	1	1	0.0500	0.0500	1	1	0.527	8	82	0
24	1	652	0	2	3	0.0500	0.0500	0	1	0.566	8	82	82
24	1	653	1	2	2	0.0500	0.0500	1	1	0.628	72	82	0
24	1	654	1	1	1	0.0500	0.0500	0	1	0.579	77	0	0
24	1	655	0	2	3	0.0500	0.0500	1	1	0.483	9	0	82
24	1	656	0	2	1	0.0500	0.0500	1	1	0.521	8	0	82
24	1	657	0	2	2	0.0500	0.0500	1	1	0.539	8	0	82
24	1	658	1	1	1	0.0500	0.0500	1	0	2.527	0	0	82
24	1	659	0	1	1	0.0500	0.0500	1	1	0.392	10	82	0
24	1	660	9	1	3	0.0500	0.0500	1	1	0.664	0	0	82
24	1	661	9	2	2	0.0500	0.0500	0	1	0.531	0	0	0
24	1	662	0	2	1	0.0500	0.0500	0	0	0.695	0	82	82
24	1	663	0	1	1	0.0500	0.0500	0	1	0.704	6	82	82
24	1	664	9	2	2	0.0500	0.0500	1	1	0.595	0	82	0
24	1	665	0	2	3	0.0500	0.0500	0	1	0.987	5	82	82
24	1	666	1	1	1	0.0500	0.0500	0	1	0.730	62	0	0
24	1	667	1	1	1	0.0500	0.0500	1	0	0.712	0	0	82
24	1	668	1	1	3	0.0500	0.0500	0	1	0.631	72	0	0
24	1	669	1	2	2	0.0500	0.0500	1	1	0.560	79	82	0
24	1	670	0	1	1	0.0500	0.0500	1	0	1.245	0	82	0
24	1	671	1	1	3	0.0500	0.0500	1	1	0.660	69	0	82
24	1	672	0	1	1	0.0500	0.0500	0	1	0.660	7	82	82
24	1	673	1	2	2	0.0500	0.0500	0	1	0.729	62	0	0
24	1	674	0	2	2	0.0500	0.0500	1	1	0.597	8	0	82
24	1	675	0	2	2	0.0500	0.0500	0	1	0.653	7	82	82
24	1	676	1	2	3	0.0500	0.0500	1	1	0.635	72	82	0
24	1	677	0	1	1	0.0500	0.0500	0	1	0.589	8	82	82
24	1	678	1	2	3	0.0500	0.0500	1	1	0.539	81	82	0
24	1	679	1	1	1	0.0500	0.0500	0	1	0.617	73	0	0
24	1	680	0	2	1	0.0500	0.0500	1	1	0.973	5	0	82
24	1	681	9	2	1	0.0500	0.0500	1	1	0.733	0	82	0
24	1	682	1	1	1	0.0500	0.0500	0	1	0.614	74	0	0
24	1	683	9	2	2	0.0500	0.0500	0	1	0.683	0	82	82
24	1	684	1	1	3	0.0500	0.0500	1	1	0.660	69	0	82
24	1	685	1	2	2	0.0500	0.0500	1	1	0.736	61	82	0
24	1	686	0	1	1	0.0500	0.0500	1	1	0.478	9	82	0
24	1	687	1	2	2	0.0500	0.0500	1	1	2.119	50	82	0
24	1	688	1	1	3	0.0500	0.0500	0	1	0.837	51	0	0
24	1	689	1	2	2	0.0500	0.0500	0	1	1.134	50	0	0
24	1	690	1	2	3	0.0500	0.0500	0	1	0.708	64	0	0
24	1	691	9	1	3	0.0500	0.0500	0	1	0.710	0	0	0
24	1	692	1	2	2	0.0500	0.0500	0	1	0.673	68	0	0
24	1	693	1	2	3	0.0500	0.0500	1	1	0.688	66	82	0
24	1	694	1	1	2	0.0500	0.0500	0	1	1.636	50	0	0
24	1	695	0	2	2	0.0500	0.0500	1	1	0.598	8	0	82
24	1	696	1	1	3	0.0500	0.0500	1	1	0.908	50	0	82
24	1	697	1	2	2	0.0500	0.0500	1	1	0.613	74	82	0
24	1	698	0	2	3	0.0500	0.0500	0	1	0.666	7	82	82
24	1	699	1	1	3	0.0500	0.0500	1	1	0.731	62	0	82
24	1	700	0	2	3	0.0500	0.0500	0	1	0.683	7	82	82
24	1	701	1	1	3	0.0500	0.0500	1	1	0.647	70	0	82
24	1	702	0	2	1	0.0500	0.0500	1	1	0.892	5	0	82
24	1	703	9	2	3	0.0500	0.0500	0	1	0.668	0	0	0
24	1	704	9	1	3	0.0500	0.0500	0	1	0.663	0	82	82
24	1	705	9	1	3	0.0500	0.0500	0	1	0.631	0	82	82
24	1	706	0	2	2	0.0500	0.0500	1	1	0.655	7	0	82
24	1	707	0	1	3	0.0500	0.0500	1	1	1.049	5	82	0
24	1	708	0	1	3	0.0500	0.0500	0	1	0.635	7	82	82
24	1	709	1	1	3	0.0500	0.0500	0	1	0.661	69	0	0
24	1	710	0	1	1	0.0500	0.0500	0	1	1.633	5	82	82
24	1	711	0	2	3	0.0500	0.0500	0	1	0.710	6	82	82
24	1	712	1	2	2	0.0500	0.0500	0	1	0.526	82	0	0
24	1	713	1	2	3	0.0500	0.0500	0	1	0.576	77	0	0
24	1	714	0	1	3	0.0500	0.0500	0	1	0.754	6	82	82
24	1	715	9	2	2	0.0500	0.0500	1	1	0.575	0	82	0
24	1	716	0	1	1	0.0500	0.0500	1	1	0.739	6	82	0
24	1	717	1	1	3	0.0500	0.0500	1	1	0.683	67	0	82
24	1	718	1	2	3	0.0500	0.0500	1	1	0.647	70	82	0
24	1	719	0	2	2	0.0500	0.0500	0	1	0.633	7	82	82
24	1	720	0	1	1	0.0500	0.0500	1	1	0.464	9	82	0
