sub	sess	t	rew	loc	cue	co1	co2	or	resp	rt	rew_tot	left_col	right_col
84	1	1	1	1	3	0.2488	0.0863	1	1	0.742	61	0	82
84	1	2	9	1	1	0.2488	0.0863	0	1	0.543	0	82	82
84	1	3	1	2	3	0.2488	0.0863	0	1	0.568	78	0	0
84	1	4	0	1	3	0.2488	0.0863	0	0	0.571	0	82	82
84	1	5	1	2	2	0.2488	0.0863	1	0	0.760	0	82	0
84	1	6	9	1	1	0.2488	0.0863	1	1	0.837	0	0	82
84	1	7	1	2	3	0.2488	0.0863	0	1	0.748	60	0	0
84	1	8	0	1	3	0.2488	0.0863	1	1	0.806	5	82	0
84	1	9	9	1	1	0.2488	0.0863	1	1	0.511	0	0	82
84	1	10	1	1	3	0.2488	0.0863	0	1	0.494	86	0	0
84	1	11	1	1	1	0.2488	0.0863	1	1	0.591	76	0	82
84	1	12	1	2	2	0.2488	0.0863	0	1	0.506	84	0	0
84	1	13	1	1	3	0.2488	0.0863	1	1	0.669	68	0	82
84	1	14	1	2	3	0.2488	0.0863	0	1	0.485	87	0	0
84	1	15	1	1	1	0.2488	0.0863	1	1	0.588	76	0	82
84	1	16	0	2	1	0.2488	0.0863	1	0	0.542	0	0	82
84	1	17	1	2	3	0.2488	0.0863	0	1	0.491	86	0	0
84	1	18	9	1	2	0.2488	0.0863	1	1	0.685	0	0	82
84	1	19	9	1	3	0.2488	0.0863	0	1	0.724	0	0	0
84	1	20	0	2	1	0.2488	0.0863	0	1	0.645	7	82	82
84	1	21	0	2	3	0.2488	0.0863	1	1	0.730	6	0	82
84	1	22	1	1	1	0.2488	0.0863	1	1	0.917	50	0	82
84	1	23	9	2	1	0.2488	0.0863	1	1	0.615	0	82	0
84	1	24	1	1	3	0.2488	0.0863	1	1	0.597	75	0	82
84	1	25	9	1	2	0.2488	0.0863	1	1	0.538	0	82	0
84	1	26	1	2	2	0.2488	0.0863	0	1	0.591	76	0	0
84	1	27	1	2	1	0.2488	0.0863	1	1	0.769	58	82	0
84	1	28	9	2	2	0.2488	0.0863	1	1	0.555	0	0	82
84	1	29	1	1	1	0.2488	0.0863	0	1	0.599	75	0	0
84	1	30	0	2	3	0.2488	0.0863	0	1	0.815	5	82	82
84	1	31	0	2	2	0.2488	0.0863	1	1	0.490	9	0	82
84	1	32	1	1	3	0.2488	0.0863	0	1	0.718	63	0	0
84	1	33	1	2	2	0.2488	0.0863	1	1	0.552	80	82	0
84	1	34	0	2	3	0.2488	0.0863	0	1	0.674	7	82	82
84	1	35	1	2	3	0.2488	0.0863	0	1	0.478	87	0	0
84	1	36	0	1	2	0.2488	0.0863	1	0	0.841	0	82	0
84	1	37	1	1	3	0.2488	0.0863	1	1	0.730	62	0	82
84	1	38	9	1	1	0.2488	0.0863	1	1	0.594	0	82	0
84	1	39	0	2	3	0.2488	0.0863	0	1	0.557	8	82	82
84	1	40	0	2	2	0.2488	0.0863	0	1	0.665	7	82	82
84	1	41	9	1	3	0.2488	0.0863	0	1	0.615	0	0	0
84	1	42	0	1	2	0.2488	0.0863	1	1	0.567	8	82	0
84	1	43	0	1	3	0.2488	0.0863	1	1	0.665	7	82	0
84	1	44	9	2	1	0.2488	0.0863	1	1	1.127	0	0	82
84	1	45	1	2	3	0.2488	0.0863	1	1	0.653	70	82	0
84	1	46	0	2	2	0.2488	0.0863	1	1	0.734	6	0	82
84	1	47	9	2	2	0.2488	0.0863	0	1	0.495	0	82	82
84	1	48	9	1	1	0.2488	0.0863	1	1	0.676	0	82	0
84	1	49	9	1	2	0.2488	0.0863	0	1	0.612	0	0	0
84	1	50	9	2	2	0.2488	0.0863	1	1	0.947	0	82	0
84	1	51	9	2	1	0.2488	0.0863	0	1	1.546	0	0	0
84	1	52	0	1	1	0.2488	0.0863	0	1	0.642	7	82	82
84	1	53	0	2	3	0.2488	0.0863	0	1	0.503	8	82	82
84	1	54	0	2	3	0.2488	0.0863	0	1	0.504	8	82	82
84	1	55	1	2	2	0.2488	0.0863	0	1	0.424	93	0	0
84	1	56	1	2	2	0.2488	0.0863	0	1	0.422	93	0	0
84	1	57	1	2	2	0.2488	0.0863	0	1	0.378	97	0	0
84	1	58	1	1	1	0.2488	0.0863	1	1	0.489	86	0	82
84	1	59	1	2	3	0.2488	0.0863	1	1	0.563	79	82	0
84	1	60	0	1	1	0.2488	0.0863	1	1	0.745	6	82	0
84	1	61	0	2	2	0.2488	0.0863	1	1	0.719	6	0	82
84	1	62	1	2	2	0.2488	0.0863	0	1	0.450	90	0	0
84	1	63	0	2	2	0.2488	0.0863	1	1	0.510	8	0	82
84	1	64	1	1	3	0.2488	0.0863	0	1	0.614	74	0	0
84	1	65	9	1	3	0.2488	0.0863	0	1	0.528	0	0	0
84	1	66	1	2	2	0.2488	0.0863	1	1	0.511	84	82	0
84	1	67	0	2	3	0.2488	0.0863	0	1	0.644	7	82	82
84	1	68	0	2	3	0.2488	0.0863	1	1	0.907	5	0	82
84	1	69	0	2	3	0.2488	0.0863	0	1	0.471	9	82	82
84	1	70	9	2	2	0.2488	0.0863	0	1	0.578	0	82	82
84	1	71	0	1	1	0.2488	0.0863	1	1	0.546	8	82	0
84	1	72	1	2	1	0.2488	0.0863	1	1	0.664	69	82	0
84	1	73	1	2	2	0.2488	0.0863	1	0	0.556	0	82	0
84	1	74	1	1	2	0.2488	0.0863	1	1	0.551	80	0	82
84	1	75	0	2	3	0.2488	0.0863	1	0	0.592	0	0	82
84	1	76	9	2	2	0.2488	0.0863	1	1	0.518	0	82	0
84	1	77	1	1	3	0.2488	0.0863	0	1	0.508	84	0	0
84	1	78	1	1	3	0.2488	0.0863	1	1	0.573	78	0	82
84	1	79	1	2	3	0.2488	0.0863	0	1	0.472	88	0	0
84	1	80	0	2	3	0.2488	0.0863	1	1	0.733	6	0	82
84	1	81	0	2	3	0.2488	0.0863	0	1	0.501	8	82	82
84	1	82	0	1	2	0.2488	0.0863	1	1	0.601	7	82	0
84	1	83	0	2	2	0.2488	0.0863	1	1	0.457	9	0	82
84	1	84	9	1	1	0.2488	0.0863	1	1	0.458	0	82	0
84	1	85	0	2	3	0.2488	0.0863	0	1	0.428	9	82	82
84	1	86	9	2	3	0.2488	0.0863	0	1	0.452	0	0	0
84	1	87	1	2	2	0.2488	0.0863	1	1	0.651	70	82	0
84	1	88	1	1	2	0.2488	0.0863	0	0	0.459	0	0	0
84	1	89	0	1	2	0.2488	0.0863	0	1	0.525	8	82	82
84	1	90	9	1	3	0.2488	0.0863	1	1	1.145	0	82	0
84	1	91	1	1	1	0.2488	0.0863	0	1	0.493	86	0	0
84	1	92	0	1	3	0.2488	0.0863	1	1	0.692	7	82	0
84	1	93	0	2	2	0.2488	0.0863	0	1	0.549	8	82	82
84	1	94	1	2	3	0.2488	0.0863	0	1	0.872	50	0	0
84	1	95	0	2	3	0.2488	0.0863	0	1	0.783	6	82	82
84	1	96	0	1	3	0.2488	0.0863	0	1	0.550	8	82	82
84	1	97	0	1	1	0.2488	0.0863	1	1	0.848	5	82	0
84	1	98	0	2	3	0.2488	0.0863	1	1	0.831	5	0	82
84	1	99	1	1	1	0.2488	0.0863	0	1	0.431	92	0	0
84	1	100	0	2	2	0.2488	0.0863	0	1	0.588	8	82	82
84	1	101	1	2	3	0.2488	0.0863	1	1	0.686	66	82	0
84	1	102	0	2	2	0.2488	0.0863	0	1	0.532	8	82	82
84	1	103	0	2	3	0.2488	0.0863	1	1	0.650	7	0	82
84	1	104	1	1	1	0.2488	0.0863	0	1	0.581	77	0	0
84	1	105	0	1	1	0.2488	0.0863	1	1	0.786	6	82	0
84	1	106	0	1	2	0.2488	0.0863	0	1	0.586	8	82	82
84	1	107	1	1	1	0.2488	0.0863	1	1	0.536	81	0	82
84	1	108	1	2	2	0.2488	0.0863	0	1	0.474	88	0	0
84	1	109	1	1	1	0.2488	0.0863	0	1	0.458	89	0	0
84	1	110	1	1	3	0.2488	0.0863	0	1	0.504	85	0	0
84	1	111	0	1	3	0.2488	0.0863	0	1	0.455	9	82	82
84	1	112	1	1	1	0.2488	0.0863	0	1	0.370	98	0	0
84	1	113	0	1	1	0.2488	0.0863	0	1	0.445	9	82	82
84	1	114	0	2	2	0.2488	0.0863	0	1	0.549	8	82	82
84	1	115	1	1	1	0.2488	0.0863	1	1	0.648	70	0	82
84	1	116	1	2	2	0.2488	0.0863	1	1	0.586	76	82	0
84	1	117	0	2	3	0.2488	0.0863	1	1	1.039	5	0	82
84	1	118	1	1	1	0.2488	0.0863	1	1	0.478	87	0	82
84	1	119	1	2	3	0.2488	0.0863	1	1	0.694	66	82	0
84	1	120	1	2	2	0.2488	0.0863	1	1	0.477	87	82	0
84	1	121	1	2	3	0.2488	0.0863	1	1	0.550	80	82	0
84	1	122	1	2	2	0.2488	0.0863	1	1	0.440	91	82	0
84	1	123	1	1	2	0.2488	0.0863	1	1	0.544	81	0	82
84	1	124	1	1	3	0.2488	0.0863	0	1	0.680	67	0	0
84	1	125	1	1	1	0.2488	0.0863	1	1	0.529	82	0	82
84	1	126	0	1	1	0.2488	0.0863	1	1	0.610	7	82	0
84	1	127	1	1	3	0.2488	0.0863	1	1	0.478	87	0	82
84	1	128	1	1	2	0.2488	0.0863	0	1	0.540	81	0	0
84	1	129	1	1	3	0.2488	0.0863	0	1	0.394	96	0	0
84	1	130	0	2	2	0.2488	0.0863	0	1	0.528	8	82	82
84	1	131	9	2	3	0.2488	0.0863	0	1	0.437	0	82	82
84	1	132	0	1	1	0.2488	0.0863	0	1	0.465	9	82	82
84	1	133	0	2	3	0.2488	0.0863	1	0	0.738	0	0	82
84	1	134	1	2	3	0.2488	0.0863	0	1	0.519	83	0	0
84	1	135	1	1	3	0.2488	0.0863	1	1	0.495	86	0	82
84	1	136	0	2	3	0.2488	0.0863	1	0	0.439	0	0	82
84	1	137	0	1	3	0.2488	0.0863	1	1	0.756	6	82	0
84	1	138	0	1	1	0.2488	0.0863	0	1	0.514	8	82	82
84	1	139	1	2	2	0.2488	0.0863	0	1	0.549	80	0	0
84	1	140	0	1	3	0.2488	0.0863	0	1	0.552	8	82	82
84	1	141	0	1	1	0.2488	0.0863	1	1	0.668	7	82	0
84	1	142	9	2	2	0.2488	0.0863	1	1	0.673	0	0	82
84	1	143	1	1	1	0.2488	0.0863	0	1	0.523	83	0	0
84	1	144	0	1	1	0.2488	0.0863	0	1	0.517	8	82	82
84	1	145	1	1	1	0.2488	0.0863	0	1	0.402	95	0	0
84	1	146	0	1	1	0.2488	0.0863	0	1	0.412	9	82	82
84	1	147	1	2	2	0.2488	0.0863	0	1	0.446	90	0	0
84	1	148	1	2	3	0.2488	0.0863	1	1	0.555	80	82	0
84	1	149	0	2	3	0.2488	0.0863	1	1	0.746	6	0	82
84	1	150	9	1	1	0.2488	0.0863	0	1	0.354	0	0	0
84	1	151	1	2	2	0.2488	0.0863	0	1	0.609	74	0	0
84	1	152	9	2	3	0.2488	0.0863	1	1	0.602	0	0	82
84	1	153	0	1	3	0.2488	0.0863	1	1	0.753	6	82	0
84	1	154	0	1	3	0.2488	0.0863	0	1	0.628	7	82	82
84	1	155	0	1	1	0.2488	0.0863	1	1	0.943	5	82	0
84	1	156	1	1	1	0.2488	0.0863	0	1	0.455	90	0	0
84	1	157	9	2	1	0.2488	0.0863	0	1	0.937	0	82	82
84	1	158	9	2	2	0.2488	0.0863	0	1	0.472	0	0	0
84	1	159	0	2	3	0.2488	0.0863	0	1	0.565	8	82	82
84	1	160	1	2	1	0.2488	0.0863	0	1	0.590	76	0	0
84	1	161	9	1	3	0.2488	0.0863	0	1	0.690	0	0	0
84	1	162	0	2	1	0.2488	0.0863	0	1	0.447	9	82	82
84	1	163	0	2	3	0.2488	0.0863	0	1	0.423	9	82	82
84	1	164	0	2	1	0.2488	0.0863	1	1	0.682	7	0	82
84	1	165	1	2	2	0.2488	0.0863	1	1	0.445	90	82	0
84	1	166	1	2	2	0.2488	0.0863	0	1	0.452	90	0	0
84	1	167	0	2	2	0.2488	0.0863	0	1	0.478	9	82	82
84	1	168	0	1	1	0.2488	0.0863	0	0	0.557	0	82	82
84	1	169	1	2	2	0.2488	0.0863	1	1	0.587	76	82	0
84	1	170	1	1	1	0.2488	0.0863	0	1	0.511	84	0	0
84	1	171	0	1	1	0.2488	0.0863	1	0	0.879	0	82	0
84	1	172	1	2	3	0.2488	0.0863	1	1	0.594	76	82	0
84	1	173	0	1	1	0.2488	0.0863	1	1	1.149	5	82	0
84	1	174	1	2	3	0.2488	0.0863	1	1	0.955	50	82	0
84	1	175	0	1	1	0.2488	0.0863	1	1	0.962	5	82	0
84	1	176	0	1	3	0.2488	0.0863	1	1	0.567	8	82	0
84	1	177	0	2	2	0.2488	0.0863	0	1	0.463	9	82	82
84	1	178	0	2	3	0.2488	0.0863	1	1	0.730	6	0	82
84	1	179	0	1	3	0.2488	0.0863	1	1	0.664	7	82	0
84	1	180	0	2	2	0.2488	0.0863	1	1	1.082	5	0	82
84	1	181	0	2	2	0.2488	0.0863	1	1	0.568	8	0	82
84	1	182	9	2	3	0.2488	0.0863	1	1	0.652	0	0	82
84	1	183	1	1	3	0.2488	0.0863	0	1	0.660	69	0	0
84	1	184	1	1	1	0.2488	0.0863	1	1	0.705	65	0	82
84	1	185	1	1	2	0.2488	0.0863	1	1	0.533	82	0	82
84	1	186	9	2	3	0.2488	0.0863	1	0	0.554	0	0	82
84	1	187	0	2	2	0.2488	0.0863	0	1	0.612	7	82	82
84	1	188	0	1	1	0.2488	0.0863	1	1	0.852	5	82	0
84	1	189	0	2	2	0.2488	0.0863	1	1	0.747	6	0	82
84	1	190	1	1	3	0.2488	0.0863	1	1	0.837	51	0	82
84	1	191	0	2	2	0.2488	0.0863	1	1	0.720	6	0	82
84	1	192	0	1	2	0.2488	0.0863	1	1	0.645	7	82	0
84	1	193	9	2	3	0.2488	0.0863	0	0	0.719	0	82	82
84	1	194	9	2	3	0.2488	0.0863	1	1	0.450	0	82	0
84	1	195	0	1	2	0.2488	0.0863	0	1	0.628	7	82	82
84	1	196	1	2	2	0.2488	0.0863	0	1	0.577	77	0	0
84	1	197	9	1	3	0.2488	0.0863	1	1	0.634	0	82	0
84	1	198	1	2	3	0.2488	0.0863	1	1	0.561	79	82	0
84	1	199	0	2	3	0.2488	0.0863	1	1	0.597	8	0	82
84	1	200	1	1	3	0.2488	0.0863	0	1	0.608	74	0	0
84	1	201	9	2	3	0.2488	0.0863	0	1	0.509	0	0	0
84	1	202	9	2	2	0.2488	0.0863	1	1	0.752	0	0	82
84	1	203	9	1	1	0.2488	0.0863	1	1	0.645	0	82	0
84	1	204	1	2	3	0.2488	0.0863	1	1	0.540	81	82	0
84	1	205	1	2	2	0.2488	0.0863	1	1	0.434	92	82	0
84	1	206	1	1	1	0.2488	0.0863	0	0	0.478	0	0	0
84	1	207	9	1	3	0.2488	0.0863	1	1	0.976	0	82	0
84	1	208	1	1	3	0.2488	0.0863	1	1	0.543	81	0	82
84	1	209	0	2	1	0.2488	0.0863	1	0	0.599	0	0	82
84	1	210	0	1	3	0.2488	0.0863	1	1	0.608	7	82	0
84	1	211	0	2	1	0.2488	0.0863	0	1	0.584	8	82	82
84	1	212	1	1	1	0.2488	0.0863	0	1	0.666	68	0	0
84	1	213	1	2	2	0.2488	0.0863	0	0	0.790	0	0	0
84	1	214	1	1	2	0.2488	0.0863	1	1	0.632	72	0	82
84	1	215	1	1	1	0.2488	0.0863	0	1	0.545	81	0	0
84	1	216	9	1	3	0.2488	0.0863	0	1	0.571	0	82	82
84	1	217	1	1	3	0.2488	0.0863	1	1	0.672	68	0	82
84	1	218	1	2	3	0.2488	0.0863	0	1	0.489	86	0	0
84	1	219	1	1	1	0.2488	0.0863	0	1	0.471	88	0	0
84	1	220	0	2	1	0.2488	0.0863	0	1	0.447	9	82	82
84	1	221	1	2	3	0.2488	0.0863	1	1	0.556	79	82	0
84	1	222	0	1	3	0.2488	0.0863	0	1	0.619	7	82	82
84	1	223	0	2	2	0.2488	0.0863	0	1	0.471	9	82	82
84	1	224	9	1	1	0.2488	0.0863	1	1	0.509	0	0	82
84	1	225	1	1	3	0.2488	0.0863	1	1	0.469	88	0	82
84	1	226	9	2	3	0.2488	0.0863	1	1	0.457	0	82	0
84	1	227	0	2	1	0.2488	0.0863	1	1	1.121	5	0	82
84	1	228	1	2	1	0.2488	0.0863	0	1	0.533	82	0	0
84	1	229	1	1	3	0.2488	0.0863	1	1	0.589	76	0	82
84	1	230	9	1	3	0.2488	0.0863	1	1	0.979	0	82	0
84	1	231	0	2	3	0.2488	0.0863	0	1	0.501	8	82	82
84	1	232	1	1	2	0.2488	0.0863	0	1	0.489	86	0	0
84	1	233	0	2	2	0.2488	0.0863	0	1	0.631	7	82	82
84	1	234	1	2	3	0.2488	0.0863	0	0	0.623	0	0	0
84	1	235	0	1	3	0.2488	0.0863	0	1	0.768	6	82	82
84	1	236	0	2	3	0.2488	0.0863	0	1	0.545	8	82	82
84	1	237	9	1	1	0.2488	0.0863	0	1	0.407	0	0	0
84	1	238	0	2	2	0.2488	0.0863	0	1	0.468	9	82	82
84	1	239	1	2	1	0.2488	0.0863	0	1	0.573	78	0	0
84	1	240	9	2	2	0.2488	0.0863	1	1	0.552	0	82	0
84	1	241	1	1	3	0.2488	0.0863	0	1	0.551	80	0	0
84	1	242	1	2	3	0.2488	0.0863	0	1	0.622	73	0	0
84	1	243	1	2	2	0.2488	0.0863	1	1	0.606	74	82	0
84	1	244	0	1	1	0.2488	0.0863	0	1	0.361	10	82	82
84	1	245	1	1	3	0.2488	0.0863	1	1	0.430	92	0	82
84	1	246	9	1	3	0.2488	0.0863	0	1	0.533	0	82	82
84	1	247	0	2	2	0.2488	0.0863	0	1	0.431	9	82	82
84	1	248	1	2	3	0.2488	0.0863	1	1	0.460	89	82	0
84	1	249	9	1	1	0.2488	0.0863	0	1	0.331	0	82	82
84	1	250	1	2	2	0.2488	0.0863	0	1	0.427	92	0	0
84	1	251	9	1	3	0.2488	0.0863	0	1	0.551	0	82	82
84	1	252	0	1	3	0.2488	0.0863	0	1	0.626	7	82	82
84	1	253	1	2	3	0.2488	0.0863	1	1	0.612	74	82	0
84	1	254	0	1	3	0.2488	0.0863	1	1	1.293	5	82	0
84	1	255	0	2	2	0.2488	0.0863	0	1	1.030	5	82	82
84	1	256	9	2	2	0.2488	0.0863	0	1	0.472	0	82	82
84	1	257	1	2	3	0.2488	0.0863	1	1	0.523	83	82	0
84	1	258	1	2	1	0.2488	0.0863	0	1	0.500	85	0	0
84	1	259	0	1	1	0.2488	0.0863	1	1	0.858	5	82	0
84	1	260	1	1	1	0.2488	0.0863	1	1	0.699	65	0	82
84	1	261	1	1	1	0.2488	0.0863	1	1	0.752	60	0	82
84	1	262	9	1	1	0.2488	0.0863	0	0	0.524	0	82	82
84	1	263	0	2	3	0.2488	0.0863	0	1	0.824	5	82	82
84	1	264	1	1	3	0.2488	0.0863	1	1	0.554	80	0	82
84	1	265	1	2	2	0.2488	0.0863	1	1	0.463	89	82	0
84	1	266	1	1	1	0.2488	0.0863	1	1	0.386	96	0	82
84	1	267	9	1	3	0.2488	0.0863	1	1	0.413	0	0	82
84	1	268	1	1	2	0.2488	0.0863	0	1	0.586	76	0	0
84	1	269	1	1	3	0.2488	0.0863	0	1	0.499	85	0	0
84	1	270	0	2	3	0.2488	0.0863	1	1	0.934	5	0	82
84	1	271	9	1	2	0.2488	0.0863	0	1	0.528	0	82	82
84	1	272	0	2	2	0.2488	0.0863	1	1	0.811	5	0	82
84	1	273	0	2	2	0.2488	0.0863	1	0	0.837	0	0	82
84	1	274	0	2	3	0.2488	0.0863	1	1	0.677	7	0	82
84	1	275	9	1	3	0.2488	0.0863	1	1	0.706	0	0	82
84	1	276	0	1	1	0.2488	0.0863	1	1	1.032	5	82	0
84	1	277	0	1	3	0.2488	0.0863	0	1	0.627	7	82	82
84	1	278	1	1	3	0.2488	0.0863	0	1	0.390	96	0	0
84	1	279	0	2	2	0.2488	0.0863	0	1	0.488	9	82	82
84	1	280	9	1	3	0.2488	0.0863	0	1	0.547	0	82	82
84	1	281	1	2	3	0.2488	0.0863	0	1	0.771	58	0	0
84	1	282	1	2	3	0.2488	0.0863	1	1	0.637	71	82	0
84	1	283	0	1	1	0.2488	0.0863	1	0	0.634	0	82	0
84	1	284	0	1	3	0.2488	0.0863	1	1	0.495	9	82	0
84	1	285	0	1	3	0.2488	0.0863	1	1	0.766	6	82	0
84	1	286	0	1	3	0.2488	0.0863	0	1	0.634	7	82	82
84	1	287	0	1	2	0.2488	0.0863	0	1	0.610	7	82	82
84	1	288	0	1	1	0.2488	0.0863	0	1	0.453	9	82	82
84	1	289	0	1	1	0.2488	0.0863	0	1	0.363	10	82	82
84	1	290	1	1	1	0.2488	0.0863	1	1	0.538	81	0	82
84	1	291	9	2	2	0.2488	0.0863	1	1	0.459	0	82	0
84	1	292	1	2	1	0.2488	0.0863	1	1	0.727	62	82	0
84	1	293	0	1	3	0.2488	0.0863	1	0	0.687	0	82	0
84	1	294	9	1	1	0.2488	0.0863	0	1	0.694	0	0	0
84	1	295	9	1	1	0.2488	0.0863	0	1	0.501	0	0	0
84	1	296	0	2	2	0.2488	0.0863	1	0	0.629	0	0	82
84	1	297	1	1	1	0.2488	0.0863	0	1	0.526	82	0	0
84	1	298	0	2	2	0.2488	0.0863	1	1	0.889	5	0	82
84	1	299	9	2	2	0.2488	0.0863	0	1	0.685	0	0	0
84	1	300	0	1	3	0.2488	0.0863	0	1	0.519	8	82	82
84	1	301	9	2	3	0.2488	0.0863	0	1	0.646	0	82	82
84	1	302	1	2	1	0.2488	0.0863	1	1	0.571	78	82	0
84	1	303	9	2	2	0.2488	0.0863	0	1	0.653	0	82	82
84	1	304	0	1	3	0.2488	0.0863	0	1	0.566	8	82	82
84	1	305	0	2	2	0.2488	0.0863	1	1	0.751	6	0	82
84	1	306	1	1	3	0.2488	0.0863	0	1	0.500	85	0	0
84	1	307	1	1	3	0.2488	0.0863	0	1	0.445	90	0	0
84	1	308	0	1	1	0.2488	0.0863	0	1	0.433	9	82	82
84	1	309	9	2	3	0.2488	0.0863	1	1	0.481	0	82	0
84	1	310	9	1	3	0.2488	0.0863	1	1	0.832	0	0	82
84	1	311	1	1	1	0.2488	0.0863	1	1	0.465	88	0	82
84	1	312	1	2	3	0.2488	0.0863	0	1	0.563	79	0	0
84	1	313	0	1	3	0.2488	0.0863	0	1	0.440	9	82	82
84	1	314	0	1	1	0.2488	0.0863	0	1	0.387	10	82	82
84	1	315	0	1	1	0.2488	0.0863	0	1	0.378	10	82	82
84	1	316	9	1	1	0.2488	0.0863	1	1	0.487	0	0	82
84	1	317	1	1	1	0.2488	0.0863	0	1	0.367	98	0	0
84	1	318	1	2	2	0.2488	0.0863	1	0	0.439	0	82	0
84	1	319	0	1	3	0.2488	0.0863	0	1	0.511	8	82	82
84	1	320	9	2	2	0.2488	0.0863	0	1	0.493	0	0	0
84	1	321	1	2	2	0.2488	0.0863	0	1	0.406	94	0	0
84	1	322	0	1	3	0.2488	0.0863	1	1	0.532	8	82	0
84	1	323	1	2	3	0.2488	0.0863	1	0	0.481	0	82	0
84	1	324	0	2	3	0.2488	0.0863	1	1	0.847	5	0	82
84	1	325	1	1	1	0.2488	0.0863	1	1	0.569	78	0	82
84	1	326	0	2	3	0.2488	0.0863	0	1	0.443	9	82	82
84	1	327	1	2	3	0.2488	0.0863	0	1	0.500	85	0	0
84	1	328	0	2	3	0.2488	0.0863	1	1	0.666	7	0	82
84	1	329	1	2	3	0.2488	0.0863	0	1	0.518	83	0	0
84	1	330	0	1	3	0.2488	0.0863	1	1	0.646	7	82	0
84	1	331	0	1	3	0.2488	0.0863	0	1	0.990	5	82	82
84	1	332	1	2	2	0.2488	0.0863	1	1	0.590	76	82	0
84	1	333	9	2	3	0.2488	0.0863	0	1	0.550	0	0	0
84	1	334	0	1	1	0.2488	0.0863	1	1	0.727	6	82	0
84	1	335	0	2	2	0.2488	0.0863	1	1	0.649	7	0	82
84	1	336	0	2	2	0.2488	0.0863	0	1	0.526	8	82	82
84	1	337	1	2	2	0.2488	0.0863	1	1	0.488	86	82	0
84	1	338	1	1	3	0.2488	0.0863	1	1	0.571	78	0	82
84	1	339	9	2	2	0.2488	0.0863	1	0	0.619	0	0	82
84	1	340	0	1	1	0.2488	0.0863	1	1	1.328	5	82	0
84	1	341	1	1	3	0.2488	0.0863	0	1	0.483	87	0	0
84	1	342	0	1	3	0.2488	0.0863	0	1	0.511	8	82	82
84	1	343	1	1	3	0.2488	0.0863	0	1	0.335	100	0	0
84	1	344	0	1	1	0.2488	0.0863	0	1	0.367	10	82	82
84	1	345	1	1	1	0.2488	0.0863	1	1	0.445	90	0	82
84	1	346	9	2	2	0.2488	0.0863	0	1	0.446	0	0	0
84	1	347	0	1	3	0.2488	0.0863	1	1	0.753	6	82	0
84	1	348	9	2	3	0.2488	0.0863	1	1	0.797	0	0	82
84	1	349	0	2	2	0.2488	0.0863	1	1	0.714	6	0	82
84	1	350	0	1	1	0.2488	0.0863	0	1	0.544	8	82	82
84	1	351	9	2	3	0.2488	0.0863	0	1	0.414	0	82	82
84	1	352	9	1	3	0.2488	0.0863	1	1	0.543	0	0	82
84	1	353	9	2	3	0.2488	0.0863	0	1	0.477	0	0	0
84	1	354	1	1	3	0.2488	0.0863	1	1	0.470	88	0	82
84	1	355	9	1	1	0.2488	0.0863	0	1	0.681	0	82	82
84	1	356	1	2	2	0.2488	0.0863	0	1	0.651	70	0	0
84	1	357	9	2	3	0.2488	0.0863	1	1	0.538	0	82	0
84	1	358	1	2	3	0.2488	0.0863	0	1	0.481	87	0	0
84	1	359	0	1	1	0.2488	0.0863	0	1	0.530	8	82	82
84	1	360	0	1	3	0.2488	0.0863	1	1	0.487	9	82	0
84	1	361	1	2	2	0.2488	0.0863	1	1	0.617	73	82	0
84	1	362	9	1	3	0.2488	0.0863	1	1	0.570	0	0	82
84	1	363	1	2	2	0.2488	0.0863	0	1	0.528	82	0	0
84	1	364	1	1	2	0.2488	0.0863	0	1	0.682	67	0	0
84	1	365	1	2	3	0.2488	0.0863	1	1	0.857	50	82	0
84	1	366	1	2	3	0.2488	0.0863	1	1	0.622	73	82	0
84	1	367	1	2	3	0.2488	0.0863	1	1	0.465	88	82	0
84	1	368	1	2	1	0.2488	0.0863	0	1	0.863	50	0	0
84	1	369	0	1	2	0.2488	0.0863	1	1	0.703	6	82	0
84	1	370	0	1	3	0.2488	0.0863	0	1	0.533	8	82	82
84	1	371	0	2	2	0.2488	0.0863	1	1	0.706	6	0	82
84	1	372	0	2	2	0.2488	0.0863	1	1	0.616	7	0	82
84	1	373	0	2	2	0.2488	0.0863	0	1	0.525	8	82	82
84	1	374	0	2	2	0.2488	0.0863	0	1	0.475	9	82	82
84	1	375	1	1	1	0.2488	0.0863	1	1	0.809	54	0	82
84	1	376	9	2	2	0.2488	0.0863	1	1	0.427	0	82	0
84	1	377	1	2	3	0.2488	0.0863	0	1	0.476	87	0	0
84	1	378	0	2	2	0.2488	0.0863	1	0	0.509	0	0	82
84	1	379	9	1	3	0.2488	0.0863	0	1	0.635	0	82	82
84	1	380	1	1	1	0.2488	0.0863	1	1	0.550	80	0	82
84	1	381	1	1	1	0.2488	0.0863	0	1	0.419	93	0	0
84	1	382	0	2	3	0.2488	0.0863	0	1	0.413	9	82	82
84	1	383	0	2	2	0.2488	0.0863	1	1	0.606	7	0	82
84	1	384	0	2	3	0.2488	0.0863	1	1	0.699	7	0	82
84	1	385	0	1	3	0.2488	0.0863	0	1	0.577	8	82	82
84	1	386	1	1	1	0.2488	0.0863	0	1	0.421	93	0	0
84	1	387	9	1	1	0.2488	0.0863	1	1	0.566	0	0	82
84	1	388	0	1	3	0.2488	0.0863	1	1	0.657	7	82	0
84	1	389	9	1	1	0.2488	0.0863	0	1	0.466	0	0	0
84	1	390	0	2	2	0.2488	0.0863	1	1	0.884	5	0	82
84	1	391	1	1	1	0.2488	0.0863	0	1	0.509	84	0	0
84	1	392	0	1	1	0.2488	0.0863	0	1	0.437	9	82	82
84	1	393	9	1	3	0.2488	0.0863	0	1	0.547	0	0	0
84	1	394	0	2	3	0.2488	0.0863	1	1	0.751	6	0	82
84	1	395	9	1	3	0.2488	0.0863	1	1	0.526	0	0	82
84	1	396	0	2	3	0.2488	0.0863	0	1	0.640	7	82	82
84	1	397	0	2	2	0.2488	0.0863	1	1	0.605	7	0	82
84	1	398	1	1	1	0.2488	0.0863	1	1	0.472	88	0	82
84	1	399	1	1	3	0.2488	0.0863	1	1	0.622	73	0	82
84	1	400	9	2	3	0.2488	0.0863	1	0	0.464	0	0	82
84	1	401	9	1	1	0.2488	0.0863	0	1	0.583	0	82	82
84	1	402	9	2	3	0.2488	0.0863	0	1	0.652	0	82	82
84	1	403	1	2	3	0.2488	0.0863	1	1	0.547	80	82	0
84	1	404	0	1	3	0.2488	0.0863	0	1	0.675	7	82	82
84	1	405	0	1	1	0.2488	0.0863	0	1	0.469	9	82	82
84	1	406	0	2	1	0.2488	0.0863	1	1	0.927	5	0	82
84	1	407	9	1	3	0.2488	0.0863	0	1	0.594	0	0	0
84	1	408	1	1	3	0.2488	0.0863	1	1	0.589	76	0	82
84	1	409	1	2	1	0.2488	0.0863	1	1	0.495	86	82	0
84	1	410	9	2	3	0.2488	0.0863	1	1	0.437	0	82	0
84	1	411	9	1	1	0.2488	0.0863	1	1	0.817	0	82	0
84	1	412	0	1	3	0.2488	0.0863	0	1	0.473	9	82	82
84	1	413	1	1	3	0.2488	0.0863	1	1	0.417	93	0	82
84	1	414	0	1	3	0.2488	0.0863	0	1	0.572	8	82	82
84	1	415	0	1	1	0.2488	0.0863	0	1	0.475	9	82	82
84	1	416	0	1	1	0.2488	0.0863	1	1	0.484	9	82	0
84	1	417	9	2	2	0.2488	0.0863	0	1	0.506	0	82	82
84	1	418	0	1	3	0.2488	0.0863	0	1	0.508	8	82	82
84	1	419	1	1	1	0.2488	0.0863	0	1	0.401	95	0	0
84	1	420	1	2	2	0.2488	0.0863	1	1	0.502	85	82	0
84	1	421	0	2	3	0.2488	0.0863	1	1	0.638	7	0	82
84	1	422	1	1	1	0.2488	0.0863	0	1	0.463	89	0	0
84	1	423	0	1	1	0.2488	0.0863	0	1	0.440	9	82	82
84	1	424	1	1	1	0.2488	0.0863	0	1	0.423	93	0	0
84	1	425	9	1	1	0.2488	0.0863	0	1	0.386	0	82	82
84	1	426	1	1	3	0.2488	0.0863	0	1	0.497	85	0	0
84	1	427	1	2	3	0.2488	0.0863	1	1	0.444	91	82	0
84	1	428	0	2	3	0.2488	0.0863	1	0	0.584	0	0	82
84	1	429	0	2	2	0.2488	0.0863	0	1	0.454	9	82	82
84	1	430	0	1	1	0.2488	0.0863	1	1	0.631	7	82	0
84	1	431	0	1	3	0.2488	0.0863	0	1	0.498	9	82	82
84	1	432	9	2	3	0.2488	0.0863	0	1	0.446	0	0	0
84	1	433	1	2	3	0.2488	0.0863	0	1	0.577	77	0	0
84	1	434	0	2	1	0.2488	0.0863	1	1	0.695	7	0	82
84	1	435	0	2	3	0.2488	0.0863	0	1	0.492	9	82	82
84	1	436	0	2	2	0.2488	0.0863	1	1	0.478	9	0	82
84	1	437	1	2	3	0.2488	0.0863	1	1	0.480	87	82	0
84	1	438	1	1	1	0.2488	0.0863	1	1	0.706	64	0	82
84	1	439	0	1	1	0.2488	0.0863	0	0	0.567	0	82	82
84	1	440	9	1	1	0.2488	0.0863	1	1	0.429	0	0	82
84	1	441	9	2	3	0.2488	0.0863	1	1	0.592	0	82	0
84	1	442	0	1	3	0.2488	0.0863	1	0	0.853	0	82	0
84	1	443	0	1	1	0.2488	0.0863	1	1	0.641	7	82	0
84	1	444	1	1	3	0.2488	0.0863	0	1	0.579	77	0	0
84	1	445	0	1	3	0.2488	0.0863	1	1	0.708	6	82	0
84	1	446	0	1	3	0.2488	0.0863	0	1	0.533	8	82	82
84	1	447	1	1	2	0.2488	0.0863	1	1	0.438	91	0	82
84	1	448	1	2	1	0.2488	0.0863	0	1	0.477	87	0	0
84	1	449	1	1	3	0.2488	0.0863	1	1	0.369	98	0	82
84	1	450	1	2	3	0.2488	0.0863	1	1	0.513	84	82	0
84	1	451	0	1	3	0.2488	0.0863	1	1	0.521	8	82	0
84	1	452	1	2	2	0.2488	0.0863	0	1	0.484	87	0	0
84	1	453	1	1	3	0.2488	0.0863	1	1	0.446	90	0	82
84	1	454	9	2	3	0.2488	0.0863	1	1	0.780	0	0	82
84	1	455	1	2	2	0.2488	0.0863	0	1	0.519	83	0	0
84	1	456	9	2	2	0.2488	0.0863	1	1	0.594	0	0	82
84	1	457	1	1	1	0.2488	0.0863	0	1	0.543	81	0	0
84	1	458	0	2	3	0.2488	0.0863	1	1	0.800	5	0	82
84	1	459	1	2	3	0.2488	0.0863	0	1	0.469	88	0	0
84	1	460	1	1	1	0.2488	0.0863	1	1	0.618	73	0	82
84	1	461	1	2	2	0.2488	0.0863	0	1	0.545	80	0	0
84	1	462	0	2	3	0.2488	0.0863	0	1	0.451	9	82	82
84	1	463	1	1	3	0.2488	0.0863	1	1	0.425	93	0	82
84	1	464	1	1	3	0.2488	0.0863	1	1	0.364	99	0	82
84	1	465	1	2	3	0.2488	0.0863	1	1	0.464	89	82	0
84	1	466	0	2	3	0.2488	0.0863	1	0	0.748	0	0	82
84	1	467	0	2	2	0.2488	0.0863	0	1	0.509	8	82	82
84	1	468	9	2	2	0.2488	0.0863	1	1	0.667	0	0	82
84	1	469	0	1	3	0.2488	0.0863	1	1	1.287	5	82	0
84	1	470	0	1	1	0.2488	0.0863	1	1	0.876	5	82	0
84	1	471	0	2	2	0.2488	0.0863	1	1	0.748	6	0	82
84	1	472	1	2	2	0.2488	0.0863	1	1	0.553	80	82	0
84	1	473	0	1	1	0.2488	0.0863	0	0	0.494	0	82	82
84	1	474	0	2	2	0.2488	0.0863	0	1	0.578	8	82	82
84	1	475	1	1	2	0.2488	0.0863	0	1	0.514	84	0	0
84	1	476	9	2	2	0.2488	0.0863	0	0	0.593	0	0	0
84	1	477	0	1	1	0.2488	0.0863	0	1	0.454	9	82	82
84	1	478	1	2	3	0.2488	0.0863	1	1	0.521	83	82	0
84	1	479	1	1	1	0.2488	0.0863	1	1	0.553	80	0	82
84	1	480	1	1	3	0.2488	0.0863	0	1	0.504	85	0	0
84	1	481	0	2	3	0.2488	0.0863	1	1	0.746	6	0	82
84	1	482	1	2	2	0.2488	0.0863	0	1	0.438	91	0	0
84	1	483	1	1	3	0.2488	0.0863	1	1	0.469	88	0	82
84	1	484	9	1	1	0.2488	0.0863	0	1	0.461	0	0	0
84	1	485	9	1	1	0.2488	0.0863	0	1	0.421	0	0	0
84	1	486	0	2	2	0.2488	0.0863	1	1	0.488	9	0	82
84	1	487	0	1	3	0.2488	0.0863	1	1	0.917	5	82	0
84	1	488	9	2	2	0.2488	0.0863	1	1	0.849	0	0	82
84	1	489	0	2	3	0.2488	0.0863	1	0	0.585	0	0	82
84	1	490	9	2	2	0.2488	0.0863	1	1	0.418	0	82	0
84	1	491	9	1	2	0.2488	0.0863	1	1	0.545	0	0	82
84	1	492	1	1	2	0.2488	0.0863	0	1	0.639	71	0	0
84	1	493	1	2	3	0.2488	0.0863	0	1	0.406	94	0	0
84	1	494	9	2	3	0.2488	0.0863	0	1	0.520	0	0	0
84	1	495	0	1	2	0.2488	0.0863	0	0	0.512	0	82	82
84	1	496	0	2	3	0.2488	0.0863	0	1	0.438	9	82	82
84	1	497	1	1	1	0.2488	0.0863	0	1	0.590	76	0	0
84	1	498	0	1	3	0.2488	0.0863	0	1	0.450	9	82	82
84	1	499	0	1	2	0.2488	0.0863	0	1	0.379	10	82	82
84	1	500	9	1	1	0.2488	0.0863	1	1	1.124	0	82	0
84	1	501	9	2	3	0.2488	0.0863	0	1	0.441	0	0	0
84	1	502	1	1	3	0.2488	0.0863	0	1	0.419	93	0	0
84	1	503	1	1	3	0.2488	0.0863	0	1	0.412	94	0	0
84	1	504	1	2	2	0.2488	0.0863	1	1	0.502	85	82	0
84	1	505	1	2	3	0.2488	0.0863	0	1	0.578	77	0	0
84	1	506	9	1	1	0.2488	0.0863	1	0	0.480	0	0	82
84	1	507	1	1	1	0.2488	0.0863	0	1	0.416	93	0	0
84	1	508	1	1	3	0.2488	0.0863	0	1	0.405	95	0	0
84	1	509	1	2	2	0.2488	0.0863	1	1	0.499	85	82	0
84	1	510	1	1	1	0.2488	0.0863	0	1	0.440	91	0	0
84	1	511	1	1	3	0.2488	0.0863	1	1	0.433	92	0	82
84	1	512	0	2	2	0.2488	0.0863	0	1	0.389	10	82	82
84	1	513	0	2	2	0.2488	0.0863	0	1	0.389	10	82	82
84	1	514	1	1	1	0.2488	0.0863	1	1	0.373	98	0	82
84	1	515	1	1	1	0.2488	0.0863	0	1	0.768	58	0	0
84	1	516	1	2	2	0.2488	0.0863	0	1	0.415	93	0	0
84	1	517	9	1	2	0.2488	0.0863	0	0	0.534	0	82	82
84	1	518	0	2	2	0.2488	0.0863	0	1	0.444	9	82	82
84	1	519	9	1	3	0.2488	0.0863	0	1	0.476	0	82	82
84	1	520	0	2	3	0.2488	0.0863	0	1	0.468	9	82	82
84	1	521	0	2	3	0.2488	0.0863	1	0	0.555	0	0	82
84	1	522	1	2	3	0.2488	0.0863	0	1	0.447	90	0	0
84	1	523	1	1	3	0.2488	0.0863	0	0	0.483	0	0	0
84	1	524	1	2	3	0.2488	0.0863	0	1	0.464	89	0	0
84	1	525	1	2	2	0.2488	0.0863	1	1	0.587	76	82	0
84	1	526	0	1	2	0.2488	0.0863	1	1	1.024	5	82	0
84	1	527	0	1	1	0.2488	0.0863	0	1	0.684	7	82	82
84	1	528	0	1	3	0.2488	0.0863	1	1	0.980	5	82	0
84	1	529	0	2	3	0.2488	0.0863	1	1	0.838	5	0	82
84	1	530	0	2	3	0.2488	0.0863	0	1	0.570	8	82	82
84	1	531	1	2	2	0.2488	0.0863	1	1	0.521	83	82	0
84	1	532	0	2	3	0.2488	0.0863	0	1	0.610	7	82	82
84	1	533	0	2	1	0.2488	0.0863	1	1	0.739	6	0	82
84	1	534	0	2	1	0.2488	0.0863	0	1	0.438	9	82	82
84	1	535	0	1	1	0.2488	0.0863	1	1	0.596	8	82	0
84	1	536	1	1	1	0.2488	0.0863	1	1	0.509	84	0	82
84	1	537	1	2	2	0.2488	0.0863	1	1	0.569	78	82	0
84	1	538	1	1	2	0.2488	0.0863	1	1	0.480	87	0	82
84	1	539	0	1	3	0.2488	0.0863	1	1	0.878	5	82	0
84	1	540	9	1	1	0.2488	0.0863	0	0	0.381	0	82	82
84	1	541	0	2	2	0.2488	0.0863	0	1	0.531	8	82	82
84	1	542	1	2	3	0.2488	0.0863	1	1	0.544	81	82	0
84	1	543	1	1	3	0.2488	0.0863	0	1	0.696	65	0	0
84	1	544	0	1	3	0.2488	0.0863	1	1	0.786	6	82	0
84	1	545	9	2	2	0.2488	0.0863	0	1	0.460	0	0	0
84	1	546	0	2	3	0.2488	0.0863	1	1	0.925	5	0	82
84	1	547	0	2	3	0.2488	0.0863	0	1	0.763	6	82	82
84	1	548	9	2	3	0.2488	0.0863	1	1	0.430	0	82	0
84	1	549	0	2	3	0.2488	0.0863	0	1	0.475	9	82	82
84	1	550	9	2	3	0.2488	0.0863	0	1	0.449	0	82	82
84	1	551	1	2	2	0.2488	0.0863	0	1	0.388	96	0	0
84	1	552	9	1	1	0.2488	0.0863	1	0	0.462	0	82	0
84	1	553	0	1	1	0.2488	0.0863	0	1	0.631	7	82	82
84	1	554	0	1	2	0.2488	0.0863	0	1	0.437	9	82	82
84	1	555	0	2	2	0.2488	0.0863	0	1	0.851	5	82	82
84	1	556	9	2	2	0.2488	0.0863	1	1	0.537	0	82	0
84	1	557	1	1	3	0.2488	0.0863	1	1	0.501	85	0	82
84	1	558	0	1	1	0.2488	0.0863	1	1	0.912	5	82	0
84	1	559	0	2	3	0.2488	0.0863	1	1	0.822	5	0	82
84	1	560	1	2	2	0.2488	0.0863	0	1	0.606	74	0	0
84	1	561	1	2	1	0.2488	0.0863	1	0	0.681	0	82	0
84	1	562	1	1	1	0.2488	0.0863	0	0	0.552	0	0	0
84	1	563	1	2	2	0.2488	0.0863	0	1	0.676	67	0	0
84	1	564	0	1	1	0.2488	0.0863	1	1	0.686	7	82	0
84	1	565	1	2	2	0.2488	0.0863	0	1	0.476	87	0	0
84	1	566	1	2	2	0.2488	0.0863	0	1	0.437	91	0	0
84	1	567	1	1	3	0.2488	0.0863	0	1	0.639	71	0	0
84	1	568	1	2	3	0.2488	0.0863	0	1	0.592	76	0	0
84	1	569	9	2	2	0.2488	0.0863	0	1	0.461	0	0	0
84	1	570	1	2	2	0.2488	0.0863	1	1	0.656	69	82	0
84	1	571	9	2	2	0.2488	0.0863	0	1	0.424	0	82	82
84	1	572	0	2	3	0.2488	0.0863	0	1	0.557	8	82	82
84	1	573	9	1	3	0.2488	0.0863	0	1	0.481	0	0	0
84	1	574	9	1	2	0.2488	0.0863	1	0	0.403	0	82	0
84	1	575	9	1	1	0.2488	0.0863	0	1	0.444	0	82	82
84	1	576	9	1	3	0.2488	0.0863	0	1	0.584	0	0	0
84	1	577	0	2	2	0.2488	0.0863	1	1	0.666	7	0	82
84	1	578	1	2	3	0.2488	0.0863	1	1	2.182	50	82	0
84	1	579	1	2	3	0.2488	0.0863	0	1	0.533	82	0	0
84	1	580	0	2	2	0.2488	0.0863	1	1	0.522	8	0	82
84	1	581	9	1	3	0.2488	0.0863	1	1	0.544	0	0	82
84	1	582	0	2	3	0.2488	0.0863	1	0	0.741	0	0	82
84	1	583	0	1	3	0.2488	0.0863	1	1	0.956	5	82	0
84	1	584	1	2	2	0.2488	0.0863	1	1	0.463	89	82	0
84	1	585	1	1	1	0.2488	0.0863	0	1	0.480	87	0	0
84	1	586	1	2	1	0.2488	0.0863	0	1	0.828	52	0	0
84	1	587	0	1	1	0.2488	0.0863	1	1	0.694	7	82	0
84	1	588	0	1	3	0.2488	0.0863	0	1	0.571	8	82	82
84	1	589	0	1	1	0.2488	0.0863	1	0	0.727	0	82	0
84	1	590	0	2	3	0.2488	0.0863	0	1	0.507	8	82	82
84	1	591	1	2	2	0.2488	0.0863	1	1	0.527	82	82	0
84	1	592	1	2	2	0.2488	0.0863	0	1	0.559	79	0	0
84	1	593	1	2	3	0.2488	0.0863	0	1	0.504	85	0	0
84	1	594	1	2	2	0.2488	0.0863	0	1	0.459	89	0	0
84	1	595	1	2	3	0.2488	0.0863	1	1	0.627	72	82	0
84	1	596	1	1	2	0.2488	0.0863	1	1	0.698	65	0	82
84	1	597	0	1	1	0.2488	0.0863	1	1	0.697	7	82	0
84	1	598	1	1	1	0.2488	0.0863	1	1	0.492	86	0	82
84	1	599	1	1	3	0.2488	0.0863	1	1	0.553	80	0	82
84	1	600	1	1	2	0.2488	0.0863	0	1	0.679	67	0	0
84	1	601	9	1	1	0.2488	0.0863	1	1	0.532	0	0	82
84	1	602	1	2	2	0.2488	0.0863	0	1	0.427	92	0	0
84	1	603	1	2	2	0.2488	0.0863	0	1	0.413	94	0	0
84	1	604	1	1	3	0.2488	0.0863	0	1	0.608	74	0	0
84	1	605	0	2	2	0.2488	0.0863	0	1	0.433	9	82	82
84	1	606	9	2	2	0.2488	0.0863	1	1	0.656	0	0	82
84	1	607	1	2	2	0.2488	0.0863	1	1	0.446	90	82	0
84	1	608	1	1	1	0.2488	0.0863	1	1	0.537	81	0	82
84	1	609	9	2	1	0.2488	0.0863	1	1	0.666	0	82	0
84	1	610	1	1	3	0.2488	0.0863	0	1	0.617	73	0	0
84	1	611	1	1	1	0.2488	0.0863	0	1	0.420	93	0	0
84	1	612	9	2	2	0.2488	0.0863	1	1	0.462	0	82	0
84	1	613	9	1	3	0.2488	0.0863	0	1	0.531	0	82	82
84	1	614	0	1	3	0.2488	0.0863	1	1	1.154	5	82	0
84	1	615	0	2	2	0.2488	0.0863	1	1	0.710	6	0	82
84	1	616	9	2	1	0.2488	0.0863	0	0	0.697	0	82	82
84	1	617	0	1	3	0.2488	0.0863	1	1	0.840	5	82	0
84	1	618	0	1	3	0.2488	0.0863	0	1	0.680	7	82	82
84	1	619	9	1	3	0.2488	0.0863	1	0	0.745	0	82	0
84	1	620	1	1	1	0.2488	0.0863	0	1	0.469	88	0	0
84	1	621	0	1	3	0.2488	0.0863	1	0	0.532	0	82	0
84	1	622	0	1	3	0.2488	0.0863	0	1	0.468	9	82	82
84	1	623	0	2	2	0.2488	0.0863	0	1	0.663	7	82	82
84	1	624	0	1	1	0.2488	0.0863	1	1	0.714	6	82	0
84	1	625	9	2	3	0.2488	0.0863	1	0	0.577	0	0	82
84	1	626	1	1	3	0.2488	0.0863	0	1	0.552	80	0	0
84	1	627	1	1	1	0.2488	0.0863	1	1	0.628	72	0	82
84	1	628	0	2	2	0.2488	0.0863	1	0	0.451	0	0	82
84	1	629	1	1	3	0.2488	0.0863	0	1	0.848	50	0	0
84	1	630	0	1	3	0.2488	0.0863	1	1	0.676	7	82	0
84	1	631	0	2	1	0.2488	0.0863	1	1	0.768	6	0	82
84	1	632	9	2	3	0.2488	0.0863	1	1	0.636	0	0	82
84	1	633	1	2	3	0.2488	0.0863	0	1	0.680	67	0	0
84	1	634	9	1	3	0.2488	0.0863	1	1	0.981	0	82	0
84	1	635	0	1	1	0.2488	0.0863	1	1	0.753	6	82	0
84	1	636	0	1	1	0.2488	0.0863	1	1	0.653	7	82	0
84	1	637	9	2	1	0.2488	0.0863	1	1	0.728	0	0	82
84	1	638	1	1	1	0.2488	0.0863	1	1	0.518	83	0	82
84	1	639	1	2	2	0.2488	0.0863	1	1	0.525	82	82	0
84	1	640	0	1	3	0.2488	0.0863	1	1	0.925	5	82	0
84	1	641	1	2	1	0.2488	0.0863	1	1	0.632	72	82	0
84	1	642	0	2	3	0.2488	0.0863	0	1	0.576	8	82	82
84	1	643	0	1	1	0.2488	0.0863	1	1	0.831	5	82	0
84	1	644	1	1	3	0.2488	0.0863	1	1	0.579	77	0	82
84	1	645	0	2	3	0.2488	0.0863	1	1	0.732	6	0	82
84	1	646	1	2	3	0.2488	0.0863	0	1	0.538	81	0	0
84	1	647	0	2	1	0.2488	0.0863	0	1	0.444	9	82	82
84	1	648	0	1	1	0.2488	0.0863	0	1	0.580	8	82	82
84	1	649	9	2	3	0.2488	0.0863	1	1	0.525	0	82	0
84	1	650	0	2	2	0.2488	0.0863	0	1	0.463	9	82	82
84	1	651	1	2	1	0.2488	0.0863	1	1	0.428	92	82	0
84	1	652	0	2	3	0.2488	0.0863	0	1	0.510	8	82	82
84	1	653	0	2	2	0.2488	0.0863	1	0	0.483	0	0	82
84	1	654	1	1	3	0.2488	0.0863	0	1	0.549	80	0	0
84	1	655	1	1	1	0.2488	0.0863	1	1	0.528	82	0	82
84	1	656	0	1	3	0.2488	0.0863	0	1	0.584	8	82	82
84	1	657	1	1	3	0.2488	0.0863	1	1	0.687	66	0	82
84	1	658	0	1	1	0.2488	0.0863	1	1	0.753	6	82	0
84	1	659	9	1	3	0.2488	0.0863	0	1	0.631	0	82	82
84	1	660	9	1	3	0.2488	0.0863	1	1	0.450	0	0	82
84	1	661	0	2	3	0.2488	0.0863	1	1	0.904	5	0	82
84	1	662	1	2	2	0.2488	0.0863	1	1	0.494	86	82	0
84	1	663	1	2	3	0.2488	0.0863	0	0	1.043	0	0	0
84	1	664	9	2	2	0.2488	0.0863	0	1	0.623	0	82	82
84	1	665	9	2	3	0.2488	0.0863	0	1	0.538	0	82	82
84	1	666	0	1	1	0.2488	0.0863	0	1	0.649	7	82	82
84	1	667	0	1	2	0.2488	0.0863	1	1	0.876	5	82	0
84	1	668	0	1	1	0.2488	0.0863	0	1	0.541	8	82	82
84	1	669	1	1	1	0.2488	0.0863	1	1	0.516	83	0	82
84	1	670	1	2	2	0.2488	0.0863	1	1	0.577	77	82	0
84	1	671	0	1	1	0.2488	0.0863	1	1	0.951	5	82	0
84	1	672	0	1	3	0.2488	0.0863	0	1	0.759	6	82	82
84	1	673	1	2	3	0.2488	0.0863	0	1	0.537	81	0	0
84	1	674	0	2	1	0.2488	0.0863	0	1	0.420	9	82	82
84	1	675	0	2	2	0.2488	0.0863	0	1	0.417	9	82	82
84	1	676	1	1	1	0.2488	0.0863	1	1	0.496	85	0	82
84	1	677	0	2	1	0.2488	0.0863	0	1	0.502	8	82	82
84	1	678	9	1	1	0.2488	0.0863	0	1	0.794	0	0	0
84	1	679	9	2	1	0.2488	0.0863	0	1	0.643	0	0	0
84	1	680	0	2	3	0.2488	0.0863	1	0	0.885	0	0	82
84	1	681	1	1	3	0.2488	0.0863	1	1	0.651	70	0	82
84	1	682	9	1	3	0.2488	0.0863	1	1	0.784	0	82	0
84	1	683	1	2	1	0.2488	0.0863	0	1	0.525	82	0	0
84	1	684	0	1	1	0.2488	0.0863	0	1	0.462	9	82	82
84	1	685	0	1	3	0.2488	0.0863	0	1	0.582	8	82	82
84	1	686	9	1	1	0.2488	0.0863	1	1	0.788	0	82	0
84	1	687	1	1	3	0.2488	0.0863	0	1	0.552	80	0	0
84	1	688	1	2	3	0.2488	0.0863	0	1	0.540	81	0	0
84	1	689	1	1	3	0.2488	0.0863	1	1	0.549	80	0	82
84	1	690	1	1	1	0.2488	0.0863	0	1	0.628	72	0	0
84	1	691	1	2	3	0.2488	0.0863	1	0	0.799	0	82	0
84	1	692	0	2	2	0.2488	0.0863	0	1	0.598	8	82	82
84	1	693	9	2	3	0.2488	0.0863	0	1	0.702	0	82	82
84	1	694	1	1	1	0.2488	0.0863	1	1	0.655	69	0	82
84	1	695	9	2	2	0.2488	0.0863	0	1	0.438	0	0	0
84	1	696	0	1	3	0.2488	0.0863	1	1	0.609	7	82	0
84	1	697	1	1	3	0.2488	0.0863	0	1	0.576	77	0	0
84	1	698	0	2	2	0.2488	0.0863	0	1	0.453	9	82	82
84	1	699	9	2	2	0.2488	0.0863	0	1	0.393	0	82	82
84	1	700	1	2	3	0.2488	0.0863	0	1	0.684	67	0	0
84	1	701	1	2	3	0.2488	0.0863	1	1	0.734	62	82	0
84	1	702	0	1	2	0.2488	0.0863	0	1	0.498	9	82	82
84	1	703	0	1	2	0.2488	0.0863	1	0	0.560	0	82	0
84	1	704	0	1	3	0.2488	0.0863	0	1	0.530	8	82	82
84	1	705	1	2	3	0.2488	0.0863	1	1	0.471	88	82	0
84	1	706	0	1	1	0.2488	0.0863	0	1	0.413	9	82	82
84	1	707	9	1	3	0.2488	0.0863	1	1	0.482	0	82	0
84	1	708	9	1	2	0.2488	0.0863	0	1	0.523	0	0	0
84	1	709	0	2	2	0.2488	0.0863	1	1	0.887	5	0	82
84	1	710	0	1	1	0.2488	0.0863	0	1	0.446	9	82	82
84	1	711	1	1	3	0.2488	0.0863	1	1	0.982	50	0	82
84	1	712	1	2	3	0.2488	0.0863	1	1	0.482	87	82	0
84	1	713	0	2	3	0.2488	0.0863	0	1	0.433	9	82	82
84	1	714	0	2	3	0.2488	0.0863	0	1	0.456	9	82	82
84	1	715	9	2	3	0.2488	0.0863	0	1	0.470	0	0	0
84	1	716	0	1	1	0.2488	0.0863	0	0	0.571	0	82	82
84	1	717	1	2	2	0.2488	0.0863	0	1	0.440	91	0	0
84	1	718	1	2	2	0.2488	0.0863	1	1	0.571	78	82	0
84	1	719	0	2	2	0.2488	0.0863	1	1	0.478	9	0	82
84	1	720	1	1	2	0.2488	0.0863	1	1	0.680	67	0	82
