sub	sess	t	rew	loc	cue	co1	co2	or	resp	rt	rew_tot	left_col	right_col
2	1	1	0	1	2	0.5096	0.3894	1	1	0.511	8	82	0
2	1	2	1	2	1	0.5096	0.3894	1	0	0.561	0	82	0
2	1	3	0	1	1	0.5096	0.3894	1	1	0.720	6	82	0
2	1	4	0	2	2	0.5096	0.3894	0	1	0.505	8	82	82
2	1	5	0	1	3	0.5096	0.3894	0	0	0.568	0	82	82
2	1	6	1	2	2	0.5096	0.3894	1	1	0.630	72	82	0
2	1	7	1	2	2	0.5096	0.3894	0	1	0.520	83	0	0
2	1	8	0	2	3	0.5096	0.3894	0	1	0.784	6	82	82
2	1	9	1	1	1	0.5096	0.3894	1	1	0.709	64	0	82
2	1	10	1	2	2	0.5096	0.3894	0	1	0.506	84	0	0
2	1	11	9	1	2	0.5096	0.3894	1	1	0.620	0	82	0
2	1	12	0	1	1	0.5096	0.3894	1	1	0.574	8	82	0
2	1	13	0	2	2	0.5096	0.3894	0	1	0.606	7	82	82
2	1	14	1	1	1	0.5096	0.3894	0	1	0.744	61	0	0
2	1	15	0	1	3	0.5096	0.3894	1	1	0.682	7	82	0
2	1	16	0	1	1	0.5096	0.3894	1	1	0.585	8	82	0
2	1	17	0	2	3	0.5096	0.3894	1	1	0.736	6	0	82
2	1	18	9	2	2	0.5096	0.3894	0	1	0.512	0	0	0
2	1	19	0	1	1	0.5096	0.3894	1	1	0.528	8	82	0
2	1	20	1	1	2	0.5096	0.3894	1	1	0.657	69	0	82
2	1	21	1	2	1	0.5096	0.3894	1	1	0.730	62	82	0
2	1	22	0	1	1	0.5096	0.3894	1	1	0.704	6	82	0
2	1	23	0	1	1	0.5096	0.3894	0	1	0.606	7	82	82
2	1	24	0	1	1	0.5096	0.3894	0	1	0.637	7	82	82
2	1	25	1	1	1	0.5096	0.3894	1	1	0.514	84	0	82
2	1	26	1	2	3	0.5096	0.3894	1	1	0.730	62	82	0
2	1	27	1	1	3	0.5096	0.3894	0	1	0.598	75	0	0
2	1	28	0	1	3	0.5096	0.3894	1	1	0.543	8	82	0
2	1	29	9	1	1	0.5096	0.3894	0	1	0.476	0	82	82
2	1	30	9	2	2	0.5096	0.3894	1	1	0.442	0	82	0
2	1	31	0	2	1	0.5096	0.3894	0	0	0.805	0	82	82
2	1	32	1	2	2	0.5096	0.3894	0	1	0.521	83	0	0
2	1	33	1	2	3	0.5096	0.3894	0	1	0.538	81	0	0
2	1	34	9	2	2	0.5096	0.3894	1	1	0.612	0	0	82
2	1	35	0	2	2	0.5096	0.3894	1	1	0.495	9	0	82
2	1	36	1	2	2	0.5096	0.3894	1	1	0.456	89	82	0
2	1	37	0	2	2	0.5096	0.3894	1	1	0.490	9	0	82
2	1	38	9	2	1	0.5096	0.3894	1	1	0.599	0	0	82
2	1	39	0	2	2	0.5096	0.3894	1	1	0.544	8	0	82
2	1	40	1	1	3	0.5096	0.3894	1	1	0.540	81	0	82
2	1	41	1	1	1	0.5096	0.3894	1	1	0.722	63	0	82
2	1	42	0	1	3	0.5096	0.3894	1	1	0.535	8	82	0
2	1	43	0	1	3	0.5096	0.3894	0	1	0.617	7	82	82
2	1	44	9	2	3	0.5096	0.3894	1	1	0.542	0	0	82
2	1	45	0	2	2	0.5096	0.3894	0	1	0.772	6	82	82
2	1	46	0	1	1	0.5096	0.3894	0	1	0.624	7	82	82
2	1	47	9	1	1	0.5096	0.3894	1	1	0.638	0	82	0
2	1	48	0	2	3	0.5096	0.3894	0	1	0.647	7	82	82
2	1	49	0	2	3	0.5096	0.3894	0	1	0.933	5	82	82
2	1	50	9	1	3	0.5096	0.3894	0	1	0.661	0	0	0
2	1	51	1	2	2	0.5096	0.3894	1	1	0.619	73	82	0
2	1	52	1	2	3	0.5096	0.3894	0	1	0.564	79	0	0
2	1	53	1	2	3	0.5096	0.3894	0	1	0.483	87	0	0
2	1	54	0	1	3	0.5096	0.3894	1	1	0.500	9	82	0
2	1	55	1	1	1	0.5096	0.3894	1	1	0.512	84	0	82
2	1	56	0	2	2	0.5096	0.3894	0	1	0.454	9	82	82
2	1	57	9	2	3	0.5096	0.3894	1	1	0.595	0	82	0
2	1	58	0	1	1	0.5096	0.3894	0	1	0.591	8	82	82
2	1	59	1	1	3	0.5096	0.3894	0	0	0.461	0	0	0
2	1	60	0	2	3	0.5096	0.3894	0	1	0.514	8	82	82
2	1	61	0	1	3	0.5096	0.3894	0	1	0.646	7	82	82
2	1	62	1	2	2	0.5096	0.3894	1	1	0.557	79	82	0
2	1	63	1	1	1	0.5096	0.3894	1	1	0.746	60	0	82
2	1	64	1	2	2	0.5096	0.3894	1	1	0.598	75	82	0
2	1	65	1	2	2	0.5096	0.3894	0	1	0.465	88	0	0
2	1	66	0	2	3	0.5096	0.3894	0	1	0.529	8	82	82
2	1	67	1	2	2	0.5096	0.3894	0	1	0.471	88	0	0
2	1	68	1	1	3	0.5096	0.3894	0	1	0.836	51	0	0
2	1	69	0	1	2	0.5096	0.3894	1	1	0.714	6	82	0
2	1	70	9	1	1	0.5096	0.3894	1	1	0.500	0	0	82
2	1	71	1	2	3	0.5096	0.3894	1	1	0.809	54	82	0
2	1	72	1	1	1	0.5096	0.3894	1	1	0.542	81	0	82
2	1	73	1	2	3	0.5096	0.3894	0	1	0.459	89	0	0
2	1	74	1	1	3	0.5096	0.3894	1	1	0.445	90	0	82
2	1	75	9	1	1	0.5096	0.3894	0	1	0.522	0	0	0
2	1	76	0	2	3	0.5096	0.3894	1	1	0.768	6	0	82
2	1	77	1	2	1	0.5096	0.3894	0	1	0.539	81	0	0
2	1	78	9	2	3	0.5096	0.3894	1	1	0.512	0	0	82
2	1	79	1	2	2	0.5096	0.3894	0	1	0.485	87	0	0
2	1	80	0	2	2	0.5096	0.3894	0	1	0.470	9	82	82
2	1	81	0	2	3	0.5096	0.3894	1	1	0.597	8	0	82
2	1	82	1	2	3	0.5096	0.3894	0	1	0.517	83	0	0
2	1	83	1	1	2	0.5096	0.3894	1	1	0.573	78	0	82
2	1	84	1	1	2	0.5096	0.3894	0	0	0.605	0	0	0
2	1	85	1	2	3	0.5096	0.3894	1	1	0.740	61	82	0
2	1	86	0	1	3	0.5096	0.3894	1	0	0.724	0	82	0
2	1	87	1	1	3	0.5096	0.3894	1	1	0.789	56	0	82
2	1	88	1	2	3	0.5096	0.3894	0	1	0.582	77	0	0
2	1	89	1	2	3	0.5096	0.3894	0	1	0.551	80	0	0
2	1	90	1	1	1	0.5096	0.3894	0	1	0.614	74	0	0
2	1	91	0	2	2	0.5096	0.3894	1	1	0.537	8	0	82
2	1	92	0	1	1	0.5096	0.3894	0	1	0.647	7	82	82
2	1	93	1	1	2	0.5096	0.3894	1	1	0.507	84	0	82
2	1	94	9	1	1	0.5096	0.3894	0	1	0.553	0	82	82
2	1	95	0	2	3	0.5096	0.3894	0	1	0.630	7	82	82
2	1	96	1	2	3	0.5096	0.3894	1	1	0.619	73	82	0
2	1	97	0	2	3	0.5096	0.3894	1	1	0.801	5	0	82
2	1	98	0	1	3	0.5096	0.3894	1	1	0.729	6	82	0
2	1	99	0	1	1	0.5096	0.3894	0	1	0.688	7	82	82
2	1	100	9	1	3	0.5096	0.3894	0	1	0.738	0	82	82
2	1	101	0	1	1	0.5096	0.3894	0	1	0.524	8	82	82
2	1	102	0	2	3	0.5096	0.3894	1	1	0.811	5	0	82
2	1	103	1	1	1	0.5096	0.3894	0	1	0.566	78	0	0
2	1	104	0	2	3	0.5096	0.3894	1	1	0.538	8	0	82
2	1	105	9	2	2	0.5096	0.3894	1	1	0.493	0	82	0
2	1	106	0	2	2	0.5096	0.3894	1	1	0.525	8	0	82
2	1	107	0	2	2	0.5096	0.3894	1	1	0.580	8	0	82
2	1	108	0	2	1	0.5096	0.3894	0	1	0.946	5	82	82
2	1	109	1	1	1	0.5096	0.3894	1	1	0.850	50	0	82
2	1	110	0	1	1	0.5096	0.3894	1	1	0.729	6	82	0
2	1	111	0	1	3	0.5096	0.3894	1	1	0.787	6	82	0
2	1	112	0	2	1	0.5096	0.3894	0	1	0.517	8	82	82
2	1	113	1	1	1	0.5096	0.3894	0	0	0.505	0	0	0
2	1	114	0	2	2	0.5096	0.3894	1	1	0.617	7	0	82
2	1	115	0	1	1	0.5096	0.3894	1	1	0.693	7	82	0
2	1	116	9	1	3	0.5096	0.3894	1	1	0.557	0	0	82
2	1	117	0	2	2	0.5096	0.3894	0	1	0.597	8	82	82
2	1	118	9	2	2	0.5096	0.3894	1	1	0.503	0	0	82
2	1	119	0	1	2	0.5096	0.3894	0	1	0.631	7	82	82
2	1	120	9	2	2	0.5096	0.3894	0	1	0.575	0	82	82
2	1	121	0	1	1	0.5096	0.3894	0	1	0.569	8	82	82
2	1	122	9	1	3	0.5096	0.3894	1	1	0.692	0	82	0
2	1	123	9	2	3	0.5096	0.3894	0	1	0.547	0	82	82
2	1	124	1	1	1	0.5096	0.3894	0	1	0.616	73	0	0
2	1	125	9	1	3	0.5096	0.3894	0	1	0.705	0	0	0
2	1	126	1	1	3	0.5096	0.3894	1	1	0.594	76	0	82
2	1	127	0	1	1	0.5096	0.3894	0	1	0.519	8	82	82
2	1	128	1	1	3	0.5096	0.3894	0	1	0.573	78	0	0
2	1	129	0	2	3	0.5096	0.3894	1	1	0.683	7	0	82
2	1	130	1	1	3	0.5096	0.3894	0	1	0.533	82	0	0
2	1	131	1	2	2	0.5096	0.3894	0	1	0.570	78	0	0
2	1	132	9	1	3	0.5096	0.3894	1	1	0.691	0	82	0
2	1	133	9	1	3	0.5096	0.3894	1	1	0.657	0	0	82
2	1	134	1	1	2	0.5096	0.3894	0	1	0.634	72	0	0
2	1	135	9	2	1	0.5096	0.3894	1	1	0.530	0	82	0
2	1	136	1	1	3	0.5096	0.3894	0	1	0.621	73	0	0
2	1	137	0	1	3	0.5096	0.3894	0	1	0.614	7	82	82
2	1	138	9	1	1	0.5096	0.3894	1	1	0.579	0	82	0
2	1	139	1	1	1	0.5096	0.3894	1	1	0.597	75	0	82
2	1	140	9	2	3	0.5096	0.3894	1	0	0.850	0	0	82
2	1	141	1	2	3	0.5096	0.3894	1	1	0.686	66	82	0
2	1	142	1	1	1	0.5096	0.3894	0	1	0.626	72	0	0
2	1	143	1	1	1	0.5096	0.3894	0	1	0.497	85	0	0
2	1	144	1	1	1	0.5096	0.3894	1	1	0.435	91	0	82
2	1	145	1	2	2	0.5096	0.3894	0	1	0.476	87	0	0
2	1	146	0	2	3	0.5096	0.3894	1	1	0.606	7	0	82
2	1	147	0	1	1	0.5096	0.3894	0	1	0.589	8	82	82
2	1	148	0	1	1	0.5096	0.3894	0	1	0.569	8	82	82
2	1	149	0	2	2	0.5096	0.3894	1	1	0.429	9	0	82
2	1	150	0	2	1	0.5096	0.3894	0	1	0.819	5	82	82
2	1	151	9	2	2	0.5096	0.3894	0	1	0.487	0	82	82
2	1	152	0	1	3	0.5096	0.3894	1	1	0.634	7	82	0
2	1	153	9	1	3	0.5096	0.3894	1	1	0.512	0	0	82
2	1	154	1	1	3	0.5096	0.3894	1	1	0.677	67	0	82
2	1	155	0	2	3	0.5096	0.3894	1	0	0.609	0	0	82
2	1	156	0	1	2	0.5096	0.3894	0	1	0.699	7	82	82
2	1	157	0	1	1	0.5096	0.3894	1	1	0.536	8	82	0
2	1	158	9	1	3	0.5096	0.3894	0	1	0.618	0	0	0
2	1	159	0	1	3	0.5096	0.3894	1	1	0.627	7	82	0
2	1	160	0	2	2	0.5096	0.3894	0	1	0.475	9	82	82
2	1	161	0	2	1	0.5096	0.3894	1	1	0.557	8	0	82
2	1	162	0	2	3	0.5096	0.3894	0	1	0.488	9	82	82
2	1	163	0	2	2	0.5096	0.3894	0	1	0.448	9	82	82
2	1	164	9	2	3	0.5096	0.3894	0	1	0.445	0	82	82
2	1	165	0	2	3	0.5096	0.3894	0	1	0.402	9	82	82
2	1	166	9	2	1	0.5096	0.3894	0	1	0.421	0	82	82
2	1	167	1	1	3	0.5096	0.3894	1	1	0.461	89	0	82
2	1	168	1	2	3	0.5096	0.3894	0	1	0.480	87	0	0
2	1	169	1	1	1	0.5096	0.3894	0	1	0.920	50	0	0
2	1	170	1	1	3	0.5096	0.3894	1	1	0.634	72	0	82
2	1	171	0	2	3	0.5096	0.3894	1	1	0.688	7	0	82
2	1	172	1	2	3	0.5096	0.3894	0	1	0.466	88	0	0
2	1	173	1	1	1	0.5096	0.3894	1	1	0.431	92	0	82
2	1	174	1	1	1	0.5096	0.3894	1	1	0.467	88	0	82
2	1	175	1	2	3	0.5096	0.3894	1	0	0.500	0	82	0
2	1	176	9	1	2	0.5096	0.3894	0	1	0.686	0	0	0
2	1	177	9	2	2	0.5096	0.3894	0	1	0.598	0	82	82
2	1	178	1	2	1	0.5096	0.3894	1	1	0.622	73	82	0
2	1	179	1	2	2	0.5096	0.3894	1	1	0.607	74	82	0
2	1	180	0	1	1	0.5096	0.3894	1	1	0.792	6	82	0
2	1	181	0	2	3	0.5096	0.3894	1	1	0.526	8	0	82
2	1	182	9	1	2	0.5096	0.3894	1	1	0.553	0	0	82
2	1	183	1	2	2	0.5096	0.3894	0	1	0.447	90	0	0
2	1	184	0	2	2	0.5096	0.3894	1	1	0.497	9	0	82
2	1	185	0	2	3	0.5096	0.3894	1	1	0.520	8	0	82
2	1	186	0	2	1	0.5096	0.3894	1	1	0.414	9	0	82
2	1	187	0	1	3	0.5096	0.3894	0	1	0.695	7	82	82
2	1	188	0	2	3	0.5096	0.3894	1	1	0.502	8	0	82
2	1	189	1	1	3	0.5096	0.3894	1	1	0.483	87	0	82
2	1	190	1	2	3	0.5096	0.3894	1	1	0.640	71	82	0
2	1	191	0	2	3	0.5096	0.3894	0	1	0.483	9	82	82
2	1	192	1	1	3	0.5096	0.3894	0	0	0.418	0	0	0
2	1	193	0	1	3	0.5096	0.3894	1	1	0.515	8	82	0
2	1	194	1	2	2	0.5096	0.3894	0	1	0.581	77	0	0
2	1	195	0	2	2	0.5096	0.3894	1	1	0.479	9	0	82
2	1	196	0	2	2	0.5096	0.3894	0	1	0.543	8	82	82
2	1	197	9	1	1	0.5096	0.3894	0	0	0.508	0	0	0
2	1	198	1	1	3	0.5096	0.3894	1	1	1.212	50	0	82
2	1	199	0	2	1	0.5096	0.3894	1	1	0.673	7	0	82
2	1	200	9	2	2	0.5096	0.3894	0	1	0.465	0	0	0
2	1	201	9	2	3	0.5096	0.3894	0	1	0.524	0	0	0
2	1	202	1	2	3	0.5096	0.3894	1	1	0.542	81	82	0
2	1	203	1	2	3	0.5096	0.3894	1	1	0.648	70	82	0
2	1	204	1	2	2	0.5096	0.3894	0	1	0.402	95	0	0
2	1	205	0	1	1	0.5096	0.3894	0	0	0.452	0	82	82
2	1	206	1	2	2	0.5096	0.3894	0	1	0.478	87	0	0
2	1	207	1	1	3	0.5096	0.3894	1	1	0.622	73	0	82
2	1	208	1	1	3	0.5096	0.3894	0	0	0.445	0	0	0
2	1	209	0	1	3	0.5096	0.3894	1	1	0.599	8	82	0
2	1	210	1	1	1	0.5096	0.3894	0	1	0.575	77	0	0
2	1	211	0	2	1	0.5096	0.3894	1	1	0.791	6	0	82
2	1	212	1	1	3	0.5096	0.3894	0	1	0.492	86	0	0
2	1	213	0	2	2	0.5096	0.3894	1	1	0.619	7	0	82
2	1	214	1	1	3	0.5096	0.3894	1	1	0.578	77	0	82
2	1	215	1	2	2	0.5096	0.3894	1	1	0.615	73	82	0
2	1	216	0	1	3	0.5096	0.3894	0	0	0.449	0	82	82
2	1	217	1	1	1	0.5096	0.3894	0	1	0.674	68	0	0
2	1	218	9	1	3	0.5096	0.3894	1	1	0.619	0	82	0
2	1	219	1	1	1	0.5096	0.3894	0	1	0.535	82	0	0
2	1	220	9	2	2	0.5096	0.3894	0	1	0.544	0	82	82
2	1	221	9	1	1	0.5096	0.3894	1	1	0.557	0	0	82
2	1	222	0	1	1	0.5096	0.3894	1	1	0.474	9	82	0
2	1	223	0	2	2	0.5096	0.3894	0	1	0.437	9	82	82
2	1	224	0	1	3	0.5096	0.3894	1	1	0.466	9	82	0
2	1	225	1	2	2	0.5096	0.3894	0	1	0.373	98	0	0
2	1	226	9	1	1	0.5096	0.3894	0	1	0.495	0	0	0
2	1	227	1	1	1	0.5096	0.3894	0	1	0.536	81	0	0
2	1	228	0	1	3	0.5096	0.3894	1	1	0.596	8	82	0
2	1	229	1	2	3	0.5096	0.3894	0	1	0.592	76	0	0
2	1	230	0	1	1	0.5096	0.3894	0	1	0.676	7	82	82
2	1	231	9	2	3	0.5096	0.3894	1	1	0.575	0	82	0
2	1	232	1	2	3	0.5096	0.3894	1	1	0.492	86	82	0
2	1	233	0	2	2	0.5096	0.3894	0	1	0.563	8	82	82
2	1	234	0	2	3	0.5096	0.3894	0	1	0.584	8	82	82
2	1	235	1	2	2	0.5096	0.3894	1	1	0.566	78	82	0
2	1	236	9	1	2	0.5096	0.3894	0	1	0.650	0	82	82
2	1	237	1	1	1	0.5096	0.3894	0	0	0.514	0	0	0
2	1	238	9	1	1	0.5096	0.3894	1	1	1.118	0	82	0
2	1	239	9	1	3	0.5096	0.3894	1	1	0.670	0	0	82
2	1	240	1	1	3	0.5096	0.3894	0	1	0.617	73	0	0
2	1	241	1	2	2	0.5096	0.3894	0	1	0.599	75	0	0
2	1	242	1	2	3	0.5096	0.3894	0	1	0.582	77	0	0
2	1	243	0	1	1	0.5096	0.3894	0	1	0.653	7	82	82
2	1	244	1	2	2	0.5096	0.3894	0	1	0.482	87	0	0
2	1	245	9	2	3	0.5096	0.3894	0	1	0.646	0	0	0
2	1	246	0	1	1	0.5096	0.3894	0	1	0.643	7	82	82
2	1	247	9	2	3	0.5096	0.3894	0	1	0.559	0	0	0
2	1	248	1	1	1	0.5096	0.3894	0	1	0.739	61	0	0
2	1	249	9	2	2	0.5096	0.3894	0	1	0.474	0	0	0
2	1	250	0	2	3	0.5096	0.3894	1	1	0.605	7	0	82
2	1	251	0	2	3	0.5096	0.3894	1	1	0.672	7	0	82
2	1	252	1	1	2	0.5096	0.3894	0	1	0.708	64	0	0
2	1	253	1	1	3	0.5096	0.3894	0	1	0.764	59	0	0
2	1	254	0	1	3	0.5096	0.3894	0	1	0.751	6	82	82
2	1	255	1	2	1	0.5096	0.3894	0	0	0.577	0	0	0
2	1	256	1	2	3	0.5096	0.3894	0	1	0.558	79	0	0
2	1	257	0	1	3	0.5096	0.3894	1	1	0.833	5	82	0
2	1	258	9	2	3	0.5096	0.3894	0	1	0.544	0	0	0
2	1	259	0	1	3	0.5096	0.3894	0	1	0.642	7	82	82
2	1	260	1	2	3	0.5096	0.3894	0	1	0.507	84	0	0
2	1	261	1	2	1	0.5096	0.3894	0	1	0.477	87	0	0
2	1	262	1	2	3	0.5096	0.3894	0	1	0.475	88	0	0
2	1	263	9	1	3	0.5096	0.3894	0	1	0.744	0	82	82
2	1	264	0	2	3	0.5096	0.3894	0	1	0.440	9	82	82
2	1	265	0	2	3	0.5096	0.3894	0	1	0.468	9	82	82
2	1	266	0	1	1	0.5096	0.3894	1	1	0.557	8	82	0
2	1	267	1	1	3	0.5096	0.3894	1	1	0.879	50	0	82
2	1	268	1	1	1	0.5096	0.3894	1	1	0.604	75	0	82
2	1	269	1	1	3	0.5096	0.3894	0	1	0.786	56	0	0
2	1	270	0	1	3	0.5096	0.3894	0	1	0.734	6	82	82
2	1	271	0	1	3	0.5096	0.3894	0	1	0.446	9	82	82
2	1	272	9	2	1	0.5096	0.3894	0	1	0.498	0	0	0
2	1	273	0	2	3	0.5096	0.3894	0	1	0.479	9	82	82
2	1	274	0	1	3	0.5096	0.3894	1	1	0.514	8	82	0
2	1	275	0	2	2	0.5096	0.3894	0	1	0.442	9	82	82
2	1	276	1	2	2	0.5096	0.3894	1	1	0.486	86	82	0
2	1	277	0	2	2	0.5096	0.3894	0	1	0.460	9	82	82
2	1	278	0	1	1	0.5096	0.3894	1	1	0.575	8	82	0
2	1	279	0	1	1	0.5096	0.3894	1	1	0.564	8	82	0
2	1	280	1	2	2	0.5096	0.3894	1	1	0.464	89	82	0
2	1	281	1	1	2	0.5096	0.3894	0	1	0.577	77	0	0
2	1	282	9	2	2	0.5096	0.3894	0	1	0.418	0	0	0
2	1	283	0	2	2	0.5096	0.3894	0	1	0.381	10	82	82
2	1	284	1	2	3	0.5096	0.3894	1	1	0.485	86	82	0
2	1	285	1	2	2	0.5096	0.3894	1	1	0.479	87	82	0
2	1	286	0	1	3	0.5096	0.3894	0	0	0.531	0	82	82
2	1	287	1	1	3	0.5096	0.3894	0	0	0.508	0	0	0
2	1	288	1	2	2	0.5096	0.3894	1	1	0.618	73	82	0
2	1	289	1	1	3	0.5096	0.3894	0	1	0.560	79	0	0
2	1	290	0	2	2	0.5096	0.3894	0	1	0.515	8	82	82
2	1	291	0	1	3	0.5096	0.3894	0	1	0.556	8	82	82
2	1	292	1	2	3	0.5096	0.3894	1	1	0.721	63	82	0
2	1	293	1	2	3	0.5096	0.3894	0	1	0.440	91	0	0
2	1	294	9	1	1	0.5096	0.3894	1	1	0.671	0	0	82
2	1	295	1	1	3	0.5096	0.3894	0	1	0.526	82	0	0
2	1	296	0	2	2	0.5096	0.3894	1	1	0.567	8	0	82
2	1	297	1	2	3	0.5096	0.3894	1	1	0.643	71	82	0
2	1	298	1	2	2	0.5096	0.3894	1	1	0.537	81	82	0
2	1	299	1	1	1	0.5096	0.3894	1	1	0.688	66	0	82
2	1	300	9	1	1	0.5096	0.3894	0	1	0.524	0	82	82
2	1	301	9	2	3	0.5096	0.3894	0	1	0.573	0	82	82
2	1	302	0	1	2	0.5096	0.3894	0	1	0.867	5	82	82
2	1	303	0	2	2	0.5096	0.3894	1	1	0.497	9	0	82
2	1	304	1	1	3	0.5096	0.3894	1	0	0.523	0	0	82
2	1	305	0	1	2	0.5096	0.3894	1	1	0.757	6	82	0
2	1	306	9	2	3	0.5096	0.3894	1	1	0.658	0	0	82
2	1	307	0	1	3	0.5096	0.3894	1	1	0.530	8	82	0
2	1	308	0	2	2	0.5096	0.3894	1	1	0.515	8	0	82
2	1	309	9	1	3	0.5096	0.3894	0	1	0.562	0	0	0
2	1	310	1	1	3	0.5096	0.3894	0	1	0.524	83	0	0
2	1	311	1	2	3	0.5096	0.3894	1	1	0.500	85	82	0
2	1	312	9	1	1	0.5096	0.3894	1	1	0.689	0	82	0
2	1	313	0	1	3	0.5096	0.3894	0	1	0.727	6	82	82
2	1	314	0	1	3	0.5096	0.3894	0	1	0.529	8	82	82
2	1	315	1	2	1	0.5096	0.3894	1	1	0.549	80	82	0
2	1	316	1	2	2	0.5096	0.3894	1	1	0.465	88	82	0
2	1	317	9	1	1	0.5096	0.3894	0	1	0.609	0	82	82
2	1	318	0	1	1	0.5096	0.3894	0	1	0.571	8	82	82
2	1	319	0	1	1	0.5096	0.3894	1	1	0.469	9	82	0
2	1	320	9	1	3	0.5096	0.3894	0	1	0.494	0	82	82
2	1	321	0	1	3	0.5096	0.3894	0	1	0.602	7	82	82
2	1	322	9	2	2	0.5096	0.3894	1	1	0.491	0	0	82
2	1	323	1	1	1	0.5096	0.3894	1	1	0.529	82	0	82
2	1	324	1	1	2	0.5096	0.3894	1	0	0.514	0	0	82
2	1	325	9	2	2	0.5096	0.3894	1	1	0.448	0	0	82
2	1	326	1	2	3	0.5096	0.3894	1	1	0.502	85	82	0
2	1	327	0	1	2	0.5096	0.3894	1	0	0.531	0	82	0
2	1	328	0	2	3	0.5096	0.3894	1	1	0.915	5	0	82
2	1	329	9	1	3	0.5096	0.3894	0	1	0.708	0	82	82
2	1	330	0	1	1	0.5096	0.3894	1	1	0.670	7	82	0
2	1	331	0	2	2	0.5096	0.3894	1	1	0.471	9	0	82
2	1	332	9	1	3	0.5096	0.3894	1	1	0.516	0	82	0
2	1	333	0	1	1	0.5096	0.3894	1	1	0.472	9	82	0
2	1	334	9	2	3	0.5096	0.3894	1	1	0.626	0	82	0
2	1	335	1	2	2	0.5096	0.3894	1	1	0.451	90	82	0
2	1	336	1	1	1	0.5096	0.3894	1	1	0.504	85	0	82
2	1	337	1	2	2	0.5096	0.3894	1	1	0.451	90	82	0
2	1	338	1	1	1	0.5096	0.3894	1	1	0.493	86	0	82
2	1	339	9	1	1	0.5096	0.3894	0	1	0.553	0	0	0
2	1	340	1	2	3	0.5096	0.3894	0	1	0.548	80	0	0
2	1	341	0	2	2	0.5096	0.3894	0	1	0.459	9	82	82
2	1	342	0	2	2	0.5096	0.3894	1	1	0.458	9	0	82
2	1	343	0	2	3	0.5096	0.3894	0	1	0.467	9	82	82
2	1	344	0	2	3	0.5096	0.3894	0	1	0.464	9	82	82
2	1	345	9	2	3	0.5096	0.3894	0	1	0.477	0	82	82
2	1	346	1	2	3	0.5096	0.3894	1	1	0.459	89	82	0
2	1	347	0	1	3	0.5096	0.3894	0	1	0.760	6	82	82
2	1	348	9	1	1	0.5096	0.3894	1	1	0.558	0	0	82
2	1	349	1	1	3	0.5096	0.3894	1	1	0.611	74	0	82
2	1	350	1	1	3	0.5096	0.3894	1	1	1.075	50	0	82
2	1	351	1	2	1	0.5096	0.3894	0	1	0.465	89	0	0
2	1	352	0	2	3	0.5096	0.3894	0	1	0.493	9	82	82
2	1	353	1	1	1	0.5096	0.3894	0	0	0.437	0	0	0
2	1	354	9	2	3	0.5096	0.3894	1	1	0.664	0	82	0
2	1	355	9	2	2	0.5096	0.3894	1	1	0.475	0	82	0
2	1	356	9	2	2	0.5096	0.3894	1	1	0.391	0	82	0
2	1	357	0	1	2	0.5096	0.3894	0	1	0.550	8	82	82
2	1	358	1	1	1	0.5096	0.3894	0	1	0.574	78	0	0
2	1	359	1	1	3	0.5096	0.3894	1	1	0.600	75	0	82
2	1	360	1	2	2	0.5096	0.3894	0	1	0.619	73	0	0
2	1	361	0	1	3	0.5096	0.3894	1	1	0.462	9	82	0
2	1	362	1	2	3	0.5096	0.3894	1	1	0.599	75	82	0
2	1	363	0	2	2	0.5096	0.3894	0	1	0.443	9	82	82
2	1	364	9	1	2	0.5096	0.3894	0	0	0.452	0	0	0
2	1	365	0	2	3	0.5096	0.3894	0	1	0.528	8	82	82
2	1	366	1	1	1	0.5096	0.3894	0	0	0.543	0	0	0
2	1	367	0	1	3	0.5096	0.3894	1	1	0.595	8	82	0
2	1	368	0	2	3	0.5096	0.3894	0	1	0.467	9	82	82
2	1	369	9	1	3	0.5096	0.3894	0	1	0.586	0	82	82
2	1	370	0	2	3	0.5096	0.3894	1	1	0.667	7	0	82
2	1	371	9	1	3	0.5096	0.3894	0	1	0.547	0	0	0
2	1	372	1	2	3	0.5096	0.3894	0	1	0.520	83	0	0
2	1	373	1	1	3	0.5096	0.3894	1	1	0.535	81	0	82
2	1	374	1	1	1	0.5096	0.3894	1	1	0.502	85	0	82
2	1	375	0	1	1	0.5096	0.3894	1	1	0.480	9	82	0
2	1	376	0	2	3	0.5096	0.3894	0	1	0.511	8	82	82
2	1	377	9	2	2	0.5096	0.3894	1	1	0.599	0	82	0
2	1	378	0	1	1	0.5096	0.3894	1	1	0.794	6	82	0
2	1	379	0	1	2	0.5096	0.3894	1	1	0.707	6	82	0
2	1	380	0	2	2	0.5096	0.3894	1	1	0.602	7	0	82
2	1	381	1	2	2	0.5096	0.3894	0	1	0.541	81	0	0
2	1	382	0	1	1	0.5096	0.3894	1	1	0.461	9	82	0
2	1	383	1	1	3	0.5096	0.3894	0	1	0.584	77	0	0
2	1	384	0	2	1	0.5096	0.3894	1	1	0.775	6	0	82
2	1	385	1	1	3	0.5096	0.3894	0	1	0.614	74	0	0
2	1	386	0	2	2	0.5096	0.3894	1	1	0.418	9	0	82
2	1	387	1	1	3	0.5096	0.3894	0	1	0.547	80	0	0
2	1	388	0	2	2	0.5096	0.3894	1	1	0.420	9	0	82
2	1	389	0	1	3	0.5096	0.3894	1	1	0.750	6	82	0
2	1	390	0	2	2	0.5096	0.3894	1	1	0.515	8	0	82
2	1	391	9	2	2	0.5096	0.3894	1	1	0.493	0	0	82
2	1	392	0	1	1	0.5096	0.3894	1	1	0.878	5	82	0
2	1	393	9	2	2	0.5096	0.3894	0	1	0.521	0	82	82
2	1	394	1	2	2	0.5096	0.3894	1	1	0.450	90	82	0
2	1	395	1	2	3	0.5096	0.3894	0	1	0.478	87	0	0
2	1	396	9	2	3	0.5096	0.3894	1	1	0.462	0	82	0
2	1	397	1	2	3	0.5096	0.3894	0	1	0.471	88	0	0
2	1	398	1	1	1	0.5096	0.3894	0	0	0.474	0	0	0
2	1	399	1	2	2	0.5096	0.3894	0	1	0.480	87	0	0
2	1	400	1	1	3	0.5096	0.3894	1	1	0.571	78	0	82
2	1	401	9	1	3	0.5096	0.3894	1	1	0.745	0	82	0
2	1	402	1	1	1	0.5096	0.3894	0	1	0.626	72	0	0
2	1	403	1	2	3	0.5096	0.3894	0	1	0.526	82	0	0
2	1	404	9	1	1	0.5096	0.3894	0	1	0.503	0	0	0
2	1	405	1	2	3	0.5096	0.3894	1	1	0.720	63	82	0
2	1	406	1	2	1	0.5096	0.3894	1	1	0.502	85	82	0
2	1	407	0	2	2	0.5096	0.3894	1	1	0.504	8	0	82
2	1	408	0	2	3	0.5096	0.3894	0	1	0.451	9	82	82
2	1	409	0	2	2	0.5096	0.3894	0	1	0.480	9	82	82
2	1	410	9	1	1	0.5096	0.3894	0	0	0.487	0	0	0
2	1	411	9	2	3	0.5096	0.3894	1	1	0.659	0	0	82
2	1	412	1	2	3	0.5096	0.3894	1	1	0.590	76	82	0
2	1	413	1	1	1	0.5096	0.3894	0	1	0.793	56	0	0
2	1	414	1	2	2	0.5096	0.3894	0	1	0.529	82	0	0
2	1	415	9	1	3	0.5096	0.3894	0	0	0.806	0	82	82
2	1	416	9	2	2	0.5096	0.3894	0	1	0.765	0	82	82
2	1	417	1	1	3	0.5096	0.3894	1	1	0.634	72	0	82
2	1	418	1	2	2	0.5096	0.3894	1	1	0.922	50	82	0
2	1	419	9	2	2	0.5096	0.3894	1	1	0.743	0	82	0
2	1	420	9	2	2	0.5096	0.3894	1	1	0.681	0	0	82
2	1	421	9	2	2	0.5096	0.3894	0	1	0.490	0	0	0
2	1	422	1	2	2	0.5096	0.3894	1	1	0.603	75	82	0
2	1	423	9	1	3	0.5096	0.3894	1	1	0.727	0	82	0
2	1	424	1	1	1	0.5096	0.3894	1	1	0.453	90	0	82
2	1	425	1	1	3	0.5096	0.3894	0	1	0.989	50	0	0
2	1	426	0	2	1	0.5096	0.3894	1	1	1.016	5	0	82
2	1	427	1	2	2	0.5096	0.3894	0	1	0.505	84	0	0
2	1	428	0	2	1	0.5096	0.3894	0	1	0.525	8	82	82
2	1	429	1	2	2	0.5096	0.3894	1	1	0.533	82	82	0
2	1	430	0	2	3	0.5096	0.3894	1	1	0.635	7	0	82
2	1	431	1	1	3	0.5096	0.3894	1	1	0.524	83	0	82
2	1	432	1	2	1	0.5096	0.3894	0	1	0.488	86	0	0
2	1	433	0	1	1	0.5096	0.3894	0	1	0.739	6	82	82
2	1	434	9	1	3	0.5096	0.3894	1	1	0.494	0	82	0
2	1	435	9	2	2	0.5096	0.3894	1	1	0.554	0	82	0
2	1	436	1	1	3	0.5096	0.3894	0	1	0.630	72	0	0
2	1	437	1	2	2	0.5096	0.3894	1	1	0.433	92	82	0
2	1	438	0	1	1	0.5096	0.3894	0	1	0.657	7	82	82
2	1	439	9	1	3	0.5096	0.3894	0	1	0.570	0	0	0
2	1	440	9	1	3	0.5096	0.3894	0	1	0.627	0	0	0
2	1	441	0	1	3	0.5096	0.3894	0	1	0.588	8	82	82
2	1	442	9	2	2	0.5096	0.3894	0	1	0.565	0	0	0
2	1	443	0	2	2	0.5096	0.3894	0	1	0.464	9	82	82
2	1	444	9	1	2	0.5096	0.3894	1	1	0.537	0	82	0
2	1	445	0	1	3	0.5096	0.3894	0	1	0.545	8	82	82
2	1	446	0	2	3	0.5096	0.3894	1	0	0.632	0	0	82
2	1	447	1	2	2	0.5096	0.3894	1	1	0.730	62	82	0
2	1	448	9	1	3	0.5096	0.3894	1	1	0.519	0	0	82
2	1	449	1	2	2	0.5096	0.3894	0	1	0.495	86	0	0
2	1	450	1	2	3	0.5096	0.3894	1	1	0.541	81	82	0
2	1	451	9	2	2	0.5096	0.3894	0	1	0.795	0	0	0
2	1	452	0	1	3	0.5096	0.3894	1	1	0.508	8	82	0
2	1	453	0	2	3	0.5096	0.3894	1	1	0.484	9	0	82
2	1	454	1	1	1	0.5096	0.3894	0	0	0.491	0	0	0
2	1	455	1	2	3	0.5096	0.3894	0	1	0.487	86	0	0
2	1	456	1	2	2	0.5096	0.3894	1	1	0.503	85	82	0
2	1	457	9	2	1	0.5096	0.3894	0	1	0.763	0	82	82
2	1	458	0	2	3	0.5096	0.3894	0	1	0.529	8	82	82
2	1	459	0	1	3	0.5096	0.3894	0	0	0.490	0	82	82
2	1	460	9	2	3	0.5096	0.3894	0	1	0.612	0	0	0
2	1	461	1	2	2	0.5096	0.3894	0	1	0.462	89	0	0
2	1	462	0	2	2	0.5096	0.3894	0	1	0.445	9	82	82
2	1	463	9	1	3	0.5096	0.3894	0	1	0.704	0	82	82
2	1	464	0	1	1	0.5096	0.3894	1	1	0.582	8	82	0
2	1	465	0	1	3	0.5096	0.3894	1	1	0.567	8	82	0
2	1	466	9	1	1	0.5096	0.3894	1	1	0.493	0	82	0
2	1	467	1	1	1	0.5096	0.3894	1	1	0.457	89	0	82
2	1	468	0	2	3	0.5096	0.3894	1	0	0.590	0	0	82
2	1	469	0	2	3	0.5096	0.3894	1	1	0.763	6	0	82
2	1	470	9	2	3	0.5096	0.3894	0	1	0.628	0	0	0
2	1	471	0	2	2	0.5096	0.3894	0	1	0.596	8	82	82
2	1	472	0	1	3	0.5096	0.3894	1	1	0.548	8	82	0
2	1	473	0	2	1	0.5096	0.3894	1	1	0.555	8	0	82
2	1	474	1	2	3	0.5096	0.3894	1	1	0.547	80	82	0
2	1	475	9	2	3	0.5096	0.3894	0	1	0.711	0	0	0
2	1	476	0	1	3	0.5096	0.3894	1	1	0.515	8	82	0
2	1	477	0	1	1	0.5096	0.3894	1	1	0.659	7	82	0
2	1	478	1	2	3	0.5096	0.3894	0	1	0.521	83	0	0
2	1	479	0	1	1	0.5096	0.3894	0	1	0.746	6	82	82
2	1	480	0	2	3	0.5096	0.3894	1	1	0.640	7	0	82
2	1	481	1	2	2	0.5096	0.3894	1	1	0.501	85	82	0
2	1	482	9	1	2	0.5096	0.3894	0	0	0.411	0	82	82
2	1	483	0	1	1	0.5096	0.3894	0	1	0.536	8	82	82
2	1	484	1	1	3	0.5096	0.3894	0	1	0.597	75	0	0
2	1	485	0	2	2	0.5096	0.3894	1	1	0.553	8	0	82
2	1	486	1	1	1	0.5096	0.3894	0	1	0.590	76	0	0
2	1	487	9	1	1	0.5096	0.3894	1	1	0.739	0	82	0
2	1	488	0	1	1	0.5096	0.3894	1	1	0.481	9	82	0
2	1	489	0	2	2	0.5096	0.3894	1	1	0.734	6	0	82
2	1	490	9	2	2	0.5096	0.3894	1	1	0.471	0	82	0
2	1	491	1	1	1	0.5096	0.3894	1	0	0.632	0	0	82
2	1	492	1	2	1	0.5096	0.3894	0	1	0.559	79	0	0
2	1	493	1	2	1	0.5096	0.3894	1	1	0.619	73	82	0
2	1	494	0	2	3	0.5096	0.3894	1	1	0.604	7	0	82
2	1	495	1	2	2	0.5096	0.3894	0	1	0.478	87	0	0
2	1	496	1	1	3	0.5096	0.3894	1	1	0.867	50	0	82
2	1	497	9	1	1	0.5096	0.3894	0	1	0.630	0	82	82
2	1	498	1	2	2	0.5096	0.3894	1	1	0.504	85	82	0
2	1	499	9	1	1	0.5096	0.3894	1	1	0.598	0	82	0
2	1	500	0	2	2	0.5096	0.3894	0	1	0.517	8	82	82
2	1	501	0	1	1	0.5096	0.3894	0	1	0.650	7	82	82
2	1	502	1	2	3	0.5096	0.3894	1	1	0.574	78	82	0
2	1	503	0	1	3	0.5096	0.3894	0	1	0.547	8	82	82
2	1	504	0	1	1	0.5096	0.3894	0	1	0.458	9	82	82
2	1	505	0	2	3	0.5096	0.3894	1	1	0.508	8	0	82
2	1	506	1	2	3	0.5096	0.3894	1	1	0.541	81	82	0
2	1	507	1	1	3	0.5096	0.3894	0	1	0.569	78	0	0
2	1	508	1	1	2	0.5096	0.3894	0	0	0.365	0	0	0
2	1	509	0	1	1	0.5096	0.3894	0	1	0.851	5	82	82
2	1	510	1	1	3	0.5096	0.3894	1	1	0.713	64	0	82
2	1	511	1	2	2	0.5096	0.3894	0	1	0.495	85	0	0
2	1	512	9	2	2	0.5096	0.3894	1	1	0.464	0	0	82
2	1	513	1	2	3	0.5096	0.3894	1	1	0.372	98	82	0
2	1	514	1	2	2	0.5096	0.3894	0	1	0.416	93	0	0
2	1	515	9	2	1	0.5096	0.3894	1	1	0.457	0	82	0
2	1	516	0	1	3	0.5096	0.3894	0	1	0.620	7	82	82
2	1	517	0	2	3	0.5096	0.3894	0	1	0.976	5	82	82
2	1	518	0	1	2	0.5096	0.3894	1	1	0.497	9	82	0
2	1	519	9	2	3	0.5096	0.3894	0	1	0.497	0	82	82
2	1	520	1	1	3	0.5096	0.3894	0	0	0.466	0	0	0
2	1	521	1	2	3	0.5096	0.3894	0	1	0.608	74	0	0
2	1	522	0	1	1	0.5096	0.3894	1	1	0.645	7	82	0
2	1	523	1	2	1	0.5096	0.3894	1	0	0.816	0	82	0
2	1	524	1	1	3	0.5096	0.3894	0	1	0.633	72	0	0
2	1	525	1	1	3	0.5096	0.3894	1	1	0.657	69	0	82
2	1	526	0	2	3	0.5096	0.3894	0	1	0.506	8	82	82
2	1	527	1	2	3	0.5096	0.3894	1	1	0.521	83	82	0
2	1	528	0	1	3	0.5096	0.3894	0	1	0.618	7	82	82
2	1	529	9	1	3	0.5096	0.3894	1	1	0.520	0	0	82
2	1	530	1	2	3	0.5096	0.3894	0	1	0.563	79	0	0
2	1	531	0	2	2	0.5096	0.3894	1	1	0.591	8	0	82
2	1	532	0	1	3	0.5096	0.3894	0	1	0.554	8	82	82
2	1	533	1	1	3	0.5096	0.3894	1	1	0.469	88	0	82
2	1	534	0	1	3	0.5096	0.3894	0	1	0.496	9	82	82
2	1	535	1	1	1	0.5096	0.3894	0	1	0.575	77	0	0
2	1	536	1	2	3	0.5096	0.3894	0	1	0.748	60	0	0
2	1	537	9	1	2	0.5096	0.3894	1	1	0.476	0	0	82
2	1	538	0	2	2	0.5096	0.3894	1	0	0.604	0	0	82
2	1	539	9	2	3	0.5096	0.3894	0	1	0.531	0	82	82
2	1	540	1	1	1	0.5096	0.3894	1	1	0.527	82	0	82
2	1	541	1	1	2	0.5096	0.3894	0	1	0.584	77	0	0
2	1	542	0	1	3	0.5096	0.3894	1	1	0.645	7	82	0
2	1	543	1	1	3	0.5096	0.3894	0	1	0.466	88	0	0
2	1	544	0	2	2	0.5096	0.3894	1	1	0.489	9	0	82
2	1	545	9	1	1	0.5096	0.3894	0	1	0.481	0	82	82
2	1	546	0	1	1	0.5096	0.3894	1	0	0.525	0	82	0
2	1	547	0	2	2	0.5096	0.3894	0	1	0.466	9	82	82
2	1	548	0	2	2	0.5096	0.3894	1	1	0.527	8	0	82
2	1	549	0	2	2	0.5096	0.3894	0	1	0.496	9	82	82
2	1	550	0	1	3	0.5096	0.3894	1	1	0.466	9	82	0
2	1	551	9	2	2	0.5096	0.3894	0	1	0.468	0	82	82
2	1	552	1	2	2	0.5096	0.3894	0	1	0.419	93	0	0
2	1	553	0	2	2	0.5096	0.3894	1	1	0.497	9	0	82
2	1	554	1	1	3	0.5096	0.3894	0	0	0.506	0	0	0
2	1	555	0	2	3	0.5096	0.3894	0	1	0.469	9	82	82
2	1	556	0	1	1	0.5096	0.3894	1	1	0.428	9	82	0
2	1	557	9	2	1	0.5096	0.3894	1	1	0.740	0	0	82
2	1	558	1	2	2	0.5096	0.3894	1	1	0.565	79	82	0
2	1	559	0	2	2	0.5096	0.3894	1	1	0.489	9	0	82
2	1	560	0	1	2	0.5096	0.3894	0	1	0.640	7	82	82
2	1	561	1	1	3	0.5096	0.3894	1	1	0.502	85	0	82
2	1	562	1	1	1	0.5096	0.3894	0	0	0.460	0	0	0
2	1	563	1	2	2	0.5096	0.3894	0	1	0.501	85	0	0
2	1	564	9	2	2	0.5096	0.3894	1	1	0.804	0	0	82
2	1	565	0	1	1	0.5096	0.3894	1	1	0.563	8	82	0
2	1	566	0	1	1	0.5096	0.3894	1	1	0.572	8	82	0
2	1	567	1	2	3	0.5096	0.3894	1	1	0.677	67	82	0
2	1	568	9	1	1	0.5096	0.3894	0	1	0.567	0	82	82
2	1	569	0	2	3	0.5096	0.3894	0	1	0.622	7	82	82
2	1	570	9	1	1	0.5096	0.3894	0	1	0.614	0	0	0
2	1	571	0	1	3	0.5096	0.3894	1	1	0.512	8	82	0
2	1	572	1	1	1	0.5096	0.3894	0	1	0.572	78	0	0
2	1	573	1	2	2	0.5096	0.3894	1	1	0.551	80	82	0
2	1	574	1	1	1	0.5096	0.3894	0	1	0.537	81	0	0
2	1	575	1	1	3	0.5096	0.3894	1	1	0.494	86	0	82
2	1	576	9	1	3	0.5096	0.3894	1	1	0.550	0	82	0
2	1	577	1	1	3	0.5096	0.3894	1	1	0.755	60	0	82
2	1	578	0	1	3	0.5096	0.3894	0	1	0.666	7	82	82
2	1	579	0	1	1	0.5096	0.3894	0	1	0.714	6	82	82
2	1	580	0	1	1	0.5096	0.3894	1	1	0.668	7	82	0
2	1	581	9	2	3	0.5096	0.3894	0	1	0.635	0	82	82
2	1	582	1	1	3	0.5096	0.3894	1	1	0.451	90	0	82
2	1	583	0	2	3	0.5096	0.3894	1	1	0.512	8	0	82
2	1	584	9	1	1	0.5096	0.3894	0	0	0.406	0	82	82
2	1	585	9	1	1	0.5096	0.3894	1	1	0.635	0	82	0
2	1	586	1	1	1	0.5096	0.3894	0	1	0.529	82	0	0
2	1	587	1	2	2	0.5096	0.3894	0	1	0.527	82	0	0
2	1	588	1	1	2	0.5096	0.3894	1	1	0.429	92	0	82
2	1	589	1	2	2	0.5096	0.3894	1	1	0.497	85	82	0
2	1	590	1	1	1	0.5096	0.3894	0	1	0.609	74	0	0
2	1	591	0	1	3	0.5096	0.3894	0	1	0.679	7	82	82
2	1	592	0	1	1	0.5096	0.3894	0	1	0.574	8	82	82
2	1	593	0	2	2	0.5096	0.3894	0	1	0.502	8	82	82
2	1	594	0	2	2	0.5096	0.3894	0	1	0.495	9	82	82
2	1	595	9	2	2	0.5096	0.3894	0	1	0.416	0	82	82
2	1	596	1	1	1	0.5096	0.3894	1	1	0.453	90	0	82
2	1	597	9	2	3	0.5096	0.3894	0	1	0.453	0	0	0
2	1	598	1	2	3	0.5096	0.3894	1	1	0.454	90	82	0
2	1	599	9	1	1	0.5096	0.3894	1	0	1.238	0	0	82
2	1	600	0	2	3	0.5096	0.3894	0	1	0.523	8	82	82
2	1	601	0	2	3	0.5096	0.3894	0	1	0.512	8	82	82
2	1	602	1	2	3	0.5096	0.3894	0	1	0.419	93	0	0
2	1	603	1	1	3	0.5096	0.3894	0	0	0.516	0	0	0
2	1	604	1	2	3	0.5096	0.3894	1	1	0.670	68	82	0
2	1	605	0	2	1	0.5096	0.3894	1	1	0.660	7	0	82
2	1	606	9	2	3	0.5096	0.3894	1	1	0.623	0	82	0
2	1	607	1	1	3	0.5096	0.3894	0	1	0.546	80	0	0
2	1	608	9	2	3	0.5096	0.3894	1	1	0.575	0	82	0
2	1	609	0	1	1	0.5096	0.3894	0	1	0.695	7	82	82
2	1	610	1	1	2	0.5096	0.3894	0	1	0.730	62	0	0
2	1	611	1	1	3	0.5096	0.3894	0	1	0.578	77	0	0
2	1	612	9	2	1	0.5096	0.3894	0	1	0.436	0	0	0
2	1	613	1	2	2	0.5096	0.3894	0	1	0.430	92	0	0
2	1	614	0	1	3	0.5096	0.3894	0	1	0.630	7	82	82
2	1	615	1	1	1	0.5096	0.3894	1	1	0.619	73	0	82
2	1	616	9	2	3	0.5096	0.3894	1	1	0.553	0	0	82
2	1	617	1	1	1	0.5096	0.3894	0	1	0.537	81	0	0
2	1	618	1	2	2	0.5096	0.3894	0	1	0.454	90	0	0
2	1	619	0	2	3	0.5096	0.3894	0	1	0.524	8	82	82
2	1	620	1	2	1	0.5096	0.3894	1	1	0.579	77	82	0
2	1	621	0	1	1	0.5096	0.3894	0	1	0.577	8	82	82
2	1	622	1	2	1	0.5096	0.3894	0	1	0.428	92	0	0
2	1	623	0	1	3	0.5096	0.3894	1	1	0.504	8	82	0
2	1	624	1	2	3	0.5096	0.3894	0	1	0.471	88	0	0
2	1	625	0	2	3	0.5096	0.3894	1	1	0.579	8	0	82
2	1	626	0	1	3	0.5096	0.3894	0	1	0.592	8	82	82
2	1	627	0	2	3	0.5096	0.3894	0	1	0.480	9	82	82
2	1	628	0	1	3	0.5096	0.3894	0	1	0.618	7	82	82
2	1	629	1	1	1	0.5096	0.3894	0	1	0.483	87	0	0
2	1	630	9	1	1	0.5096	0.3894	1	1	0.552	0	0	82
2	1	631	0	2	1	0.5096	0.3894	0	1	0.501	8	82	82
2	1	632	0	2	2	0.5096	0.3894	1	1	0.476	9	0	82
2	1	633	1	2	2	0.5096	0.3894	1	1	0.509	84	82	0
2	1	634	0	1	2	0.5096	0.3894	1	0	0.604	0	82	0
2	1	635	0	1	1	0.5096	0.3894	0	1	0.652	7	82	82
2	1	636	1	2	3	0.5096	0.3894	0	1	0.473	88	0	0
2	1	637	0	2	1	0.5096	0.3894	0	1	0.505	8	82	82
2	1	638	0	2	3	0.5096	0.3894	0	1	0.510	8	82	82
2	1	639	1	1	1	0.5096	0.3894	1	1	0.501	85	0	82
2	1	640	0	1	1	0.5096	0.3894	1	1	0.529	8	82	0
2	1	641	1	2	2	0.5096	0.3894	1	1	0.637	71	82	0
2	1	642	1	1	1	0.5096	0.3894	1	1	0.554	80	0	82
2	1	643	1	1	3	0.5096	0.3894	1	1	0.491	86	0	82
2	1	644	1	1	2	0.5096	0.3894	1	1	0.449	90	0	82
2	1	645	0	1	3	0.5096	0.3894	1	1	0.419	9	82	0
2	1	646	1	1	2	0.5096	0.3894	1	1	0.404	95	0	82
2	1	647	1	1	2	0.5096	0.3894	1	1	0.468	88	0	82
2	1	648	1	2	3	0.5096	0.3894	0	1	0.524	83	0	0
2	1	649	0	1	1	0.5096	0.3894	1	1	0.516	8	82	0
2	1	650	9	1	3	0.5096	0.3894	0	0	0.563	0	0	0
2	1	651	1	2	3	0.5096	0.3894	1	1	0.742	61	82	0
2	1	652	1	2	2	0.5096	0.3894	0	1	0.465	88	0	0
2	1	653	0	1	1	0.5096	0.3894	0	1	0.558	8	82	82
2	1	654	0	2	3	0.5096	0.3894	0	1	0.483	9	82	82
2	1	655	0	2	3	0.5096	0.3894	0	1	0.536	8	82	82
2	1	656	0	2	2	0.5096	0.3894	0	1	0.562	8	82	82
2	1	657	0	2	3	0.5096	0.3894	1	1	0.583	8	0	82
2	1	658	0	2	2	0.5096	0.3894	0	1	0.500	9	82	82
2	1	659	0	1	1	0.5096	0.3894	1	1	0.462	9	82	0
2	1	660	0	2	2	0.5096	0.3894	0	1	0.469	9	82	82
2	1	661	9	1	3	0.5096	0.3894	1	1	0.536	0	0	82
2	1	662	9	1	1	0.5096	0.3894	1	1	0.449	0	0	82
2	1	663	1	1	3	0.5096	0.3894	1	1	0.396	95	0	82
2	1	664	0	1	3	0.5096	0.3894	1	1	0.396	10	82	0
2	1	665	1	2	3	0.5096	0.3894	0	1	0.553	80	0	0
2	1	666	1	1	1	0.5096	0.3894	1	1	0.414	94	0	82
2	1	667	1	1	1	0.5096	0.3894	1	1	0.544	81	0	82
2	1	668	1	1	3	0.5096	0.3894	0	1	0.566	78	0	0
2	1	669	1	1	1	0.5096	0.3894	1	1	0.540	81	0	82
2	1	670	0	1	1	0.5096	0.3894	0	1	0.502	8	82	82
2	1	671	0	2	1	0.5096	0.3894	0	1	0.742	6	82	82
2	1	672	9	2	2	0.5096	0.3894	0	1	0.453	0	0	0
2	1	673	0	1	1	0.5096	0.3894	0	1	0.653	7	82	82
2	1	674	0	2	3	0.5096	0.3894	1	1	0.544	8	0	82
2	1	675	0	1	3	0.5096	0.3894	1	1	0.684	7	82	0
2	1	676	1	1	3	0.5096	0.3894	1	1	0.630	72	0	82
2	1	677	1	1	1	0.5096	0.3894	0	1	0.646	70	0	0
2	1	678	0	2	2	0.5096	0.3894	1	1	0.494	9	0	82
2	1	679	9	1	1	0.5096	0.3894	1	1	0.459	0	0	82
2	1	680	9	1	3	0.5096	0.3894	1	1	0.458	0	0	82
2	1	681	9	1	1	0.5096	0.3894	0	1	0.530	0	0	0
2	1	682	1	1	1	0.5096	0.3894	0	1	0.507	84	0	0
2	1	683	1	2	2	0.5096	0.3894	1	1	0.422	93	82	0
2	1	684	9	2	3	0.5096	0.3894	1	0	0.476	0	82	0
2	1	685	1	1	2	0.5096	0.3894	0	1	0.557	79	0	0
2	1	686	0	1	3	0.5096	0.3894	1	1	0.495	9	82	0
2	1	687	1	1	1	0.5096	0.3894	1	1	0.495	85	0	82
2	1	688	0	1	2	0.5096	0.3894	0	0	0.435	0	82	82
2	1	689	1	2	3	0.5096	0.3894	1	1	0.556	79	82	0
2	1	690	1	2	3	0.5096	0.3894	0	1	0.586	76	0	0
2	1	691	1	2	2	0.5096	0.3894	0	1	0.515	83	0	0
2	1	692	1	1	3	0.5096	0.3894	0	1	0.555	79	0	0
2	1	693	0	1	3	0.5096	0.3894	0	1	0.518	8	82	82
2	1	694	1	1	1	0.5096	0.3894	1	1	0.791	56	0	82
2	1	695	0	2	2	0.5096	0.3894	1	1	0.643	7	0	82
2	1	696	0	2	2	0.5096	0.3894	0	1	0.566	8	82	82
2	1	697	0	1	3	0.5096	0.3894	0	1	0.628	7	82	82
2	1	698	1	1	1	0.5096	0.3894	1	1	0.453	90	0	82
2	1	699	1	2	2	0.5096	0.3894	1	1	0.491	86	82	0
2	1	700	0	2	3	0.5096	0.3894	1	1	0.477	9	0	82
2	1	701	1	2	3	0.5096	0.3894	1	1	0.528	82	82	0
2	1	702	9	2	3	0.5096	0.3894	1	1	0.509	0	0	82
2	1	703	1	2	1	0.5096	0.3894	0	1	0.496	85	0	0
2	1	704	1	2	3	0.5096	0.3894	1	1	0.576	77	82	0
2	1	705	0	1	2	0.5096	0.3894	0	1	0.582	8	82	82
2	1	706	1	1	1	0.5096	0.3894	1	1	0.609	74	0	82
2	1	707	0	2	2	0.5096	0.3894	0	1	0.400	10	82	82
2	1	708	0	1	3	0.5096	0.3894	1	1	0.509	8	82	0
2	1	709	0	1	2	0.5096	0.3894	0	0	0.438	0	82	82
2	1	710	9	1	3	0.5096	0.3894	0	1	0.500	0	82	82
2	1	711	0	2	3	0.5096	0.3894	1	1	0.478	9	0	82
2	1	712	0	2	3	0.5096	0.3894	1	1	0.524	8	0	82
2	1	713	0	2	2	0.5096	0.3894	0	1	0.726	6	82	82
2	1	714	0	1	3	0.5096	0.3894	0	1	0.613	7	82	82
2	1	715	1	2	3	0.5096	0.3894	0	1	0.475	88	0	0
2	1	716	1	1	3	0.5096	0.3894	1	1	0.564	79	0	82
2	1	717	9	2	3	0.5096	0.3894	0	1	0.464	0	82	82
2	1	718	0	1	2	0.5096	0.3894	1	1	0.530	8	82	0
2	1	719	9	2	3	0.5096	0.3894	1	1	0.524	0	0	82
2	1	720	0	1	1	0.5096	0.3894	0	1	0.484	9	82	82
