sub	sess	t	rew	loc	cue	co1	co2	or	resp	rt	rew_tot	left_col	right_col
42	1	1	0	2	2	0.0500	0.0586	0	1	0.619	7	82	82
42	1	2	9	2	2	0.0500	0.0586	1	1	0.566	0	82	0
42	1	3	9	2	3	0.0500	0.0586	1	1	0.550	0	82	0
42	1	4	1	1	3	0.0500	0.0586	1	1	0.557	79	0	82
42	1	5	0	1	3	0.0500	0.0586	1	1	0.484	9	82	0
42	1	6	0	2	2	0.0500	0.0586	0	1	0.901	5	82	82
42	1	7	1	1	1	0.0500	0.0586	1	1	0.482	87	0	82
42	1	8	0	2	3	0.0500	0.0586	0	1	0.543	8	82	82
42	1	9	9	1	3	0.0500	0.0586	0	0	0.574	0	0	0
42	1	10	0	2	3	0.0500	0.0586	1	0	0.550	0	0	82
42	1	11	0	1	1	0.0500	0.0586	0	1	0.577	8	82	82
42	1	12	9	2	3	0.0500	0.0586	0	1	0.606	0	82	82
42	1	13	0	1	1	0.0500	0.0586	0	1	0.573	8	82	82
42	1	14	9	1	3	0.0500	0.0586	0	1	0.532	0	82	82
42	1	15	9	1	1	0.0500	0.0586	0	1	0.448	0	82	82
42	1	16	0	1	1	0.0500	0.0586	1	1	0.509	8	82	0
42	1	17	0	1	1	0.0500	0.0586	1	1	0.708	6	82	0
42	1	18	1	2	3	0.0500	0.0586	0	1	0.654	70	0	0
42	1	19	9	1	2	0.0500	0.0586	0	1	0.635	0	82	82
42	1	20	0	2	2	0.0500	0.0586	1	1	0.624	7	0	82
42	1	21	0	1	1	0.0500	0.0586	0	1	0.577	8	82	82
42	1	22	0	1	2	0.0500	0.0586	1	1	0.518	8	82	0
42	1	23	9	1	3	0.0500	0.0586	1	1	0.456	0	82	0
42	1	24	0	1	1	0.0500	0.0586	0	1	0.533	8	82	82
42	1	25	0	2	3	0.0500	0.0586	1	1	0.687	7	0	82
42	1	26	1	1	3	0.0500	0.0586	1	1	0.785	57	0	82
42	1	27	9	1	1	0.0500	0.0586	0	1	0.555	0	0	0
42	1	28	9	1	3	0.0500	0.0586	1	1	0.504	0	82	0
42	1	29	0	2	2	0.0500	0.0586	0	1	0.724	6	82	82
42	1	30	1	2	2	0.0500	0.0586	0	1	0.558	79	0	0
42	1	31	0	2	2	0.0500	0.0586	0	1	0.692	7	82	82
42	1	32	0	1	3	0.0500	0.0586	1	1	0.665	7	82	0
42	1	33	9	2	2	0.0500	0.0586	0	1	0.647	0	82	82
42	1	34	1	2	2	0.0500	0.0586	1	1	0.682	67	82	0
42	1	35	0	2	3	0.0500	0.0586	0	1	0.468	9	82	82
42	1	36	9	1	3	0.0500	0.0586	1	1	0.506	0	82	0
42	1	37	0	2	2	0.0500	0.0586	0	1	0.560	8	82	82
42	1	38	1	2	3	0.0500	0.0586	1	1	0.724	63	82	0
42	1	39	1	2	3	0.0500	0.0586	0	1	0.630	72	0	0
42	1	40	0	2	1	0.0500	0.0586	1	1	0.568	8	0	82
42	1	41	1	2	3	0.0500	0.0586	1	1	0.588	76	82	0
42	1	42	1	1	1	0.0500	0.0586	1	1	0.528	82	0	82
42	1	43	1	1	1	0.0500	0.0586	0	1	0.701	65	0	0
42	1	44	1	1	3	0.0500	0.0586	1	1	0.560	79	0	82
42	1	45	1	1	3	0.0500	0.0586	0	0	0.651	0	0	0
42	1	46	0	2	3	0.0500	0.0586	1	1	0.623	7	0	82
42	1	47	9	1	1	0.0500	0.0586	1	1	0.586	0	0	82
42	1	48	1	1	3	0.0500	0.0586	0	1	0.712	64	0	0
42	1	49	1	1	1	0.0500	0.0586	0	1	0.505	85	0	0
42	1	50	0	1	1	0.0500	0.0586	1	1	0.536	8	82	0
42	1	51	1	2	2	0.0500	0.0586	1	0	0.959	0	82	0
42	1	52	0	1	3	0.0500	0.0586	0	0	0.611	0	82	82
42	1	53	1	1	1	0.0500	0.0586	1	1	0.517	83	0	82
42	1	54	0	2	1	0.0500	0.0586	0	1	0.519	8	82	82
42	1	55	1	2	3	0.0500	0.0586	0	1	0.610	74	0	0
42	1	56	1	1	1	0.0500	0.0586	0	1	0.679	67	0	0
42	1	57	9	1	1	0.0500	0.0586	1	1	0.652	0	0	82
42	1	58	1	2	3	0.0500	0.0586	1	1	0.936	50	82	0
42	1	59	9	2	3	0.0500	0.0586	1	1	0.565	0	0	82
42	1	60	1	2	2	0.0500	0.0586	0	1	0.502	85	0	0
42	1	61	1	2	3	0.0500	0.0586	1	1	0.582	77	82	0
42	1	62	0	2	2	0.0500	0.0586	0	1	0.592	8	82	82
42	1	63	0	1	3	0.0500	0.0586	1	1	0.535	8	82	0
42	1	64	9	2	2	0.0500	0.0586	0	1	0.509	0	0	0
42	1	65	9	2	2	0.0500	0.0586	1	1	0.648	0	0	82
42	1	66	1	2	1	0.0500	0.0586	0	1	0.443	91	0	0
42	1	67	9	1	3	0.0500	0.0586	1	1	0.556	0	0	82
42	1	68	0	2	3	0.0500	0.0586	1	1	0.723	6	0	82
42	1	69	0	1	2	0.0500	0.0586	1	1	0.569	8	82	0
42	1	70	1	1	3	0.0500	0.0586	1	0	0.721	0	0	82
42	1	71	0	2	2	0.0500	0.0586	0	1	0.738	6	82	82
42	1	72	0	2	2	0.0500	0.0586	1	1	0.527	8	0	82
42	1	73	0	1	3	0.0500	0.0586	1	1	0.566	8	82	0
42	1	74	0	1	3	0.0500	0.0586	1	1	0.483	9	82	0
42	1	75	0	2	2	0.0500	0.0586	1	1	0.555	8	0	82
42	1	76	1	2	3	0.0500	0.0586	0	1	0.503	85	0	0
42	1	77	0	1	3	0.0500	0.0586	0	1	0.717	6	82	82
42	1	78	9	1	3	0.0500	0.0586	1	1	0.504	0	0	82
42	1	79	1	2	2	0.0500	0.0586	1	1	0.599	75	82	0
42	1	80	0	1	1	0.0500	0.0586	0	0	0.611	0	82	82
42	1	81	1	1	3	0.0500	0.0586	0	1	0.671	68	0	0
42	1	82	1	1	3	0.0500	0.0586	0	1	0.404	95	0	0
42	1	83	0	2	3	0.0500	0.0586	1	1	0.602	7	0	82
42	1	84	0	2	2	0.0500	0.0586	1	1	0.530	8	0	82
42	1	85	1	2	2	0.0500	0.0586	0	1	0.546	80	0	0
42	1	86	1	1	3	0.0500	0.0586	1	1	0.589	76	0	82
42	1	87	9	2	3	0.0500	0.0586	0	1	0.538	0	0	0
42	1	88	9	2	2	0.0500	0.0586	0	1	0.563	0	82	82
42	1	89	9	2	3	0.0500	0.0586	1	1	0.527	0	0	82
42	1	90	0	1	1	0.0500	0.0586	0	1	0.539	8	82	82
42	1	91	1	2	3	0.0500	0.0586	0	1	0.626	72	0	0
42	1	92	0	2	2	0.0500	0.0586	1	1	0.472	9	0	82
42	1	93	0	1	3	0.0500	0.0586	1	1	0.596	8	82	0
42	1	94	1	1	3	0.0500	0.0586	0	1	0.620	73	0	0
42	1	95	0	1	1	0.0500	0.0586	1	1	0.491	9	82	0
42	1	96	1	2	3	0.0500	0.0586	1	1	0.784	57	82	0
42	1	97	0	1	2	0.0500	0.0586	0	0	0.678	0	82	82
42	1	98	0	2	1	0.0500	0.0586	0	1	0.537	8	82	82
42	1	99	1	1	1	0.0500	0.0586	1	1	0.524	83	0	82
42	1	100	9	1	3	0.0500	0.0586	1	1	0.489	0	0	82
42	1	101	9	2	2	0.0500	0.0586	1	1	0.556	0	82	0
42	1	102	0	2	1	0.0500	0.0586	1	1	0.650	7	0	82
42	1	103	0	1	3	0.0500	0.0586	0	1	0.788	6	82	82
42	1	104	0	2	2	0.0500	0.0586	1	1	0.486	9	0	82
42	1	105	0	1	3	0.0500	0.0586	1	1	0.472	9	82	0
42	1	106	1	1	3	0.0500	0.0586	0	1	0.567	78	0	0
42	1	107	0	1	2	0.0500	0.0586	1	1	0.467	9	82	0
42	1	108	1	1	2	0.0500	0.0586	1	1	0.475	88	0	82
42	1	109	9	1	1	0.0500	0.0586	1	1	0.591	0	0	82
42	1	110	1	2	3	0.0500	0.0586	0	0	0.911	0	0	0
42	1	111	1	1	1	0.0500	0.0586	0	1	0.495	86	0	0
42	1	112	1	2	2	0.0500	0.0586	1	1	0.641	71	82	0
42	1	113	1	2	3	0.0500	0.0586	1	1	0.749	60	82	0
42	1	114	1	2	2	0.0500	0.0586	0	1	0.668	68	0	0
42	1	115	0	1	1	0.0500	0.0586	0	1	0.520	8	82	82
42	1	116	0	1	3	0.0500	0.0586	1	1	0.427	9	82	0
42	1	117	0	1	3	0.0500	0.0586	0	1	0.504	8	82	82
42	1	118	0	2	3	0.0500	0.0586	1	0	0.768	0	0	82
42	1	119	0	1	2	0.0500	0.0586	0	1	0.667	7	82	82
42	1	120	0	1	1	0.0500	0.0586	1	0	0.707	0	82	0
42	1	121	9	2	3	0.0500	0.0586	1	0	0.905	0	82	0
42	1	122	1	1	1	0.0500	0.0586	1	1	0.597	75	0	82
42	1	123	9	2	3	0.0500	0.0586	1	1	0.671	0	0	82
42	1	124	9	1	3	0.0500	0.0586	0	1	0.548	0	0	0
42	1	125	0	1	3	0.0500	0.0586	1	0	0.593	0	82	0
42	1	126	0	1	1	0.0500	0.0586	1	0	0.550	0	82	0
42	1	127	0	1	3	0.0500	0.0586	0	1	0.732	6	82	82
42	1	128	1	2	1	0.0500	0.0586	0	1	0.456	89	0	0
42	1	129	0	1	3	0.0500	0.0586	1	1	0.573	8	82	0
42	1	130	0	2	2	0.0500	0.0586	0	1	0.523	8	82	82
42	1	131	0	2	2	0.0500	0.0586	1	0	0.728	0	0	82
42	1	132	1	1	1	0.0500	0.0586	1	0	1.113	0	0	82
42	1	133	1	2	3	0.0500	0.0586	1	1	0.641	71	82	0
42	1	134	0	2	2	0.0500	0.0586	1	1	0.506	8	0	82
42	1	135	1	2	3	0.0500	0.0586	0	1	0.460	89	0	0
42	1	136	0	2	2	0.0500	0.0586	1	1	0.635	7	0	82
42	1	137	9	2	3	0.0500	0.0586	0	1	0.547	0	0	0
42	1	138	0	2	2	0.0500	0.0586	0	1	0.481	9	82	82
42	1	139	9	1	2	0.0500	0.0586	0	0	0.752	0	0	0
42	1	140	0	2	2	0.0500	0.0586	0	1	0.741	6	82	82
42	1	141	1	1	3	0.0500	0.0586	1	1	0.787	56	0	82
42	1	142	0	1	1	0.0500	0.0586	1	1	0.519	8	82	0
42	1	143	1	2	3	0.0500	0.0586	1	1	0.520	83	82	0
42	1	144	0	1	3	0.0500	0.0586	1	1	0.704	6	82	0
42	1	145	1	2	3	0.0500	0.0586	1	1	0.689	66	82	0
42	1	146	1	2	1	0.0500	0.0586	1	1	0.700	65	82	0
42	1	147	0	1	3	0.0500	0.0586	1	1	0.517	8	82	0
42	1	148	0	1	1	0.0500	0.0586	1	1	0.546	8	82	0
42	1	149	1	1	3	0.0500	0.0586	0	1	0.540	81	0	0
42	1	150	1	2	2	0.0500	0.0586	0	1	0.400	95	0	0
42	1	151	0	1	1	0.0500	0.0586	0	1	0.661	7	82	82
42	1	152	0	1	1	0.0500	0.0586	1	1	0.581	8	82	0
42	1	153	1	2	2	0.0500	0.0586	1	1	0.781	57	82	0
42	1	154	0	2	3	0.0500	0.0586	1	1	0.518	8	0	82
42	1	155	1	1	3	0.0500	0.0586	0	1	0.632	72	0	0
42	1	156	9	2	3	0.0500	0.0586	1	1	0.615	0	0	82
42	1	157	0	2	2	0.0500	0.0586	0	1	0.507	8	82	82
42	1	158	1	1	2	0.0500	0.0586	1	1	0.608	74	0	82
42	1	159	1	2	2	0.0500	0.0586	0	1	0.485	87	0	0
42	1	160	0	2	2	0.0500	0.0586	1	1	0.586	8	0	82
42	1	161	1	2	3	0.0500	0.0586	1	0	0.752	0	82	0
42	1	162	1	2	3	0.0500	0.0586	0	0	0.827	0	0	0
42	1	163	9	2	3	0.0500	0.0586	0	1	0.524	0	0	0
42	1	164	0	2	3	0.0500	0.0586	0	1	0.455	9	82	82
42	1	165	0	1	1	0.0500	0.0586	0	0	0.768	0	82	82
42	1	166	0	2	3	0.0500	0.0586	0	1	0.567	8	82	82
42	1	167	1	1	3	0.0500	0.0586	1	1	0.568	78	0	82
42	1	168	1	1	3	0.0500	0.0586	0	1	0.575	78	0	0
42	1	169	0	2	2	0.0500	0.0586	0	1	0.501	8	82	82
42	1	170	0	2	3	0.0500	0.0586	0	1	0.374	10	82	82
42	1	171	0	2	3	0.0500	0.0586	1	1	0.751	6	0	82
42	1	172	1	1	2	0.0500	0.0586	0	1	0.547	80	0	0
42	1	173	1	1	1	0.0500	0.0586	0	1	0.508	84	0	0
42	1	174	9	2	2	0.0500	0.0586	1	1	0.711	0	82	0
42	1	175	9	1	1	0.0500	0.0586	1	1	0.502	0	82	0
42	1	176	1	1	1	0.0500	0.0586	0	1	0.560	79	0	0
42	1	177	1	1	3	0.0500	0.0586	1	1	0.725	62	0	82
42	1	178	0	2	1	0.0500	0.0586	1	1	0.665	7	0	82
42	1	179	1	1	3	0.0500	0.0586	1	1	0.462	89	0	82
42	1	180	9	2	2	0.0500	0.0586	0	1	0.887	0	0	0
42	1	181	1	2	2	0.0500	0.0586	0	1	0.516	83	0	0
42	1	182	1	2	2	0.0500	0.0586	0	1	0.492	86	0	0
42	1	183	9	2	2	0.0500	0.0586	0	1	0.446	0	0	0
42	1	184	0	2	2	0.0500	0.0586	0	1	0.503	8	82	82
42	1	185	1	2	3	0.0500	0.0586	1	1	0.473	88	82	0
42	1	186	1	1	1	0.0500	0.0586	0	1	0.674	68	0	0
42	1	187	0	2	2	0.0500	0.0586	1	1	0.465	9	0	82
42	1	188	0	1	1	0.0500	0.0586	1	1	0.619	7	82	0
42	1	189	9	1	1	0.0500	0.0586	1	1	0.475	0	0	82
42	1	190	0	2	3	0.0500	0.0586	1	1	0.527	8	0	82
42	1	191	1	2	3	0.0500	0.0586	0	1	0.491	86	0	0
42	1	192	9	1	1	0.0500	0.0586	0	1	0.653	0	0	0
42	1	193	0	2	3	0.0500	0.0586	1	1	0.575	8	0	82
42	1	194	1	1	3	0.0500	0.0586	1	1	0.519	83	0	82
42	1	195	0	2	3	0.0500	0.0586	0	1	0.440	9	82	82
42	1	196	0	2	3	0.0500	0.0586	1	1	0.462	9	0	82
42	1	197	1	2	3	0.0500	0.0586	0	1	0.425	93	0	0
42	1	198	1	1	3	0.0500	0.0586	0	1	0.689	66	0	0
42	1	199	0	2	2	0.0500	0.0586	1	1	0.569	8	0	82
42	1	200	1	1	1	0.0500	0.0586	0	1	0.569	78	0	0
42	1	201	1	2	1	0.0500	0.0586	0	1	0.474	88	0	0
42	1	202	1	1	3	0.0500	0.0586	0	1	0.764	59	0	0
42	1	203	0	1	3	0.0500	0.0586	0	1	0.435	9	82	82
42	1	204	9	1	1	0.0500	0.0586	0	1	0.546	0	0	0
42	1	205	0	2	3	0.0500	0.0586	1	1	0.664	7	0	82
42	1	206	9	1	1	0.0500	0.0586	1	0	0.739	0	82	0
42	1	207	9	2	3	0.0500	0.0586	0	1	0.517	0	0	0
42	1	208	0	1	3	0.0500	0.0586	0	1	0.501	8	82	82
42	1	209	0	1	1	0.0500	0.0586	0	1	0.470	9	82	82
42	1	210	9	2	1	0.0500	0.0586	0	1	0.444	0	0	0
42	1	211	0	2	1	0.0500	0.0586	1	0	0.581	0	0	82
42	1	212	1	2	3	0.0500	0.0586	0	1	0.943	50	0	0
42	1	213	1	1	3	0.0500	0.0586	0	1	0.469	88	0	0
42	1	214	0	2	2	0.0500	0.0586	1	1	0.596	8	0	82
42	1	215	1	2	2	0.0500	0.0586	0	1	0.450	90	0	0
42	1	216	1	2	3	0.0500	0.0586	1	1	0.528	82	82	0
42	1	217	9	1	2	0.0500	0.0586	1	1	0.504	0	82	0
42	1	218	9	1	3	0.0500	0.0586	0	1	0.612	0	0	0
42	1	219	1	1	3	0.0500	0.0586	1	1	0.494	86	0	82
42	1	220	0	2	3	0.0500	0.0586	1	1	0.552	8	0	82
42	1	221	0	1	1	0.0500	0.0586	0	1	0.488	9	82	82
42	1	222	0	2	3	0.0500	0.0586	0	1	0.512	8	82	82
42	1	223	1	1	3	0.0500	0.0586	0	1	0.628	72	0	0
42	1	224	1	1	2	0.0500	0.0586	0	1	0.435	91	0	0
42	1	225	1	1	1	0.0500	0.0586	1	1	0.528	82	0	82
42	1	226	1	1	1	0.0500	0.0586	1	1	0.542	81	0	82
42	1	227	0	1	3	0.0500	0.0586	0	1	0.456	9	82	82
42	1	228	9	2	3	0.0500	0.0586	0	1	0.379	0	82	82
42	1	229	1	2	2	0.0500	0.0586	1	1	0.508	84	82	0
42	1	230	1	2	2	0.0500	0.0586	0	1	0.492	86	0	0
42	1	231	0	2	2	0.0500	0.0586	1	1	0.524	8	0	82
42	1	232	0	1	1	0.0500	0.0586	0	1	0.534	8	82	82
42	1	233	1	1	2	0.0500	0.0586	1	1	0.516	83	0	82
42	1	234	1	1	1	0.0500	0.0586	1	1	0.559	79	0	82
42	1	235	0	1	1	0.0500	0.0586	0	1	0.397	10	82	82
42	1	236	1	2	2	0.0500	0.0586	0	1	0.427	92	0	0
42	1	237	0	2	2	0.0500	0.0586	1	1	0.509	8	0	82
42	1	238	1	1	1	0.0500	0.0586	1	0	0.352	0	0	82
42	1	239	0	2	2	0.0500	0.0586	0	1	0.450	9	82	82
42	1	240	0	2	2	0.0500	0.0586	1	1	0.513	8	0	82
42	1	241	1	1	3	0.0500	0.0586	1	1	0.497	85	0	82
42	1	242	0	2	3	0.0500	0.0586	0	0	0.419	0	82	82
42	1	243	1	1	3	0.0500	0.0586	1	1	0.627	72	0	82
42	1	244	1	2	3	0.0500	0.0586	1	1	0.647	70	82	0
42	1	245	0	2	3	0.0500	0.0586	0	1	0.464	9	82	82
42	1	246	1	2	3	0.0500	0.0586	1	1	0.436	91	82	0
42	1	247	0	1	3	0.0500	0.0586	0	1	0.645	7	82	82
42	1	248	1	2	2	0.0500	0.0586	0	1	0.464	89	0	0
42	1	249	9	2	3	0.0500	0.0586	1	1	0.439	0	82	0
42	1	250	1	2	2	0.0500	0.0586	1	1	0.481	87	82	0
42	1	251	9	2	1	0.0500	0.0586	0	1	0.499	0	82	82
42	1	252	1	1	1	0.0500	0.0586	0	0	0.610	0	0	0
42	1	253	0	1	3	0.0500	0.0586	1	1	0.691	7	82	0
42	1	254	1	2	2	0.0500	0.0586	1	1	0.503	85	82	0
42	1	255	1	1	1	0.0500	0.0586	0	1	0.594	76	0	0
42	1	256	0	1	3	0.0500	0.0586	0	1	0.455	9	82	82
42	1	257	9	2	2	0.0500	0.0586	0	1	0.358	0	82	82
42	1	258	1	1	1	0.0500	0.0586	0	0	0.525	0	0	0
42	1	259	0	1	2	0.0500	0.0586	0	1	0.437	9	82	82
42	1	260	0	1	3	0.0500	0.0586	0	1	0.449	9	82	82
42	1	261	1	1	1	0.0500	0.0586	0	1	0.538	81	0	0
42	1	262	1	2	1	0.0500	0.0586	1	1	0.659	69	82	0
42	1	263	1	2	1	0.0500	0.0586	1	1	0.511	84	82	0
42	1	264	1	1	3	0.0500	0.0586	0	1	0.465	88	0	0
42	1	265	0	2	3	0.0500	0.0586	0	1	0.465	9	82	82
42	1	266	0	2	3	0.0500	0.0586	0	1	0.363	10	82	82
42	1	267	1	2	2	0.0500	0.0586	1	1	0.464	89	82	0
42	1	268	9	2	2	0.0500	0.0586	1	1	0.489	0	82	0
42	1	269	1	1	2	0.0500	0.0586	1	1	0.523	83	0	82
42	1	270	0	2	3	0.0500	0.0586	0	1	0.481	9	82	82
42	1	271	1	2	2	0.0500	0.0586	0	1	0.430	92	0	0
42	1	272	0	1	3	0.0500	0.0586	0	1	0.498	9	82	82
42	1	273	9	1	1	0.0500	0.0586	1	1	0.568	0	82	0
42	1	274	0	1	1	0.0500	0.0586	0	1	0.513	8	82	82
42	1	275	1	1	1	0.0500	0.0586	1	1	0.535	81	0	82
42	1	276	9	2	2	0.0500	0.0586	0	1	0.458	0	82	82
42	1	277	0	2	3	0.0500	0.0586	0	1	0.780	6	82	82
42	1	278	0	1	1	0.0500	0.0586	0	1	0.544	8	82	82
42	1	279	1	1	1	0.0500	0.0586	1	1	0.613	74	0	82
42	1	280	1	1	3	0.0500	0.0586	1	1	0.473	88	0	82
42	1	281	1	2	3	0.0500	0.0586	0	1	0.476	87	0	0
42	1	282	9	1	3	0.0500	0.0586	0	1	0.553	0	82	82
42	1	283	9	1	3	0.0500	0.0586	0	1	0.647	0	82	82
42	1	284	9	2	2	0.0500	0.0586	1	1	0.640	0	0	82
42	1	285	1	1	1	0.0500	0.0586	1	1	0.781	57	0	82
42	1	286	0	1	1	0.0500	0.0586	1	1	0.514	8	82	0
42	1	287	0	2	3	0.0500	0.0586	1	1	0.635	7	0	82
42	1	288	0	2	3	0.0500	0.0586	0	1	0.444	9	82	82
42	1	289	1	2	1	0.0500	0.0586	0	1	0.432	92	0	0
42	1	290	9	2	3	0.0500	0.0586	1	1	0.495	0	82	0
42	1	291	1	2	3	0.0500	0.0586	1	1	0.610	74	82	0
42	1	292	0	1	3	0.0500	0.0586	0	1	0.855	5	82	82
42	1	293	1	1	1	0.0500	0.0586	0	1	0.402	95	0	0
42	1	294	9	2	3	0.0500	0.0586	0	1	0.475	0	82	82
42	1	295	0	2	1	0.0500	0.0586	0	1	0.365	10	82	82
42	1	296	9	1	3	0.0500	0.0586	0	1	0.613	0	82	82
42	1	297	1	1	1	0.0500	0.0586	1	0	0.643	0	0	82
42	1	298	0	2	1	0.0500	0.0586	0	1	0.501	8	82	82
42	1	299	1	2	2	0.0500	0.0586	1	1	0.598	75	82	0
42	1	300	1	2	2	0.0500	0.0586	1	1	0.507	84	82	0
42	1	301	9	1	3	0.0500	0.0586	1	1	0.447	0	82	0
42	1	302	0	1	1	0.0500	0.0586	1	1	0.557	8	82	0
42	1	303	1	1	2	0.0500	0.0586	0	1	0.628	72	0	0
42	1	304	1	2	2	0.0500	0.0586	0	1	0.435	91	0	0
42	1	305	9	1	2	0.0500	0.0586	1	1	0.474	0	0	82
42	1	306	9	1	1	0.0500	0.0586	0	0	0.665	0	82	82
42	1	307	0	2	2	0.0500	0.0586	0	1	0.419	9	82	82
42	1	308	1	2	3	0.0500	0.0586	0	1	0.415	94	0	0
42	1	309	0	1	3	0.0500	0.0586	1	1	0.560	8	82	0
42	1	310	9	2	2	0.0500	0.0586	0	1	0.483	0	0	0
42	1	311	9	2	3	0.0500	0.0586	0	1	0.489	0	82	82
42	1	312	0	1	3	0.0500	0.0586	0	1	0.693	7	82	82
42	1	313	0	2	2	0.0500	0.0586	0	1	0.503	8	82	82
42	1	314	0	1	1	0.0500	0.0586	0	1	0.539	8	82	82
42	1	315	0	1	2	0.0500	0.0586	0	1	0.500	9	82	82
42	1	316	0	1	1	0.0500	0.0586	1	1	0.737	6	82	0
42	1	317	1	2	2	0.0500	0.0586	0	0	0.878	0	0	0
42	1	318	0	2	3	0.0500	0.0586	0	1	0.484	9	82	82
42	1	319	1	1	1	0.0500	0.0586	1	1	0.655	69	0	82
42	1	320	1	2	3	0.0500	0.0586	1	1	0.868	50	82	0
42	1	321	9	1	3	0.0500	0.0586	0	1	0.501	0	0	0
42	1	322	9	2	1	0.0500	0.0586	1	1	0.550	0	0	82
42	1	323	0	1	3	0.0500	0.0586	0	0	0.891	0	82	82
42	1	324	0	1	3	0.0500	0.0586	0	1	0.570	8	82	82
42	1	325	0	1	3	0.0500	0.0586	1	1	0.525	8	82	0
42	1	326	1	2	3	0.0500	0.0586	0	1	0.494	86	0	0
42	1	327	0	1	1	0.0500	0.0586	1	1	0.478	9	82	0
42	1	328	1	1	1	0.0500	0.0586	0	1	0.546	80	0	0
42	1	329	1	2	2	0.0500	0.0586	0	1	0.624	73	0	0
42	1	330	9	1	3	0.0500	0.0586	1	1	0.528	0	0	82
42	1	331	0	2	3	0.0500	0.0586	1	1	0.495	9	0	82
42	1	332	1	1	1	0.0500	0.0586	0	1	0.630	72	0	0
42	1	333	1	2	3	0.0500	0.0586	0	1	0.413	94	0	0
42	1	334	1	2	2	0.0500	0.0586	1	1	0.667	68	82	0
42	1	335	1	2	2	0.0500	0.0586	1	1	0.523	83	82	0
42	1	336	1	1	3	0.0500	0.0586	0	0	0.702	0	0	0
42	1	337	1	1	3	0.0500	0.0586	1	1	0.710	64	0	82
42	1	338	1	2	1	0.0500	0.0586	1	1	0.605	75	82	0
42	1	339	9	1	1	0.0500	0.0586	1	1	0.503	0	82	0
42	1	340	9	2	1	0.0500	0.0586	1	1	0.437	0	82	0
42	1	341	1	2	2	0.0500	0.0586	1	1	0.645	70	82	0
42	1	342	1	1	3	0.0500	0.0586	1	1	0.609	74	0	82
42	1	343	9	1	1	0.0500	0.0586	0	1	0.475	0	82	82
42	1	344	9	1	1	0.0500	0.0586	0	1	0.553	0	82	82
42	1	345	1	2	2	0.0500	0.0586	1	1	0.776	57	82	0
42	1	346	9	2	2	0.0500	0.0586	1	1	0.783	0	0	82
42	1	347	1	2	3	0.0500	0.0586	0	1	0.471	88	0	0
42	1	348	0	2	3	0.0500	0.0586	0	1	0.535	8	82	82
42	1	349	0	1	1	0.0500	0.0586	1	1	0.834	5	82	0
42	1	350	9	2	2	0.0500	0.0586	1	0	0.805	0	0	82
42	1	351	1	1	1	0.0500	0.0586	0	1	0.734	62	0	0
42	1	352	1	1	2	0.0500	0.0586	0	1	0.551	80	0	0
42	1	353	1	1	1	0.0500	0.0586	1	1	0.577	77	0	82
42	1	354	0	1	1	0.0500	0.0586	1	1	0.507	8	82	0
42	1	355	1	1	3	0.0500	0.0586	0	1	0.524	83	0	0
42	1	356	0	2	3	0.0500	0.0586	1	1	0.494	9	0	82
42	1	357	0	1	2	0.0500	0.0586	1	1	0.510	8	82	0
42	1	358	1	2	2	0.0500	0.0586	1	1	0.570	78	82	0
42	1	359	0	1	3	0.0500	0.0586	1	1	0.667	7	82	0
42	1	360	9	1	1	0.0500	0.0586	0	1	0.423	0	0	0
42	1	361	9	2	3	0.0500	0.0586	0	1	0.489	0	0	0
42	1	362	9	1	3	0.0500	0.0586	1	0	0.806	0	82	0
42	1	363	9	1	1	0.0500	0.0586	1	1	0.614	0	0	82
42	1	364	0	1	3	0.0500	0.0586	0	1	0.477	9	82	82
42	1	365	0	2	3	0.0500	0.0586	1	1	0.730	6	0	82
42	1	366	0	1	3	0.0500	0.0586	1	1	0.570	8	82	0
42	1	367	1	1	3	0.0500	0.0586	1	1	0.454	90	0	82
42	1	368	0	1	1	0.0500	0.0586	1	1	0.567	8	82	0
42	1	369	1	2	2	0.0500	0.0586	0	1	0.533	82	0	0
42	1	370	1	2	3	0.0500	0.0586	1	1	0.651	70	82	0
42	1	371	0	1	3	0.0500	0.0586	0	1	0.610	7	82	82
42	1	372	0	1	3	0.0500	0.0586	1	1	0.861	5	82	0
42	1	373	1	1	3	0.0500	0.0586	0	1	0.564	79	0	0
42	1	374	0	1	1	0.0500	0.0586	0	1	0.668	7	82	82
42	1	375	0	1	1	0.0500	0.0586	0	1	0.527	8	82	82
42	1	376	0	1	1	0.0500	0.0586	0	1	0.409	9	82	82
42	1	377	1	1	3	0.0500	0.0586	0	1	0.581	77	0	0
42	1	378	9	1	3	0.0500	0.0586	0	1	0.576	0	0	0
42	1	379	1	2	2	0.0500	0.0586	1	1	0.701	65	82	0
42	1	380	0	1	1	0.0500	0.0586	0	1	0.514	8	82	82
42	1	381	9	1	1	0.0500	0.0586	0	1	0.427	0	82	82
42	1	382	1	1	2	0.0500	0.0586	1	1	0.794	56	0	82
42	1	383	0	1	1	0.0500	0.0586	1	1	0.829	5	82	0
42	1	384	0	2	3	0.0500	0.0586	0	1	0.783	6	82	82
42	1	385	0	1	3	0.0500	0.0586	1	1	0.499	9	82	0
42	1	386	0	1	1	0.0500	0.0586	1	1	0.764	6	82	0
42	1	387	1	1	1	0.0500	0.0586	0	1	0.588	76	0	0
42	1	388	9	1	3	0.0500	0.0586	0	1	0.682	0	82	82
42	1	389	1	1	1	0.0500	0.0586	1	1	0.635	71	0	82
42	1	390	9	2	3	0.0500	0.0586	0	1	0.678	0	82	82
42	1	391	0	2	2	0.0500	0.0586	0	1	0.546	8	82	82
42	1	392	0	2	3	0.0500	0.0586	1	0	0.654	0	0	82
42	1	393	0	2	3	0.0500	0.0586	0	1	0.530	8	82	82
42	1	394	1	2	2	0.0500	0.0586	1	1	0.561	79	82	0
42	1	395	0	2	3	0.0500	0.0586	0	1	0.712	6	82	82
42	1	396	0	2	2	0.0500	0.0586	1	1	0.510	8	0	82
42	1	397	0	2	3	0.0500	0.0586	0	1	0.487	9	82	82
42	1	398	0	1	3	0.0500	0.0586	1	1	0.499	9	82	0
42	1	399	1	2	3	0.0500	0.0586	0	1	0.432	92	0	0
42	1	400	1	1	3	0.0500	0.0586	0	1	0.562	79	0	0
42	1	401	0	2	2	0.0500	0.0586	0	1	0.322	10	82	82
42	1	402	1	1	3	0.0500	0.0586	1	1	0.445	90	0	82
42	1	403	0	2	2	0.0500	0.0586	1	1	0.605	7	0	82
42	1	404	1	1	3	0.0500	0.0586	0	0	0.557	0	0	0
42	1	405	9	2	1	0.0500	0.0586	0	1	0.410	0	0	0
42	1	406	9	1	2	0.0500	0.0586	0	1	0.600	0	0	0
42	1	407	0	1	3	0.0500	0.0586	1	1	0.597	8	82	0
42	1	408	1	2	2	0.0500	0.0586	1	1	0.485	86	82	0
42	1	409	1	2	3	0.0500	0.0586	0	1	0.869	50	0	0
42	1	410	1	1	1	0.0500	0.0586	0	1	0.595	75	0	0
42	1	411	1	1	3	0.0500	0.0586	1	1	0.592	76	0	82
42	1	412	1	1	3	0.0500	0.0586	1	1	0.574	78	0	82
42	1	413	1	1	1	0.0500	0.0586	0	1	0.553	80	0	0
42	1	414	1	2	3	0.0500	0.0586	0	1	0.570	78	0	0
42	1	415	0	1	1	0.0500	0.0586	1	1	0.642	7	82	0
42	1	416	0	1	3	0.0500	0.0586	1	1	0.769	6	82	0
42	1	417	1	2	2	0.0500	0.0586	0	1	0.544	81	0	0
42	1	418	0	2	3	0.0500	0.0586	0	1	0.529	8	82	82
42	1	419	1	1	1	0.0500	0.0586	0	1	0.519	83	0	0
42	1	420	9	2	2	0.0500	0.0586	1	1	0.618	0	0	82
42	1	421	0	2	2	0.0500	0.0586	0	1	0.615	7	82	82
42	1	422	1	1	1	0.0500	0.0586	1	1	0.552	80	0	82
42	1	423	9	2	2	0.0500	0.0586	1	0	0.812	0	82	0
42	1	424	0	1	3	0.0500	0.0586	1	1	0.586	8	82	0
42	1	425	0	1	3	0.0500	0.0586	0	1	0.636	7	82	82
42	1	426	1	1	3	0.0500	0.0586	1	1	0.534	82	0	82
42	1	427	1	2	3	0.0500	0.0586	0	1	0.520	83	0	0
42	1	428	0	2	2	0.0500	0.0586	0	1	0.573	8	82	82
42	1	429	9	2	2	0.0500	0.0586	0	1	0.415	0	82	82
42	1	430	1	2	3	0.0500	0.0586	1	1	0.508	84	82	0
42	1	431	1	1	3	0.0500	0.0586	0	1	0.661	69	0	0
42	1	432	9	1	1	0.0500	0.0586	0	1	0.518	0	0	0
42	1	433	0	1	2	0.0500	0.0586	0	1	0.469	9	82	82
42	1	434	0	2	2	0.0500	0.0586	0	1	0.446	9	82	82
42	1	435	0	1	3	0.0500	0.0586	0	1	0.497	9	82	82
42	1	436	1	2	3	0.0500	0.0586	1	1	0.442	91	82	0
42	1	437	1	2	2	0.0500	0.0586	0	1	0.490	86	0	0
42	1	438	0	1	3	0.0500	0.0586	1	1	0.507	8	82	0
42	1	439	1	1	1	0.0500	0.0586	1	1	0.517	83	0	82
42	1	440	1	1	1	0.0500	0.0586	0	1	0.542	81	0	0
42	1	441	0	2	3	0.0500	0.0586	0	1	0.433	9	82	82
42	1	442	0	2	3	0.0500	0.0586	1	1	0.515	8	0	82
42	1	443	9	1	3	0.0500	0.0586	1	1	0.513	0	0	82
42	1	444	0	2	3	0.0500	0.0586	0	1	0.500	9	82	82
42	1	445	1	2	3	0.0500	0.0586	1	1	0.513	84	82	0
42	1	446	0	2	3	0.0500	0.0586	1	1	0.459	9	0	82
42	1	447	9	1	1	0.0500	0.0586	0	1	0.616	0	82	82
42	1	448	0	2	3	0.0500	0.0586	1	1	0.619	7	0	82
42	1	449	1	1	1	0.0500	0.0586	1	1	0.672	68	0	82
42	1	450	0	1	1	0.0500	0.0586	0	1	0.458	9	82	82
42	1	451	0	1	3	0.0500	0.0586	0	1	0.450	9	82	82
42	1	452	0	1	3	0.0500	0.0586	1	1	0.621	7	82	0
42	1	453	1	2	1	0.0500	0.0586	0	1	0.390	96	0	0
42	1	454	1	2	2	0.0500	0.0586	1	1	0.615	73	82	0
42	1	455	1	2	2	0.0500	0.0586	1	1	0.571	78	82	0
42	1	456	0	1	3	0.0500	0.0586	0	1	0.404	9	82	82
42	1	457	1	2	3	0.0500	0.0586	1	1	0.734	62	82	0
42	1	458	1	1	3	0.0500	0.0586	1	1	0.860	50	0	82
42	1	459	9	1	3	0.0500	0.0586	0	1	0.720	0	0	0
42	1	460	1	2	2	0.0500	0.0586	1	1	0.529	82	82	0
42	1	461	9	2	1	0.0500	0.0586	1	1	0.564	0	82	0
42	1	462	0	2	3	0.0500	0.0586	0	1	0.495	9	82	82
42	1	463	9	2	3	0.0500	0.0586	0	1	0.428	0	0	0
42	1	464	1	2	3	0.0500	0.0586	0	1	0.552	80	0	0
42	1	465	9	1	3	0.0500	0.0586	0	1	0.685	0	0	0
42	1	466	0	1	1	0.0500	0.0586	1	1	0.678	7	82	0
42	1	467	0	2	1	0.0500	0.0586	0	1	0.531	8	82	82
42	1	468	1	1	2	0.0500	0.0586	0	1	0.678	67	0	0
42	1	469	9	2	3	0.0500	0.0586	0	1	0.578	0	0	0
42	1	470	1	1	3	0.0500	0.0586	0	1	0.557	79	0	0
42	1	471	0	2	2	0.0500	0.0586	0	1	0.474	9	82	82
42	1	472	0	2	2	0.0500	0.0586	1	1	0.667	7	0	82
42	1	473	0	1	1	0.0500	0.0586	1	1	0.612	7	82	0
42	1	474	0	1	1	0.0500	0.0586	0	1	0.604	7	82	82
42	1	475	1	1	2	0.0500	0.0586	1	1	0.578	77	0	82
42	1	476	1	2	3	0.0500	0.0586	0	1	0.459	89	0	0
42	1	477	0	1	2	0.0500	0.0586	1	1	0.627	7	82	0
42	1	478	9	2	2	0.0500	0.0586	0	1	0.561	0	82	82
42	1	479	0	1	2	0.0500	0.0586	1	1	1.130	5	82	0
42	1	480	0	1	3	0.0500	0.0586	1	1	0.597	8	82	0
42	1	481	1	1	1	0.0500	0.0586	0	1	0.636	71	0	0
42	1	482	9	1	1	0.0500	0.0586	1	1	0.523	0	82	0
42	1	483	9	2	2	0.0500	0.0586	0	1	0.608	0	0	0
42	1	484	1	2	3	0.0500	0.0586	1	1	0.840	51	82	0
42	1	485	0	2	2	0.0500	0.0586	0	1	0.554	8	82	82
42	1	486	1	2	1	0.0500	0.0586	1	1	0.658	69	82	0
42	1	487	0	2	3	0.0500	0.0586	0	1	0.613	7	82	82
42	1	488	1	2	2	0.0500	0.0586	1	1	0.480	87	82	0
42	1	489	1	2	2	0.0500	0.0586	0	1	0.674	68	0	0
42	1	490	0	2	1	0.0500	0.0586	0	1	0.526	8	82	82
42	1	491	1	2	3	0.0500	0.0586	1	1	0.605	75	82	0
42	1	492	9	1	3	0.0500	0.0586	1	1	0.502	0	0	82
42	1	493	1	2	2	0.0500	0.0586	0	1	0.572	78	0	0
42	1	494	1	1	3	0.0500	0.0586	0	1	0.640	71	0	0
42	1	495	9	2	3	0.0500	0.0586	1	1	0.600	0	0	82
42	1	496	9	1	1	0.0500	0.0586	0	1	0.544	0	0	0
42	1	497	1	2	2	0.0500	0.0586	0	1	0.601	75	0	0
42	1	498	1	2	2	0.0500	0.0586	0	1	0.423	93	0	0
42	1	499	1	2	1	0.0500	0.0586	1	1	0.540	81	82	0
42	1	500	1	2	3	0.0500	0.0586	0	1	0.771	58	0	0
42	1	501	1	1	1	0.0500	0.0586	1	1	0.616	73	0	82
42	1	502	0	1	3	0.0500	0.0586	0	1	0.721	6	82	82
42	1	503	1	2	2	0.0500	0.0586	0	1	0.411	94	0	0
42	1	504	9	1	2	0.0500	0.0586	0	1	0.683	0	82	82
42	1	505	0	1	3	0.0500	0.0586	0	1	0.511	8	82	82
42	1	506	1	2	2	0.0500	0.0586	0	1	0.497	85	0	0
42	1	507	1	1	3	0.0500	0.0586	0	1	0.796	55	0	0
42	1	508	1	1	3	0.0500	0.0586	1	1	0.623	73	0	82
42	1	509	1	1	3	0.0500	0.0586	0	1	0.644	71	0	0
42	1	510	1	1	3	0.0500	0.0586	1	0	0.916	0	0	82
42	1	511	9	2	3	0.0500	0.0586	0	1	0.610	0	82	82
42	1	512	1	1	1	0.0500	0.0586	1	1	0.616	73	0	82
42	1	513	1	2	3	0.0500	0.0586	0	1	0.683	67	0	0
42	1	514	0	1	1	0.0500	0.0586	1	1	0.932	5	82	0
42	1	515	1	2	3	0.0500	0.0586	1	1	0.730	62	82	0
42	1	516	0	2	3	0.0500	0.0586	1	1	0.665	7	0	82
42	1	517	1	2	1	0.0500	0.0586	0	1	0.500	85	0	0
42	1	518	0	2	2	0.0500	0.0586	1	1	0.592	8	0	82
42	1	519	0	1	2	0.0500	0.0586	0	1	0.726	6	82	82
42	1	520	0	2	3	0.0500	0.0586	0	1	0.867	5	82	82
42	1	521	9	2	2	0.0500	0.0586	0	1	0.463	0	0	0
42	1	522	9	2	2	0.0500	0.0586	1	1	0.582	0	82	0
42	1	523	9	1	1	0.0500	0.0586	1	0	0.811	0	0	82
42	1	524	0	1	1	0.0500	0.0586	0	1	0.543	8	82	82
42	1	525	1	1	2	0.0500	0.0586	1	1	0.872	50	0	82
42	1	526	0	2	3	0.0500	0.0586	1	0	0.827	0	0	82
42	1	527	9	1	2	0.0500	0.0586	1	1	0.565	0	82	0
42	1	528	1	2	2	0.0500	0.0586	0	1	0.524	83	0	0
42	1	529	9	1	1	0.0500	0.0586	0	1	0.533	0	82	82
42	1	530	9	2	3	0.0500	0.0586	1	1	0.634	0	82	0
42	1	531	9	2	3	0.0500	0.0586	1	1	0.660	0	82	0
42	1	532	0	2	2	0.0500	0.0586	0	1	0.625	7	82	82
42	1	533	1	2	3	0.0500	0.0586	0	1	0.706	64	0	0
42	1	534	9	2	3	0.0500	0.0586	1	1	0.689	0	0	82
42	1	535	0	2	3	0.0500	0.0586	1	1	0.686	7	0	82
42	1	536	9	2	2	0.0500	0.0586	0	1	0.640	0	82	82
42	1	537	0	1	1	0.0500	0.0586	1	1	0.790	6	82	0
42	1	538	1	2	2	0.0500	0.0586	0	1	0.823	53	0	0
42	1	539	0	2	3	0.0500	0.0586	1	1	0.718	6	0	82
42	1	540	0	1	1	0.0500	0.0586	1	1	0.599	8	82	0
42	1	541	1	1	3	0.0500	0.0586	0	1	0.557	79	0	0
42	1	542	9	1	3	0.0500	0.0586	0	1	0.668	0	0	0
42	1	543	1	1	1	0.0500	0.0586	1	1	0.642	71	0	82
42	1	544	1	1	3	0.0500	0.0586	1	1	0.659	69	0	82
42	1	545	1	2	3	0.0500	0.0586	1	1	0.700	65	82	0
42	1	546	1	1	2	0.0500	0.0586	0	1	0.661	69	0	0
42	1	547	1	2	3	0.0500	0.0586	0	1	0.856	50	0	0
42	1	548	9	1	3	0.0500	0.0586	1	1	0.593	0	82	0
42	1	549	1	2	1	0.0500	0.0586	0	1	0.693	66	0	0
42	1	550	9	1	1	0.0500	0.0586	0	1	0.739	0	82	82
42	1	551	0	1	2	0.0500	0.0586	1	1	0.813	5	82	0
42	1	552	1	2	3	0.0500	0.0586	0	1	0.508	84	0	0
42	1	553	0	1	1	0.0500	0.0586	1	1	0.631	7	82	0
42	1	554	1	1	3	0.0500	0.0586	1	1	0.685	66	0	82
42	1	555	1	2	2	0.0500	0.0586	1	1	0.726	62	82	0
42	1	556	1	1	1	0.0500	0.0586	1	1	0.738	61	0	82
42	1	557	0	1	3	0.0500	0.0586	0	1	0.728	6	82	82
42	1	558	0	2	2	0.0500	0.0586	0	1	0.720	6	82	82
42	1	559	9	1	1	0.0500	0.0586	1	1	0.721	0	82	0
42	1	560	0	1	3	0.0500	0.0586	0	1	0.666	7	82	82
42	1	561	0	2	2	0.0500	0.0586	0	1	0.594	8	82	82
42	1	562	0	2	3	0.0500	0.0586	1	1	0.802	5	0	82
42	1	563	9	2	1	0.0500	0.0586	1	1	0.660	0	0	82
42	1	564	1	2	2	0.0500	0.0586	1	1	0.620	73	82	0
42	1	565	0	2	2	0.0500	0.0586	1	1	0.582	8	0	82
42	1	566	9	2	1	0.0500	0.0586	0	1	0.709	0	82	82
42	1	567	0	2	2	0.0500	0.0586	1	1	0.518	8	0	82
42	1	568	1	1	3	0.0500	0.0586	0	0	1.026	0	0	0
42	1	569	9	2	3	0.0500	0.0586	1	1	0.524	0	82	0
42	1	570	1	2	1	0.0500	0.0586	0	1	0.407	94	0	0
42	1	571	1	1	1	0.0500	0.0586	1	0	1.118	0	0	82
42	1	572	1	2	3	0.0500	0.0586	1	1	0.626	72	82	0
42	1	573	9	2	3	0.0500	0.0586	0	1	0.709	0	0	0
42	1	574	1	1	3	0.0500	0.0586	1	1	0.580	77	0	82
42	1	575	1	2	2	0.0500	0.0586	1	1	0.576	77	82	0
42	1	576	1	2	2	0.0500	0.0586	0	1	0.714	64	0	0
42	1	577	1	1	1	0.0500	0.0586	0	1	0.757	59	0	0
42	1	578	1	2	3	0.0500	0.0586	0	1	0.713	64	0	0
42	1	579	0	2	3	0.0500	0.0586	0	1	0.635	7	82	82
42	1	580	9	1	1	0.0500	0.0586	1	1	0.606	0	0	82
42	1	581	9	1	1	0.0500	0.0586	0	1	0.617	0	0	0
42	1	582	9	1	1	0.0500	0.0586	1	1	0.675	0	82	0
42	1	583	0	1	2	0.0500	0.0586	0	1	0.526	8	82	82
42	1	584	1	2	2	0.0500	0.0586	1	1	0.560	79	82	0
42	1	585	0	2	3	0.0500	0.0586	1	1	0.870	5	0	82
42	1	586	0	1	1	0.0500	0.0586	0	1	0.697	7	82	82
42	1	587	1	1	1	0.0500	0.0586	0	1	0.483	87	0	0
42	1	588	1	2	3	0.0500	0.0586	1	1	0.642	71	82	0
42	1	589	0	2	2	0.0500	0.0586	0	1	0.536	8	82	82
42	1	590	9	2	3	0.0500	0.0586	0	1	0.396	0	82	82
42	1	591	0	1	1	0.0500	0.0586	0	1	0.508	8	82	82
42	1	592	0	2	2	0.0500	0.0586	0	1	0.615	7	82	82
42	1	593	1	1	3	0.0500	0.0586	0	1	0.518	83	0	0
42	1	594	0	2	2	0.0500	0.0586	1	1	0.672	7	0	82
42	1	595	0	2	2	0.0500	0.0586	0	1	0.582	8	82	82
42	1	596	1	2	2	0.0500	0.0586	1	1	0.538	81	82	0
42	1	597	0	1	1	0.0500	0.0586	1	0	0.688	0	82	0
42	1	598	9	1	1	0.0500	0.0586	1	1	0.652	0	82	0
42	1	599	0	2	3	0.0500	0.0586	1	1	0.783	6	0	82
42	1	600	1	2	3	0.0500	0.0586	0	1	0.588	76	0	0
42	1	601	0	1	3	0.0500	0.0586	1	1	0.502	8	82	0
42	1	602	0	2	1	0.0500	0.0586	1	1	0.832	5	0	82
42	1	603	0	2	2	0.0500	0.0586	1	1	0.599	8	0	82
42	1	604	0	1	3	0.0500	0.0586	1	1	0.496	9	82	0
42	1	605	0	2	3	0.0500	0.0586	0	1	0.450	9	82	82
42	1	606	1	1	3	0.0500	0.0586	1	1	0.537	81	0	82
42	1	607	0	2	2	0.0500	0.0586	1	1	0.547	8	0	82
42	1	608	9	2	2	0.0500	0.0586	1	1	0.580	0	0	82
42	1	609	1	2	3	0.0500	0.0586	0	1	0.480	87	0	0
42	1	610	9	1	3	0.0500	0.0586	0	1	0.562	0	82	82
42	1	611	1	1	3	0.0500	0.0586	1	1	0.721	63	0	82
42	1	612	0	1	3	0.0500	0.0586	0	1	0.591	8	82	82
42	1	613	0	2	2	0.0500	0.0586	0	1	0.457	9	82	82
42	1	614	0	2	2	0.0500	0.0586	1	1	0.571	8	0	82
42	1	615	1	2	3	0.0500	0.0586	1	1	0.963	50	82	0
42	1	616	1	2	3	0.0500	0.0586	1	1	0.600	75	82	0
42	1	617	9	1	3	0.0500	0.0586	0	1	0.672	0	82	82
42	1	618	1	2	2	0.0500	0.0586	0	1	0.784	57	0	0
42	1	619	9	1	1	0.0500	0.0586	0	1	0.749	0	0	0
42	1	620	0	2	3	0.0500	0.0586	0	1	0.606	7	82	82
42	1	621	1	1	3	0.0500	0.0586	0	1	0.547	80	0	0
42	1	622	0	2	1	0.0500	0.0586	1	1	0.762	6	0	82
42	1	623	0	1	3	0.0500	0.0586	0	1	0.556	8	82	82
42	1	624	1	2	2	0.0500	0.0586	0	1	0.677	67	0	0
42	1	625	0	1	2	0.0500	0.0586	1	1	0.593	8	82	0
42	1	626	1	1	1	0.0500	0.0586	1	1	0.654	70	0	82
42	1	627	9	2	2	0.0500	0.0586	0	1	0.521	0	0	0
42	1	628	0	2	3	0.0500	0.0586	1	1	0.862	5	0	82
42	1	629	1	2	1	0.0500	0.0586	1	1	0.692	66	82	0
42	1	630	9	2	2	0.0500	0.0586	0	1	0.526	0	0	0
42	1	631	9	1	3	0.0500	0.0586	1	1	0.861	0	0	82
42	1	632	0	1	1	0.0500	0.0586	0	1	0.450	9	82	82
42	1	633	1	2	3	0.0500	0.0586	1	1	0.562	79	82	0
42	1	634	0	2	2	0.0500	0.0586	1	1	0.529	8	0	82
42	1	635	1	2	2	0.0500	0.0586	1	1	0.554	80	82	0
42	1	636	1	2	2	0.0500	0.0586	0	1	0.518	83	0	0
42	1	637	0	2	3	0.0500	0.0586	1	1	0.548	8	0	82
42	1	638	1	1	3	0.0500	0.0586	0	1	0.691	66	0	0
42	1	639	0	2	3	0.0500	0.0586	0	1	0.555	8	82	82
42	1	640	9	2	2	0.0500	0.0586	1	1	0.557	0	82	0
42	1	641	0	1	3	0.0500	0.0586	1	1	0.559	8	82	0
42	1	642	1	2	1	0.0500	0.0586	1	1	0.500	85	82	0
42	1	643	1	2	3	0.0500	0.0586	0	1	0.673	68	0	0
42	1	644	0	2	2	0.0500	0.0586	0	1	0.456	9	82	82
42	1	645	1	1	2	0.0500	0.0586	1	1	0.578	77	0	82
42	1	646	9	2	2	0.0500	0.0586	1	1	1.016	0	0	82
42	1	647	1	1	2	0.0500	0.0586	0	1	0.650	70	0	0
42	1	648	0	1	2	0.0500	0.0586	0	1	0.676	7	82	82
42	1	649	1	1	3	0.0500	0.0586	0	1	0.511	84	0	0
42	1	650	0	1	1	0.0500	0.0586	0	1	0.525	8	82	82
42	1	651	0	1	3	0.0500	0.0586	0	1	0.469	9	82	82
42	1	652	1	2	2	0.0500	0.0586	1	1	0.626	72	82	0
42	1	653	0	2	2	0.0500	0.0586	1	1	0.595	8	0	82
42	1	654	0	1	1	0.0500	0.0586	0	1	0.531	8	82	82
42	1	655	9	1	3	0.0500	0.0586	1	1	0.663	0	82	0
42	1	656	1	1	1	0.0500	0.0586	0	1	0.505	84	0	0
42	1	657	1	1	3	0.0500	0.0586	0	1	0.567	78	0	0
42	1	658	1	1	1	0.0500	0.0586	0	1	0.475	87	0	0
42	1	659	0	2	2	0.0500	0.0586	1	1	0.540	8	0	82
42	1	660	9	2	2	0.0500	0.0586	0	1	0.431	0	82	82
42	1	661	9	2	3	0.0500	0.0586	0	1	0.448	0	82	82
42	1	662	0	2	1	0.0500	0.0586	0	1	0.386	10	82	82
42	1	663	0	1	1	0.0500	0.0586	1	1	0.562	8	82	0
42	1	664	1	2	3	0.0500	0.0586	1	1	0.765	58	82	0
42	1	665	0	1	1	0.0500	0.0586	0	1	0.452	9	82	82
42	1	666	1	1	1	0.0500	0.0586	0	1	0.432	92	0	0
42	1	667	0	1	3	0.0500	0.0586	0	1	0.598	8	82	82
42	1	668	0	2	2	0.0500	0.0586	1	1	0.542	8	0	82
42	1	669	1	1	1	0.0500	0.0586	0	1	0.479	87	0	0
42	1	670	1	1	1	0.0500	0.0586	1	1	0.531	82	0	82
42	1	671	1	2	3	0.0500	0.0586	0	1	0.466	88	0	0
42	1	672	9	2	3	0.0500	0.0586	1	1	0.777	0	0	82
42	1	673	9	2	3	0.0500	0.0586	1	1	0.574	0	82	0
42	1	674	0	1	3	0.0500	0.0586	0	1	0.535	8	82	82
42	1	675	0	2	3	0.0500	0.0586	0	1	0.375	10	82	82
42	1	676	0	1	1	0.0500	0.0586	0	1	0.502	8	82	82
42	1	677	0	1	1	0.0500	0.0586	0	1	0.442	9	82	82
42	1	678	0	1	1	0.0500	0.0586	1	1	0.558	8	82	0
42	1	679	9	2	2	0.0500	0.0586	1	1	0.583	0	0	82
42	1	680	1	1	1	0.0500	0.0586	1	1	0.672	68	0	82
42	1	681	1	2	2	0.0500	0.0586	0	1	0.384	97	0	0
42	1	682	1	1	1	0.0500	0.0586	1	1	0.431	92	0	82
42	1	683	0	1	3	0.0500	0.0586	0	1	0.779	6	82	82
42	1	684	1	1	1	0.0500	0.0586	1	1	0.492	86	0	82
42	1	685	0	2	3	0.0500	0.0586	1	0	0.658	0	0	82
42	1	686	9	1	3	0.0500	0.0586	0	1	0.721	0	82	82
42	1	687	1	1	1	0.0500	0.0586	0	1	0.435	91	0	0
42	1	688	0	2	1	0.0500	0.0586	1	1	0.603	7	0	82
42	1	689	9	2	2	0.0500	0.0586	1	1	0.606	0	82	0
42	1	690	1	1	1	0.0500	0.0586	0	1	0.535	81	0	0
42	1	691	0	2	3	0.0500	0.0586	0	1	0.523	8	82	82
42	1	692	9	2	3	0.0500	0.0586	1	1	0.620	0	0	82
42	1	693	0	1	3	0.0500	0.0586	1	1	0.699	7	82	0
42	1	694	0	1	3	0.0500	0.0586	1	1	0.398	10	82	0
42	1	695	0	2	2	0.0500	0.0586	1	1	0.534	8	0	82
42	1	696	0	1	1	0.0500	0.0586	1	0	0.812	0	82	0
42	1	697	9	1	2	0.0500	0.0586	1	1	0.517	0	0	82
42	1	698	1	1	1	0.0500	0.0586	1	1	0.445	91	0	82
42	1	699	1	2	2	0.0500	0.0586	1	1	1.033	50	82	0
42	1	700	0	2	3	0.0500	0.0586	1	1	0.720	6	0	82
42	1	701	1	1	2	0.0500	0.0586	0	1	0.580	77	0	0
42	1	702	9	1	3	0.0500	0.0586	1	0	0.684	0	0	82
42	1	703	1	1	3	0.0500	0.0586	1	0	0.617	0	0	82
42	1	704	0	1	1	0.0500	0.0586	1	1	0.675	7	82	0
42	1	705	0	1	1	0.0500	0.0586	1	1	0.694	7	82	0
42	1	706	0	1	3	0.0500	0.0586	1	1	0.571	8	82	0
42	1	707	9	1	1	0.0500	0.0586	1	0	0.709	0	0	82
42	1	708	0	1	1	0.0500	0.0586	0	1	0.562	8	82	82
42	1	709	0	2	2	0.0500	0.0586	1	1	0.675	7	0	82
42	1	710	1	1	1	0.0500	0.0586	0	1	0.630	72	0	0
42	1	711	0	2	1	0.0500	0.0586	0	1	0.523	8	82	82
42	1	712	1	2	2	0.0500	0.0586	1	1	0.650	70	82	0
42	1	713	1	1	1	0.0500	0.0586	0	1	0.539	81	0	0
42	1	714	0	2	1	0.0500	0.0586	1	1	0.625	7	0	82
42	1	715	9	1	3	0.0500	0.0586	1	1	0.852	0	82	0
42	1	716	1	2	3	0.0500	0.0586	1	1	0.689	66	82	0
42	1	717	1	1	3	0.0500	0.0586	1	0	0.697	0	0	82
42	1	718	1	1	1	0.0500	0.0586	1	1	0.555	80	0	82
42	1	719	0	2	2	0.0500	0.0586	0	1	0.512	8	82	82
42	1	720	1	1	3	0.0500	0.0586	1	0	0.607	0	0	82
