sub	sess	t	rew	loc	cue	co1	co2	or	resp	rt	rew_tot	left_col	right_col
21	1	1	1	1	3	0.0995	0.0500	0	1	2.214	50	82	82
21	1	2	9	1	3	0.0995	0.0500	0	1	1.891	0	82	82
21	1	3	0	1	2	0.0995	0.0500	1	1	0.640	7	0	82
21	1	4	9	2	3	0.0995	0.0500	0	1	1.656	0	82	82
21	1	5	9	2	3	0.0995	0.0500	1	1	1.510	0	0	82
21	1	6	1	2	2	0.0995	0.0500	1	1	0.847	50	0	82
21	1	7	9	1	1	0.0995	0.0500	1	0	1.367	0	0	82
21	1	8	1	2	3	0.0995	0.0500	0	1	2.700	50	82	82
21	1	9	1	2	2	0.0995	0.0500	0	0	2.818	0	82	82
21	1	10	1	1	3	0.0995	0.0500	1	1	1.047	50	82	0
21	1	11	0	1	2	0.0995	0.0500	0	1	0.782	6	0	0
21	1	12	1	2	1	0.0995	0.0500	1	1	0.878	50	0	82
21	1	13	9	1	1	0.0995	0.0500	0	1	0.878	0	82	82
21	1	14	0	1	1	0.0995	0.0500	0	1	0.628	7	0	0
21	1	15	1	1	1	0.0995	0.0500	0	1	0.543	81	82	82
21	1	16	1	1	1	0.0995	0.0500	1	1	0.746	60	82	0
21	1	17	0	2	3	0.0995	0.0500	0	1	1.398	5	0	0
21	1	18	0	2	3	0.0995	0.0500	0	1	0.706	6	0	0
21	1	19	0	2	1	0.0995	0.0500	0	1	0.753	6	0	0
21	1	20	1	2	3	0.0995	0.0500	0	1	0.676	67	82	82
21	1	21	0	2	2	0.0995	0.0500	0	1	1.662	5	0	0
21	1	22	0	1	1	0.0995	0.0500	0	1	0.556	8	0	0
21	1	23	1	1	1	0.0995	0.0500	1	1	0.639	71	82	0
21	1	24	9	2	3	0.0995	0.0500	1	0	1.547	0	0	82
21	1	25	1	1	1	0.0995	0.0500	0	1	0.772	58	82	82
21	1	26	9	2	2	0.0995	0.0500	0	1	0.841	0	0	0
21	1	27	0	1	3	0.0995	0.0500	0	1	0.678	7	0	0
21	1	28	9	2	2	0.0995	0.0500	0	1	0.955	0	0	0
21	1	29	1	1	1	0.0995	0.0500	1	1	0.548	80	82	0
21	1	30	1	1	2	0.0995	0.0500	1	1	0.632	72	82	0
21	1	31	0	1	3	0.0995	0.0500	0	1	0.704	6	0	0
21	1	32	0	1	3	0.0995	0.0500	0	1	0.509	8	0	0
21	1	33	1	2	2	0.0995	0.0500	0	1	1.339	50	82	82
21	1	34	1	2	3	0.0995	0.0500	0	0	0.980	0	82	82
21	1	35	0	2	2	0.0995	0.0500	0	1	1.214	5	0	0
21	1	36	9	2	3	0.0995	0.0500	0	0	0.775	0	82	82
21	1	37	9	1	3	0.0995	0.0500	1	1	0.735	0	0	82
21	1	38	1	1	3	0.0995	0.0500	1	1	0.778	57	82	0
21	1	39	0	1	3	0.0995	0.0500	0	0	1.057	0	0	0
21	1	40	0	2	3	0.0995	0.0500	0	0	0.974	0	0	0
21	1	41	1	1	1	0.0995	0.0500	0	1	0.658	69	82	82
21	1	42	0	1	2	0.0995	0.0500	1	1	0.702	6	0	82
21	1	43	1	1	3	0.0995	0.0500	0	1	0.638	71	82	82
21	1	44	9	2	1	0.0995	0.0500	1	0	1.486	0	82	0
21	1	45	9	2	3	0.0995	0.0500	1	1	1.166	0	82	0
21	1	46	0	1	3	0.0995	0.0500	0	1	0.769	6	0	0
21	1	47	1	2	1	0.0995	0.0500	0	1	1.507	50	82	82
21	1	48	9	1	2	0.0995	0.0500	1	1	0.683	0	0	82
21	1	49	1	2	1	0.0995	0.0500	1	1	1.834	50	0	82
21	1	50	0	1	3	0.0995	0.0500	0	1	0.738	6	0	0
21	1	51	1	1	2	0.0995	0.0500	0	1	0.846	50	82	82
21	1	52	0	1	1	0.0995	0.0500	1	1	0.701	6	0	82
21	1	53	9	1	1	0.0995	0.0500	0	1	1.194	0	82	82
21	1	54	0	2	2	0.0995	0.0500	1	1	0.833	5	82	0
21	1	55	0	1	3	0.0995	0.0500	1	1	1.226	5	0	82
21	1	56	1	2	2	0.0995	0.0500	0	1	0.785	56	82	82
21	1	57	9	1	1	0.0995	0.0500	0	1	0.588	0	0	0
21	1	58	0	2	2	0.0995	0.0500	1	1	0.919	5	82	0
21	1	59	1	2	1	0.0995	0.0500	0	1	0.989	50	82	82
21	1	60	1	1	2	0.0995	0.0500	0	1	0.697	65	82	82
21	1	61	0	2	1	0.0995	0.0500	0	1	1.037	5	0	0
21	1	62	1	2	3	0.0995	0.0500	1	1	0.686	66	0	82
21	1	63	0	2	2	0.0995	0.0500	0	1	0.815	5	0	0
21	1	64	1	1	3	0.0995	0.0500	1	1	0.972	50	82	0
21	1	65	1	1	3	0.0995	0.0500	0	1	0.554	80	82	82
21	1	66	1	2	2	0.0995	0.0500	0	1	0.889	50	82	82
21	1	67	1	2	2	0.0995	0.0500	0	1	0.750	60	82	82
21	1	68	0	2	2	0.0995	0.0500	1	1	0.705	6	82	0
21	1	69	0	1	3	0.0995	0.0500	0	1	0.613	7	0	0
21	1	70	0	2	3	0.0995	0.0500	0	1	0.955	5	0	0
21	1	71	0	2	3	0.0995	0.0500	0	1	0.690	7	0	0
21	1	72	9	2	2	0.0995	0.0500	1	1	0.751	0	0	82
21	1	73	1	2	3	0.0995	0.0500	0	1	0.862	50	82	82
21	1	74	0	2	3	0.0995	0.0500	1	0	1.010	0	82	0
21	1	75	1	2	1	0.0995	0.0500	0	1	0.702	65	82	82
21	1	76	0	2	3	0.0995	0.0500	0	1	0.677	7	0	0
21	1	77	1	2	3	0.0995	0.0500	0	1	0.645	70	82	82
21	1	78	0	2	3	0.0995	0.0500	1	1	0.744	6	82	0
21	1	79	1	2	2	0.0995	0.0500	0	1	0.725	63	82	82
21	1	80	1	1	1	0.0995	0.0500	0	1	1.084	50	82	82
21	1	81	0	1	3	0.0995	0.0500	0	1	0.705	6	0	0
21	1	82	1	1	1	0.0995	0.0500	1	1	0.880	50	82	0
21	1	83	0	2	3	0.0995	0.0500	1	0	0.732	0	82	0
21	1	84	9	1	3	0.0995	0.0500	0	1	0.603	0	82	82
21	1	85	0	1	3	0.0995	0.0500	0	1	0.520	8	0	0
21	1	86	1	1	1	0.0995	0.0500	0	1	0.616	73	82	82
21	1	87	1	1	1	0.0995	0.0500	0	1	0.940	50	82	82
21	1	88	1	1	1	0.0995	0.0500	1	1	0.946	50	82	0
21	1	89	9	2	2	0.0995	0.0500	0	1	1.475	0	82	82
21	1	90	9	2	3	0.0995	0.0500	0	1	0.833	0	0	0
21	1	91	0	2	2	0.0995	0.0500	1	0	0.925	0	82	0
21	1	92	9	2	3	0.0995	0.0500	1	1	0.778	0	0	82
21	1	93	9	2	3	0.0995	0.0500	1	1	1.019	0	82	0
21	1	94	1	1	3	0.0995	0.0500	0	1	0.655	69	82	82
21	1	95	0	2	1	0.0995	0.0500	1	1	0.965	5	82	0
21	1	96	1	2	2	0.0995	0.0500	1	0	1.364	0	0	82
21	1	97	0	1	1	0.0995	0.0500	1	0	1.902	0	0	82
21	1	98	9	2	2	0.0995	0.0500	1	1	0.765	0	82	0
21	1	99	0	1	3	0.0995	0.0500	0	1	0.599	8	0	0
21	1	100	0	1	1	0.0995	0.0500	1	1	0.710	6	0	82
21	1	101	0	2	2	0.0995	0.0500	0	0	1.581	0	0	0
21	1	102	9	2	2	0.0995	0.0500	0	1	0.829	0	82	82
21	1	103	1	1	1	0.0995	0.0500	1	1	0.784	57	82	0
21	1	104	1	1	1	0.0995	0.0500	0	1	0.624	73	82	82
21	1	105	0	1	3	0.0995	0.0500	0	1	0.586	8	0	0
21	1	106	0	2	2	0.0995	0.0500	0	1	1.369	5	0	0
21	1	107	0	1	2	0.0995	0.0500	0	1	0.631	7	0	0
21	1	108	0	1	1	0.0995	0.0500	0	1	0.649	7	0	0
21	1	109	0	1	1	0.0995	0.0500	0	1	0.577	8	0	0
21	1	110	1	2	3	0.0995	0.0500	1	1	0.713	64	0	82
21	1	111	9	1	3	0.0995	0.0500	0	1	0.783	0	0	0
21	1	112	1	2	2	0.0995	0.0500	1	1	0.735	62	0	82
21	1	113	0	2	3	0.0995	0.0500	0	1	1.294	5	0	0
21	1	114	0	1	3	0.0995	0.0500	0	1	0.498	9	0	0
21	1	115	1	1	1	0.0995	0.0500	1	1	0.492	86	82	0
21	1	116	1	2	3	0.0995	0.0500	1	1	0.736	61	0	82
21	1	117	9	2	3	0.0995	0.0500	0	1	0.562	0	0	0
21	1	118	1	1	1	0.0995	0.0500	0	1	0.549	80	82	82
21	1	119	1	1	1	0.0995	0.0500	1	1	0.771	58	82	0
21	1	120	0	2	2	0.0995	0.0500	1	1	0.960	5	82	0
21	1	121	1	1	2	0.0995	0.0500	1	1	0.664	69	82	0
21	1	122	1	1	1	0.0995	0.0500	1	1	0.410	94	82	0
21	1	123	0	1	2	0.0995	0.0500	1	1	0.578	8	0	82
21	1	124	0	1	1	0.0995	0.0500	1	1	0.462	9	0	82
21	1	125	1	2	3	0.0995	0.0500	1	1	0.996	50	0	82
21	1	126	0	2	1	0.0995	0.0500	1	0	0.730	0	82	0
21	1	127	0	2	3	0.0995	0.0500	0	1	0.775	6	0	0
21	1	128	1	2	2	0.0995	0.0500	0	1	1.387	50	82	82
21	1	129	9	1	3	0.0995	0.0500	0	1	0.651	0	82	82
21	1	130	9	1	3	0.0995	0.0500	1	0	1.810	0	0	82
21	1	131	0	2	3	0.0995	0.0500	1	1	0.963	5	82	0
21	1	132	1	1	3	0.0995	0.0500	0	1	0.799	55	82	82
21	1	133	0	1	3	0.0995	0.0500	0	1	0.488	9	0	0
21	1	134	0	2	3	0.0995	0.0500	0	0	0.948	0	0	0
21	1	135	1	1	1	0.0995	0.0500	1	1	0.815	54	82	0
21	1	136	1	1	3	0.0995	0.0500	0	1	0.793	56	82	82
21	1	137	9	2	3	0.0995	0.0500	1	0	1.427	0	82	0
21	1	138	1	2	3	0.0995	0.0500	1	1	0.938	50	0	82
21	1	139	1	2	2	0.0995	0.0500	1	1	0.849	50	0	82
21	1	140	9	1	1	0.0995	0.0500	1	1	0.649	0	82	0
21	1	141	0	1	1	0.0995	0.0500	1	1	0.670	7	0	82
21	1	142	9	1	3	0.0995	0.0500	1	1	0.387	0	0	82
21	1	143	0	2	3	0.0995	0.0500	1	1	1.283	5	82	0
21	1	144	1	2	3	0.0995	0.0500	0	1	0.853	50	82	82
21	1	145	0	2	3	0.0995	0.0500	1	1	0.890	5	82	0
21	1	146	1	1	1	0.0995	0.0500	0	1	0.579	77	82	82
21	1	147	1	2	3	0.0995	0.0500	0	0	0.786	0	82	82
21	1	148	0	1	1	0.0995	0.0500	1	1	1.469	5	0	82
21	1	149	9	1	1	0.0995	0.0500	1	1	0.536	0	82	0
21	1	150	0	2	2	0.0995	0.0500	0	0	1.886	0	0	0
21	1	151	0	1	1	0.0995	0.0500	0	1	0.626	7	0	0
21	1	152	1	2	2	0.0995	0.0500	0	0	1.099	0	82	82
21	1	153	0	1	1	0.0995	0.0500	1	1	0.637	7	0	82
21	1	154	9	1	1	0.0995	0.0500	1	1	0.546	0	0	82
21	1	155	0	2	1	0.0995	0.0500	0	0	1.257	0	0	0
21	1	156	1	2	3	0.0995	0.0500	1	1	0.761	59	0	82
21	1	157	1	2	3	0.0995	0.0500	1	1	0.749	60	0	82
21	1	158	0	1	1	0.0995	0.0500	1	1	0.637	7	0	82
21	1	159	9	1	1	0.0995	0.0500	0	1	0.575	0	0	0
21	1	160	1	2	3	0.0995	0.0500	1	1	0.668	68	0	82
21	1	161	1	2	2	0.0995	0.0500	1	1	0.837	51	0	82
21	1	162	0	2	2	0.0995	0.0500	0	1	0.700	7	0	0
21	1	163	0	1	3	0.0995	0.0500	1	0	1.501	0	0	82
21	1	164	0	1	1	0.0995	0.0500	1	1	0.626	7	0	82
21	1	165	1	2	3	0.0995	0.0500	1	1	0.925	50	0	82
21	1	166	1	1	1	0.0995	0.0500	1	1	0.569	78	82	0
21	1	167	9	2	2	0.0995	0.0500	0	0	1.001	0	82	82
21	1	168	1	1	3	0.0995	0.0500	0	1	0.646	70	82	82
21	1	169	1	1	3	0.0995	0.0500	1	1	1.171	50	82	0
21	1	170	0	2	3	0.0995	0.0500	0	1	0.882	5	0	0
21	1	171	1	2	3	0.0995	0.0500	0	1	1.665	50	82	82
21	1	172	9	1	1	0.0995	0.0500	1	0	0.782	0	0	82
21	1	173	0	2	2	0.0995	0.0500	1	1	1.071	5	82	0
21	1	174	0	2	3	0.0995	0.0500	0	1	1.299	5	0	0
21	1	175	0	2	2	0.0995	0.0500	1	0	1.785	0	82	0
21	1	176	1	1	1	0.0995	0.0500	0	1	0.619	73	82	82
21	1	177	0	1	1	0.0995	0.0500	0	1	0.528	8	0	0
21	1	178	1	1	3	0.0995	0.0500	0	1	0.492	86	82	82
21	1	179	0	2	2	0.0995	0.0500	0	1	0.878	5	0	0
21	1	180	1	2	3	0.0995	0.0500	1	1	0.927	50	0	82
21	1	181	0	1	1	0.0995	0.0500	1	1	0.697	7	0	82
21	1	182	9	1	3	0.0995	0.0500	0	1	0.609	0	0	0
21	1	183	0	1	3	0.0995	0.0500	1	1	0.628	7	0	82
21	1	184	1	2	3	0.0995	0.0500	0	1	1.377	50	82	82
21	1	185	9	1	1	0.0995	0.0500	1	1	0.766	0	82	0
21	1	186	0	1	1	0.0995	0.0500	1	1	0.610	7	0	82
21	1	187	1	1	3	0.0995	0.0500	1	1	0.580	77	82	0
21	1	188	9	2	2	0.0995	0.0500	1	1	2.264	0	82	0
21	1	189	1	1	3	0.0995	0.0500	1	1	0.868	50	82	0
21	1	190	0	1	2	0.0995	0.0500	0	1	0.889	5	0	0
21	1	191	9	1	2	0.0995	0.0500	0	1	0.569	0	82	82
21	1	192	1	1	1	0.0995	0.0500	0	1	0.613	74	82	82
21	1	193	0	1	1	0.0995	0.0500	0	1	0.417	9	0	0
21	1	194	1	2	2	0.0995	0.0500	0	1	1.428	50	82	82
21	1	195	0	1	3	0.0995	0.0500	1	1	0.595	8	0	82
21	1	196	1	1	1	0.0995	0.0500	1	1	0.538	81	82	0
21	1	197	0	2	3	0.0995	0.0500	1	0	1.497	0	82	0
21	1	198	0	2	3	0.0995	0.0500	1	1	1.665	5	82	0
21	1	199	0	1	1	0.0995	0.0500	1	1	0.980	5	0	82
21	1	200	0	1	3	0.0995	0.0500	0	1	0.515	8	0	0
21	1	201	1	1	2	0.0995	0.0500	1	1	0.586	76	82	0
21	1	202	0	1	3	0.0995	0.0500	1	1	0.662	7	0	82
21	1	203	0	2	2	0.0995	0.0500	0	1	1.148	5	0	0
21	1	204	1	1	2	0.0995	0.0500	1	1	0.546	80	82	0
21	1	205	0	1	1	0.0995	0.0500	1	1	0.403	9	0	82
21	1	206	1	1	3	0.0995	0.0500	1	1	0.534	82	82	0
21	1	207	1	2	2	0.0995	0.0500	1	1	1.102	50	0	82
21	1	208	0	1	3	0.0995	0.0500	1	1	0.513	8	0	82
21	1	209	0	2	3	0.0995	0.0500	0	1	0.837	5	0	0
21	1	210	1	1	3	0.0995	0.0500	1	1	0.629	72	82	0
21	1	211	0	2	2	0.0995	0.0500	0	1	1.839	5	0	0
21	1	212	0	2	2	0.0995	0.0500	0	1	1.146	5	0	0
21	1	213	1	1	3	0.0995	0.0500	1	1	0.628	72	82	0
21	1	214	1	2	3	0.0995	0.0500	1	0	0.549	0	0	82
21	1	215	1	2	2	0.0995	0.0500	0	0	0.653	0	82	82
21	1	216	1	2	1	0.0995	0.0500	0	1	0.712	64	82	82
21	1	217	1	1	1	0.0995	0.0500	0	1	0.424	93	82	82
21	1	218	0	2	2	0.0995	0.0500	0	1	0.912	5	0	0
21	1	219	0	2	1	0.0995	0.0500	0	1	0.903	5	0	0
21	1	220	9	1	1	0.0995	0.0500	0	1	0.395	0	0	0
21	1	221	1	1	3	0.0995	0.0500	0	1	0.601	75	82	82
21	1	222	1	1	3	0.0995	0.0500	1	0	0.504	0	82	0
21	1	223	0	2	1	0.0995	0.0500	1	1	0.824	5	82	0
21	1	224	0	1	1	0.0995	0.0500	0	1	0.697	7	0	0
21	1	225	0	1	3	0.0995	0.0500	1	0	0.691	0	0	82
21	1	226	9	2	1	0.0995	0.0500	1	1	0.685	0	0	82
21	1	227	9	2	1	0.0995	0.0500	0	0	0.622	0	82	82
21	1	228	0	1	1	0.0995	0.0500	0	1	0.662	7	0	0
21	1	229	0	2	3	0.0995	0.0500	1	1	0.848	5	82	0
21	1	230	1	2	2	0.0995	0.0500	1	1	1.034	50	0	82
21	1	231	1	1	3	0.0995	0.0500	0	1	0.402	95	82	82
21	1	232	9	2	1	0.0995	0.0500	0	1	1.098	0	0	0
21	1	233	0	1	1	0.0995	0.0500	0	1	0.372	10	0	0
21	1	234	9	2	3	0.0995	0.0500	1	1	0.869	0	0	82
21	1	235	1	2	1	0.0995	0.0500	1	0	0.979	0	0	82
21	1	236	0	2	2	0.0995	0.0500	1	1	0.888	5	82	0
21	1	237	1	1	3	0.0995	0.0500	1	1	0.890	50	82	0
21	1	238	1	1	3	0.0995	0.0500	1	1	0.784	57	82	0
21	1	239	0	1	3	0.0995	0.0500	0	1	0.463	9	0	0
21	1	240	9	1	3	0.0995	0.0500	0	1	0.598	0	0	0
21	1	241	0	2	2	0.0995	0.0500	1	1	0.789	6	82	0
21	1	242	1	2	3	0.0995	0.0500	0	0	0.784	0	82	82
21	1	243	0	2	2	0.0995	0.0500	0	0	1.432	0	0	0
21	1	244	0	1	1	0.0995	0.0500	0	1	0.446	9	0	0
21	1	245	0	1	2	0.0995	0.0500	1	0	0.401	0	0	82
21	1	246	0	2	3	0.0995	0.0500	1	1	0.774	6	82	0
21	1	247	1	2	3	0.0995	0.0500	0	0	0.676	0	82	82
21	1	248	0	2	2	0.0995	0.0500	0	0	0.719	0	0	0
21	1	249	0	2	2	0.0995	0.0500	1	1	0.816	5	82	0
21	1	250	1	2	1	0.0995	0.0500	1	1	0.765	59	0	82
21	1	251	1	2	2	0.0995	0.0500	1	1	0.748	60	0	82
21	1	252	9	2	2	0.0995	0.0500	1	1	0.814	0	0	82
21	1	253	1	2	2	0.0995	0.0500	0	1	0.778	57	82	82
21	1	254	0	2	3	0.0995	0.0500	0	0	0.852	0	0	0
21	1	255	1	2	2	0.0995	0.0500	1	1	1.047	50	0	82
21	1	256	1	1	3	0.0995	0.0500	0	1	0.437	91	82	82
21	1	257	0	1	3	0.0995	0.0500	1	0	0.476	0	0	82
21	1	258	9	1	1	0.0995	0.0500	0	1	0.674	0	82	82
21	1	259	0	1	1	0.0995	0.0500	0	1	0.575	8	0	0
21	1	260	0	2	3	0.0995	0.0500	1	1	0.698	7	82	0
21	1	261	1	1	3	0.0995	0.0500	0	1	2.795	50	82	82
21	1	262	1	2	3	0.0995	0.0500	1	0	1.185	0	0	82
21	1	263	9	1	3	0.0995	0.0500	1	1	0.531	0	82	0
21	1	264	0	1	1	0.0995	0.0500	0	1	0.583	8	0	0
21	1	265	0	2	1	0.0995	0.0500	1	1	1.245	5	82	0
21	1	266	1	1	2	0.0995	0.0500	0	1	0.829	52	82	82
21	1	267	1	2	3	0.0995	0.0500	0	1	1.163	50	82	82
21	1	268	9	2	2	0.0995	0.0500	1	1	0.836	0	82	0
21	1	269	0	2	3	0.0995	0.0500	0	1	1.100	5	0	0
21	1	270	9	2	3	0.0995	0.0500	1	1	1.399	0	82	0
21	1	271	1	2	3	0.0995	0.0500	0	1	1.297	50	82	82
21	1	272	0	1	3	0.0995	0.0500	1	0	0.972	0	0	82
21	1	273	0	2	2	0.0995	0.0500	1	1	1.015	5	82	0
21	1	274	1	2	2	0.0995	0.0500	1	1	1.966	50	0	82
21	1	275	0	1	3	0.0995	0.0500	1	1	1.311	5	0	82
21	1	276	1	1	1	0.0995	0.0500	0	1	0.835	52	82	82
21	1	277	9	1	2	0.0995	0.0500	0	1	0.991	0	0	0
21	1	278	9	2	2	0.0995	0.0500	1	1	0.702	0	0	82
21	1	279	0	2	2	0.0995	0.0500	0	1	1.049	5	0	0
21	1	280	0	1	3	0.0995	0.0500	1	1	0.783	6	0	82
21	1	281	1	2	2	0.0995	0.0500	1	1	0.790	56	0	82
21	1	282	0	2	3	0.0995	0.0500	0	1	1.252	5	0	0
21	1	283	1	2	3	0.0995	0.0500	0	1	0.846	50	82	82
21	1	284	0	1	3	0.0995	0.0500	1	0	0.798	0	0	82
21	1	285	9	1	3	0.0995	0.0500	1	1	0.539	0	82	0
21	1	286	1	2	3	0.0995	0.0500	1	1	0.894	50	0	82
21	1	287	0	2	2	0.0995	0.0500	0	0	0.891	0	0	0
21	1	288	1	1	1	0.0995	0.0500	0	1	0.564	79	82	82
21	1	289	9	2	3	0.0995	0.0500	0	0	0.742	0	82	82
21	1	290	1	2	2	0.0995	0.0500	0	1	0.839	51	82	82
21	1	291	0	1	2	0.0995	0.0500	0	1	0.575	8	0	0
21	1	292	9	2	2	0.0995	0.0500	1	1	1.169	0	0	82
21	1	293	0	2	3	0.0995	0.0500	0	1	1.125	5	0	0
21	1	294	9	1	3	0.0995	0.0500	1	1	0.649	0	82	0
21	1	295	0	1	1	0.0995	0.0500	0	1	0.620	7	0	0
21	1	296	1	2	3	0.0995	0.0500	1	1	0.790	56	0	82
21	1	297	1	2	3	0.0995	0.0500	1	1	1.113	50	0	82
21	1	298	0	2	3	0.0995	0.0500	1	1	0.754	6	82	0
21	1	299	1	2	2	0.0995	0.0500	1	1	0.720	63	0	82
21	1	300	0	1	3	0.0995	0.0500	1	1	0.686	7	0	82
21	1	301	0	2	3	0.0995	0.0500	1	1	0.745	6	82	0
21	1	302	0	1	1	0.0995	0.0500	1	1	1.001	5	0	82
21	1	303	1	2	3	0.0995	0.0500	0	0	0.978	0	82	82
21	1	304	0	1	1	0.0995	0.0500	0	1	0.550	8	0	0
21	1	305	0	2	2	0.0995	0.0500	1	1	0.922	5	82	0
21	1	306	1	2	2	0.0995	0.0500	0	1	1.091	50	82	82
21	1	307	0	1	3	0.0995	0.0500	0	1	0.428	9	0	0
21	1	308	0	1	3	0.0995	0.0500	1	1	0.527	8	0	82
21	1	309	1	2	2	0.0995	0.0500	0	0	0.770	0	82	82
21	1	310	1	1	1	0.0995	0.0500	0	1	0.537	81	82	82
21	1	311	1	2	2	0.0995	0.0500	0	0	0.713	0	82	82
21	1	312	0	1	1	0.0995	0.0500	0	0	0.611	0	0	0
21	1	313	9	1	3	0.0995	0.0500	0	1	0.569	0	0	0
21	1	314	1	2	2	0.0995	0.0500	1	1	0.626	72	0	82
21	1	315	1	1	3	0.0995	0.0500	0	1	0.595	76	82	82
21	1	316	1	2	2	0.0995	0.0500	1	1	0.840	51	0	82
21	1	317	1	1	3	0.0995	0.0500	1	1	1.793	50	82	0
21	1	318	9	2	3	0.0995	0.0500	0	1	1.151	0	0	0
21	1	319	0	1	1	0.0995	0.0500	1	1	0.592	8	0	82
21	1	320	9	2	2	0.0995	0.0500	1	1	0.881	0	82	0
21	1	321	0	1	1	0.0995	0.0500	1	1	0.715	6	0	82
21	1	322	0	2	3	0.0995	0.0500	1	1	0.761	6	82	0
21	1	323	9	1	1	0.0995	0.0500	0	1	0.470	0	82	82
21	1	324	9	1	1	0.0995	0.0500	1	1	0.573	0	0	82
21	1	325	1	2	3	0.0995	0.0500	0	1	0.758	59	82	82
21	1	326	1	1	3	0.0995	0.0500	1	1	0.694	66	82	0
21	1	327	0	2	3	0.0995	0.0500	1	1	0.743	6	82	0
21	1	328	0	2	3	0.0995	0.0500	1	1	0.637	7	82	0
21	1	329	9	1	1	0.0995	0.0500	1	1	0.792	0	82	0
21	1	330	0	2	2	0.0995	0.0500	1	1	1.172	5	82	0
21	1	331	9	1	2	0.0995	0.0500	1	1	0.625	0	82	0
21	1	332	1	1	3	0.0995	0.0500	1	1	0.770	58	82	0
21	1	333	1	1	3	0.0995	0.0500	0	1	0.510	84	82	82
21	1	334	1	1	3	0.0995	0.0500	0	1	0.580	77	82	82
21	1	335	9	2	3	0.0995	0.0500	0	0	0.707	0	82	82
21	1	336	1	1	1	0.0995	0.0500	1	1	0.575	77	82	0
21	1	337	1	1	3	0.0995	0.0500	0	1	0.708	64	82	82
21	1	338	1	2	3	0.0995	0.0500	1	1	0.725	63	0	82
21	1	339	9	1	3	0.0995	0.0500	0	1	0.599	0	82	82
21	1	340	9	2	2	0.0995	0.0500	0	0	0.773	0	0	0
21	1	341	0	1	3	0.0995	0.0500	1	1	0.556	8	0	82
21	1	342	0	1	3	0.0995	0.0500	1	1	0.451	9	0	82
21	1	343	1	2	2	0.0995	0.0500	0	0	0.814	0	82	82
21	1	344	1	1	3	0.0995	0.0500	1	0	0.567	0	82	0
21	1	345	1	1	1	0.0995	0.0500	1	1	0.935	50	82	0
21	1	346	1	2	2	0.0995	0.0500	1	1	0.806	54	0	82
21	1	347	0	2	2	0.0995	0.0500	1	1	0.750	6	82	0
21	1	348	9	1	3	0.0995	0.0500	1	1	0.558	0	82	0
21	1	349	1	2	2	0.0995	0.0500	1	1	0.700	65	0	82
21	1	350	1	1	1	0.0995	0.0500	1	0	0.884	0	82	0
21	1	351	0	2	2	0.0995	0.0500	1	1	0.565	8	82	0
21	1	352	9	2	3	0.0995	0.0500	0	1	0.992	0	0	0
21	1	353	1	1	1	0.0995	0.0500	1	1	0.752	60	82	0
21	1	354	1	1	1	0.0995	0.0500	0	1	0.585	77	82	82
21	1	355	9	1	3	0.0995	0.0500	1	1	0.612	0	0	82
21	1	356	9	2	2	0.0995	0.0500	0	0	0.753	0	82	82
21	1	357	1	1	2	0.0995	0.0500	0	1	0.568	78	82	82
21	1	358	9	1	1	0.0995	0.0500	0	1	0.513	0	0	0
21	1	359	0	2	2	0.0995	0.0500	1	1	0.726	6	82	0
21	1	360	9	2	2	0.0995	0.0500	0	1	0.770	0	0	0
21	1	361	1	1	3	0.0995	0.0500	1	0	0.741	0	82	0
21	1	362	0	2	2	0.0995	0.0500	1	1	0.637	7	82	0
21	1	363	1	2	2	0.0995	0.0500	1	1	0.609	74	0	82
21	1	364	9	1	1	0.0995	0.0500	0	1	0.541	0	0	0
21	1	365	1	2	2	0.0995	0.0500	0	0	0.765	0	82	82
21	1	366	0	2	2	0.0995	0.0500	1	1	0.675	7	82	0
21	1	367	1	2	2	0.0995	0.0500	0	0	0.874	0	82	82
21	1	368	9	2	3	0.0995	0.0500	1	1	0.665	0	82	0
21	1	369	0	1	1	0.0995	0.0500	0	1	0.419	9	0	0
21	1	370	0	1	1	0.0995	0.0500	1	0	0.419	0	0	82
21	1	371	9	2	1	0.0995	0.0500	1	1	0.725	0	0	82
21	1	372	0	2	2	0.0995	0.0500	0	1	0.996	5	0	0
21	1	373	1	1	1	0.0995	0.0500	0	1	0.458	89	82	82
21	1	374	0	1	1	0.0995	0.0500	1	0	0.700	0	0	82
21	1	375	0	1	1	0.0995	0.0500	1	0	0.401	0	0	82
21	1	376	1	1	3	0.0995	0.0500	0	1	0.775	57	82	82
21	1	377	1	2	3	0.0995	0.0500	1	1	0.682	67	0	82
21	1	378	9	2	2	0.0995	0.0500	1	1	0.755	0	0	82
21	1	379	1	2	2	0.0995	0.0500	0	1	0.983	50	82	82
21	1	380	9	1	1	0.0995	0.0500	1	1	0.530	0	82	0
21	1	381	1	2	3	0.0995	0.0500	0	0	0.724	0	82	82
21	1	382	0	2	1	0.0995	0.0500	0	1	0.786	6	0	0
21	1	383	1	1	3	0.0995	0.0500	1	1	0.646	70	82	0
21	1	384	1	2	3	0.0995	0.0500	0	1	0.804	55	82	82
21	1	385	9	1	3	0.0995	0.0500	1	1	0.511	0	82	0
21	1	386	0	2	2	0.0995	0.0500	0	1	0.661	7	0	0
21	1	387	0	2	2	0.0995	0.0500	1	1	0.870	5	82	0
21	1	388	0	2	3	0.0995	0.0500	0	1	0.895	5	0	0
21	1	389	1	1	3	0.0995	0.0500	1	1	0.752	60	82	0
21	1	390	0	2	2	0.0995	0.0500	1	0	0.914	0	82	0
21	1	391	1	2	2	0.0995	0.0500	0	1	0.787	56	82	82
21	1	392	0	2	1	0.0995	0.0500	1	1	0.703	6	82	0
21	1	393	9	1	1	0.0995	0.0500	1	1	1.064	0	0	82
21	1	394	0	1	3	0.0995	0.0500	1	1	0.540	8	0	82
21	1	395	0	2	3	0.0995	0.0500	0	1	0.688	7	0	0
21	1	396	1	2	3	0.0995	0.0500	0	1	0.701	65	82	82
21	1	397	0	1	1	0.0995	0.0500	1	1	0.516	8	0	82
21	1	398	0	1	3	0.0995	0.0500	0	1	0.504	8	0	0
21	1	399	9	2	1	0.0995	0.0500	0	1	0.805	0	82	82
21	1	400	1	2	3	0.0995	0.0500	0	1	0.807	54	82	82
21	1	401	1	1	1	0.0995	0.0500	0	1	0.550	80	82	82
21	1	402	9	1	3	0.0995	0.0500	1	1	0.484	0	0	82
21	1	403	1	2	3	0.0995	0.0500	0	0	0.738	0	82	82
21	1	404	9	1	1	0.0995	0.0500	0	1	0.506	0	82	82
21	1	405	0	2	2	0.0995	0.0500	0	1	1.243	5	0	0
21	1	406	0	2	3	0.0995	0.0500	0	1	0.813	5	0	0
21	1	407	0	2	2	0.0995	0.0500	1	1	0.605	7	82	0
21	1	408	0	2	3	0.0995	0.0500	0	1	0.938	5	0	0
21	1	409	1	1	1	0.0995	0.0500	1	1	0.544	81	82	0
21	1	410	0	1	3	0.0995	0.0500	0	1	0.463	9	0	0
21	1	411	0	2	2	0.0995	0.0500	0	1	0.726	6	0	0
21	1	412	0	2	1	0.0995	0.0500	1	0	1.632	0	82	0
21	1	413	9	1	2	0.0995	0.0500	1	1	0.944	0	82	0
21	1	414	1	2	1	0.0995	0.0500	1	1	0.676	67	0	82
21	1	415	0	2	2	0.0995	0.0500	0	0	0.593	0	0	0
21	1	416	9	1	3	0.0995	0.0500	1	1	0.569	0	82	0
21	1	417	0	1	1	0.0995	0.0500	1	1	0.400	10	0	82
21	1	418	9	2	3	0.0995	0.0500	1	1	0.866	0	82	0
21	1	419	9	1	3	0.0995	0.0500	0	1	0.530	0	82	82
21	1	420	9	2	3	0.0995	0.0500	0	1	1.101	0	0	0
21	1	421	1	2	1	0.0995	0.0500	0	1	0.892	50	82	82
21	1	422	9	1	3	0.0995	0.0500	0	1	0.488	0	82	82
21	1	423	0	1	2	0.0995	0.0500	0	1	0.379	10	0	0
21	1	424	1	1	2	0.0995	0.0500	1	1	0.493	86	82	0
21	1	425	9	1	3	0.0995	0.0500	0	1	0.519	0	82	82
21	1	426	1	2	2	0.0995	0.0500	1	0	0.931	0	0	82
21	1	427	1	2	2	0.0995	0.0500	0	1	0.796	55	82	82
21	1	428	0	2	3	0.0995	0.0500	0	1	0.705	6	0	0
21	1	429	1	2	3	0.0995	0.0500	0	1	0.723	63	82	82
21	1	430	1	2	1	0.0995	0.0500	0	1	0.753	60	82	82
21	1	431	1	1	1	0.0995	0.0500	1	1	0.571	78	82	0
21	1	432	0	1	3	0.0995	0.0500	1	1	0.588	8	0	82
21	1	433	0	2	3	0.0995	0.0500	0	1	0.646	7	0	0
21	1	434	1	1	2	0.0995	0.0500	1	1	0.478	87	82	0
21	1	435	0	2	3	0.0995	0.0500	1	0	0.821	0	82	0
21	1	436	0	1	3	0.0995	0.0500	1	1	0.514	8	0	82
21	1	437	1	2	2	0.0995	0.0500	0	1	0.747	60	82	82
21	1	438	9	1	2	0.0995	0.0500	0	1	0.474	0	0	0
21	1	439	0	2	1	0.0995	0.0500	1	1	0.826	5	82	0
21	1	440	0	2	3	0.0995	0.0500	0	0	0.969	0	0	0
21	1	441	1	2	2	0.0995	0.0500	1	1	0.703	65	0	82
21	1	442	9	1	3	0.0995	0.0500	1	1	0.480	0	0	82
21	1	443	0	2	2	0.0995	0.0500	1	1	0.720	6	82	0
21	1	444	0	1	3	0.0995	0.0500	0	1	0.554	8	0	0
21	1	445	9	1	1	0.0995	0.0500	1	0	0.545	0	0	82
21	1	446	9	1	3	0.0995	0.0500	1	1	0.614	0	82	0
21	1	447	1	2	3	0.0995	0.0500	1	1	0.640	71	0	82
21	1	448	1	1	3	0.0995	0.0500	1	1	0.406	94	82	0
21	1	449	0	1	3	0.0995	0.0500	1	1	0.400	9	0	82
21	1	450	0	1	1	0.0995	0.0500	0	0	0.430	0	0	0
21	1	451	0	1	3	0.0995	0.0500	1	1	0.604	7	0	82
21	1	452	1	2	3	0.0995	0.0500	0	1	0.795	56	82	82
21	1	453	0	1	3	0.0995	0.0500	1	1	0.535	8	0	82
21	1	454	1	2	3	0.0995	0.0500	1	1	0.720	63	0	82
21	1	455	9	1	2	0.0995	0.0500	1	1	0.428	0	0	82
21	1	456	0	2	2	0.0995	0.0500	0	1	0.931	5	0	0
21	1	457	0	1	1	0.0995	0.0500	0	1	0.634	7	0	0
21	1	458	1	2	2	0.0995	0.0500	1	1	0.575	77	0	82
21	1	459	1	2	2	0.0995	0.0500	0	1	0.617	73	82	82
21	1	460	0	1	3	0.0995	0.0500	0	1	0.443	9	0	0
21	1	461	1	1	2	0.0995	0.0500	0	1	0.487	86	82	82
21	1	462	0	2	1	0.0995	0.0500	0	1	0.651	7	0	0
21	1	463	1	2	3	0.0995	0.0500	1	1	0.607	74	0	82
21	1	464	9	1	1	0.0995	0.0500	0	1	0.484	0	0	0
21	1	465	9	2	3	0.0995	0.0500	0	1	0.818	0	0	0
21	1	466	1	1	1	0.0995	0.0500	0	1	0.478	87	82	82
21	1	467	0	2	3	0.0995	0.0500	0	1	0.681	7	0	0
21	1	468	1	2	2	0.0995	0.0500	0	0	0.668	0	82	82
21	1	469	0	1	1	0.0995	0.0500	0	1	0.564	8	0	0
21	1	470	1	2	3	0.0995	0.0500	1	1	0.828	52	0	82
21	1	471	0	2	1	0.0995	0.0500	1	0	0.993	0	82	0
21	1	472	1	1	2	0.0995	0.0500	0	1	0.646	70	82	82
21	1	473	1	1	1	0.0995	0.0500	1	1	0.624	73	82	0
21	1	474	0	1	3	0.0995	0.0500	0	1	0.542	8	0	0
21	1	475	9	1	1	0.0995	0.0500	0	1	0.418	0	82	82
21	1	476	9	2	2	0.0995	0.0500	1	1	0.714	0	0	82
21	1	477	0	1	2	0.0995	0.0500	0	1	0.466	9	0	0
21	1	478	1	1	1	0.0995	0.0500	0	1	0.460	89	82	82
21	1	479	1	2	2	0.0995	0.0500	1	1	0.613	74	0	82
21	1	480	1	1	3	0.0995	0.0500	1	1	0.588	76	82	0
21	1	481	0	1	1	0.0995	0.0500	1	1	0.540	8	0	82
21	1	482	0	2	3	0.0995	0.0500	0	1	1.015	5	0	0
21	1	483	0	2	2	0.0995	0.0500	1	1	0.577	8	82	0
21	1	484	0	2	2	0.0995	0.0500	1	1	0.614	7	82	0
21	1	485	1	1	1	0.0995	0.0500	0	1	0.478	87	82	82
21	1	486	0	1	3	0.0995	0.0500	0	1	0.482	9	0	0
21	1	487	1	2	2	0.0995	0.0500	0	1	0.796	55	82	82
21	1	488	9	1	2	0.0995	0.0500	0	1	0.658	0	82	82
21	1	489	1	1	1	0.0995	0.0500	0	1	0.550	80	82	82
21	1	490	0	1	3	0.0995	0.0500	0	1	0.557	8	0	0
21	1	491	9	1	1	0.0995	0.0500	0	1	0.437	0	0	0
21	1	492	1	2	3	0.0995	0.0500	1	1	0.687	66	0	82
21	1	493	0	2	3	0.0995	0.0500	1	1	1.048	5	82	0
21	1	494	9	1	3	0.0995	0.0500	1	1	0.558	0	0	82
21	1	495	9	2	2	0.0995	0.0500	1	1	1.048	0	82	0
21	1	496	1	1	3	0.0995	0.0500	1	1	0.795	56	82	0
21	1	497	1	2	3	0.0995	0.0500	0	1	0.833	52	82	82
21	1	498	0	2	3	0.0995	0.0500	1	1	0.745	6	82	0
21	1	499	0	2	2	0.0995	0.0500	1	1	0.761	6	82	0
21	1	500	1	2	2	0.0995	0.0500	1	1	0.577	77	0	82
21	1	501	0	2	3	0.0995	0.0500	0	1	0.814	5	0	0
21	1	502	9	2	2	0.0995	0.0500	1	1	0.552	0	82	0
21	1	503	1	1	1	0.0995	0.0500	1	1	0.727	62	82	0
21	1	504	0	1	3	0.0995	0.0500	0	1	0.487	9	0	0
21	1	505	9	2	1	0.0995	0.0500	1	1	0.674	0	82	0
21	1	506	1	1	3	0.0995	0.0500	0	1	0.462	89	82	82
21	1	507	9	2	3	0.0995	0.0500	0	0	0.655	0	82	82
21	1	508	0	2	3	0.0995	0.0500	1	1	0.736	6	82	0
21	1	509	1	2	3	0.0995	0.0500	1	1	0.601	75	0	82
21	1	510	1	2	3	0.0995	0.0500	1	1	0.582	77	0	82
21	1	511	0	1	3	0.0995	0.0500	0	1	0.561	8	0	0
21	1	512	1	1	1	0.0995	0.0500	0	1	0.428	92	82	82
21	1	513	0	2	3	0.0995	0.0500	1	1	0.640	7	82	0
21	1	514	0	2	2	0.0995	0.0500	0	0	0.863	0	0	0
21	1	515	1	2	3	0.0995	0.0500	1	1	0.557	79	0	82
21	1	516	0	1	3	0.0995	0.0500	1	1	0.540	8	0	82
21	1	517	1	2	3	0.0995	0.0500	0	0	0.718	0	82	82
21	1	518	1	1	2	0.0995	0.0500	0	1	0.777	57	82	82
21	1	519	1	2	3	0.0995	0.0500	0	1	0.777	57	82	82
21	1	520	0	2	2	0.0995	0.0500	1	1	0.709	6	82	0
21	1	521	9	1	1	0.0995	0.0500	0	1	0.492	0	82	82
21	1	522	1	2	3	0.0995	0.0500	1	0	0.915	0	0	82
21	1	523	0	1	3	0.0995	0.0500	1	1	0.558	8	0	82
21	1	524	0	1	1	0.0995	0.0500	0	1	0.516	8	0	0
21	1	525	9	1	3	0.0995	0.0500	0	1	0.599	0	82	82
21	1	526	0	1	3	0.0995	0.0500	1	1	1.207	5	0	82
21	1	527	0	1	3	0.0995	0.0500	0	1	0.561	8	0	0
21	1	528	0	1	1	0.0995	0.0500	1	1	0.403	9	0	82
21	1	529	1	1	3	0.0995	0.0500	0	1	0.418	93	82	82
21	1	530	0	1	1	0.0995	0.0500	0	1	0.537	8	0	0
21	1	531	0	2	2	0.0995	0.0500	0	1	1.232	5	0	0
21	1	532	9	2	2	0.0995	0.0500	0	1	0.814	0	0	0
21	1	533	9	1	1	0.0995	0.0500	0	1	0.461	0	82	82
21	1	534	0	1	3	0.0995	0.0500	1	1	0.556	8	0	82
21	1	535	0	1	2	0.0995	0.0500	1	1	0.465	9	0	82
21	1	536	9	2	2	0.0995	0.0500	0	1	0.853	0	82	82
21	1	537	1	1	3	0.0995	0.0500	0	1	0.478	87	82	82
21	1	538	1	1	3	0.0995	0.0500	0	0	1.414	0	82	82
21	1	539	0	1	3	0.0995	0.0500	0	1	0.528	8	0	0
21	1	540	0	1	1	0.0995	0.0500	1	1	0.487	9	0	82
21	1	541	1	1	3	0.0995	0.0500	1	1	0.471	88	82	0
21	1	542	1	1	3	0.0995	0.0500	0	1	0.512	84	82	82
21	1	543	0	1	1	0.0995	0.0500	1	1	0.519	8	0	82
21	1	544	0	2	3	0.0995	0.0500	1	0	1.085	0	82	0
21	1	545	0	1	1	0.0995	0.0500	0	1	0.453	9	0	0
21	1	546	0	1	1	0.0995	0.0500	0	1	0.543	8	0	0
21	1	547	1	2	1	0.0995	0.0500	1	1	0.816	53	0	82
21	1	548	1	2	3	0.0995	0.0500	0	1	0.880	50	82	82
21	1	549	0	2	3	0.0995	0.0500	0	1	1.025	5	0	0
21	1	550	9	2	3	0.0995	0.0500	0	1	0.745	0	82	82
21	1	551	0	2	3	0.0995	0.0500	1	0	1.048	0	82	0
21	1	552	1	1	3	0.0995	0.0500	0	1	0.524	83	82	82
21	1	553	9	2	3	0.0995	0.0500	0	0	0.892	0	0	0
21	1	554	0	1	2	0.0995	0.0500	1	1	0.544	8	0	82
21	1	555	1	2	2	0.0995	0.0500	0	0	0.824	0	82	82
21	1	556	1	1	3	0.0995	0.0500	1	1	0.640	71	82	0
21	1	557	1	1	1	0.0995	0.0500	1	1	0.460	89	82	0
21	1	558	9	2	2	0.0995	0.0500	0	1	0.805	0	82	82
21	1	559	1	2	2	0.0995	0.0500	1	1	0.839	51	0	82
21	1	560	9	2	2	0.0995	0.0500	1	1	0.834	0	0	82
21	1	561	1	1	1	0.0995	0.0500	1	1	0.400	95	82	0
21	1	562	0	2	3	0.0995	0.0500	1	1	0.660	7	82	0
21	1	563	9	2	2	0.0995	0.0500	1	1	0.678	0	82	0
21	1	564	1	1	1	0.0995	0.0500	1	1	0.456	89	82	0
21	1	565	0	1	1	0.0995	0.0500	0	1	0.504	8	0	0
21	1	566	9	2	2	0.0995	0.0500	0	1	0.924	0	82	82
21	1	567	1	1	1	0.0995	0.0500	0	1	0.476	87	82	82
21	1	568	1	1	1	0.0995	0.0500	0	1	0.486	86	82	82
21	1	569	9	2	2	0.0995	0.0500	0	1	1.306	0	0	0
21	1	570	1	2	3	0.0995	0.0500	1	1	0.705	65	0	82
21	1	571	9	2	3	0.0995	0.0500	0	1	0.988	0	0	0
21	1	572	1	1	1	0.0995	0.0500	0	1	0.483	87	82	82
21	1	573	0	1	1	0.0995	0.0500	1	0	0.745	0	0	82
21	1	574	1	2	2	0.0995	0.0500	1	1	0.754	60	0	82
21	1	575	1	2	1	0.0995	0.0500	0	1	0.724	63	82	82
21	1	576	1	1	1	0.0995	0.0500	1	1	0.664	69	82	0
21	1	577	0	1	1	0.0995	0.0500	0	1	0.509	8	0	0
21	1	578	1	1	3	0.0995	0.0500	1	1	0.519	83	82	0
21	1	579	1	2	2	0.0995	0.0500	0	0	1.472	0	82	82
21	1	580	1	1	1	0.0995	0.0500	0	1	0.835	51	82	82
21	1	581	0	2	3	0.0995	0.0500	0	1	0.644	7	0	0
21	1	582	1	1	1	0.0995	0.0500	1	1	0.711	64	82	0
21	1	583	1	1	3	0.0995	0.0500	0	1	0.633	72	82	82
21	1	584	1	2	3	0.0995	0.0500	0	1	0.567	78	82	82
21	1	585	0	1	3	0.0995	0.0500	1	1	0.720	6	0	82
21	1	586	1	2	2	0.0995	0.0500	0	1	0.615	74	82	82
21	1	587	1	1	3	0.0995	0.0500	1	1	0.956	50	82	0
21	1	588	1	2	2	0.0995	0.0500	1	1	0.619	73	0	82
21	1	589	0	2	2	0.0995	0.0500	0	1	0.443	9	0	0
21	1	590	1	2	2	0.0995	0.0500	0	1	0.497	85	82	82
21	1	591	1	2	3	0.0995	0.0500	1	1	0.515	83	0	82
21	1	592	1	2	3	0.0995	0.0500	0	0	0.630	0	82	82
21	1	593	0	1	1	0.0995	0.0500	0	1	1.014	5	0	0
21	1	594	0	1	2	0.0995	0.0500	0	1	0.805	5	0	0
21	1	595	0	1	1	0.0995	0.0500	1	1	1.017	5	0	82
21	1	596	0	1	1	0.0995	0.0500	1	1	0.776	6	0	82
21	1	597	0	1	1	0.0995	0.0500	1	1	0.731	6	0	82
21	1	598	0	1	1	0.0995	0.0500	1	1	0.652	7	0	82
21	1	599	0	1	3	0.0995	0.0500	0	1	0.702	6	0	0
21	1	600	0	1	2	0.0995	0.0500	1	1	0.939	5	0	82
21	1	601	0	2	2	0.0995	0.0500	0	1	0.958	5	0	0
21	1	602	9	1	1	0.0995	0.0500	1	1	0.698	0	82	0
21	1	603	1	2	1	0.0995	0.0500	1	1	0.491	86	0	82
21	1	604	9	2	3	0.0995	0.0500	0	1	0.528	0	82	82
21	1	605	1	2	3	0.0995	0.0500	0	1	0.536	81	82	82
21	1	606	0	2	2	0.0995	0.0500	0	1	0.421	9	0	0
21	1	607	9	1	3	0.0995	0.0500	0	1	0.806	0	0	0
21	1	608	1	1	1	0.0995	0.0500	0	1	1.447	50	82	82
21	1	609	1	1	3	0.0995	0.0500	1	1	0.800	55	82	0
21	1	610	9	2	2	0.0995	0.0500	1	0	0.608	0	0	82
21	1	611	9	2	3	0.0995	0.0500	1	1	0.647	0	0	82
21	1	612	0	2	3	0.0995	0.0500	1	1	0.469	9	82	0
21	1	613	1	2	2	0.0995	0.0500	0	1	0.879	50	82	82
21	1	614	0	2	3	0.0995	0.0500	0	1	0.573	8	0	0
21	1	615	0	2	3	0.0995	0.0500	1	1	0.495	9	82	0
21	1	616	0	2	2	0.0995	0.0500	1	1	0.490	9	82	0
21	1	617	0	1	1	0.0995	0.0500	0	1	0.790	6	0	0
21	1	618	9	2	1	0.0995	0.0500	0	0	1.380	0	0	0
21	1	619	1	1	1	0.0995	0.0500	1	0	2.839	0	82	0
21	1	620	0	2	2	0.0995	0.0500	0	1	0.717	6	0	0
21	1	621	1	1	3	0.0995	0.0500	0	1	0.721	63	82	82
21	1	622	0	2	3	0.0995	0.0500	0	1	0.460	9	0	0
21	1	623	0	2	2	0.0995	0.0500	0	1	0.465	9	0	0
21	1	624	1	1	1	0.0995	0.0500	1	1	0.669	68	82	0
21	1	625	0	2	3	0.0995	0.0500	1	1	0.498	9	82	0
21	1	626	9	1	3	0.0995	0.0500	1	1	0.688	0	0	82
21	1	627	9	2	3	0.0995	0.0500	1	1	0.482	0	0	82
21	1	628	0	1	3	0.0995	0.0500	1	1	0.715	6	0	82
21	1	629	0	2	3	0.0995	0.0500	0	1	0.470	9	0	0
21	1	630	1	1	3	0.0995	0.0500	1	1	0.688	66	82	0
21	1	631	1	1	3	0.0995	0.0500	0	0	0.593	0	82	82
21	1	632	0	2	2	0.0995	0.0500	1	1	1.018	5	82	0
21	1	633	1	1	3	0.0995	0.0500	0	1	0.857	50	82	82
21	1	634	1	2	3	0.0995	0.0500	1	1	0.595	75	0	82
21	1	635	0	1	2	0.0995	0.0500	1	1	0.721	6	0	82
21	1	636	1	1	3	0.0995	0.0500	1	1	1.464	50	82	0
21	1	637	0	1	1	0.0995	0.0500	1	1	0.674	7	0	82
21	1	638	0	2	3	0.0995	0.0500	1	1	0.529	8	82	0
21	1	639	1	2	3	0.0995	0.0500	0	1	0.779	57	82	82
21	1	640	0	2	3	0.0995	0.0500	1	1	0.506	8	82	0
21	1	641	1	1	1	0.0995	0.0500	0	1	0.584	77	82	82
21	1	642	9	2	3	0.0995	0.0500	1	1	0.505	0	0	82
21	1	643	1	1	1	0.0995	0.0500	1	1	0.716	63	82	0
21	1	644	9	2	3	0.0995	0.0500	0	1	0.605	0	82	82
21	1	645	1	2	2	0.0995	0.0500	0	1	0.449	90	82	82
21	1	646	9	2	2	0.0995	0.0500	1	1	0.731	0	82	0
21	1	647	1	2	1	0.0995	0.0500	1	1	0.582	77	0	82
21	1	648	0	1	1	0.0995	0.0500	0	1	0.858	5	0	0
21	1	649	9	1	1	0.0995	0.0500	1	1	0.650	0	82	0
21	1	650	1	1	3	0.0995	0.0500	0	1	0.753	60	82	82
21	1	651	1	1	1	0.0995	0.0500	1	1	1.024	50	82	0
21	1	652	0	2	1	0.0995	0.0500	0	1	0.614	7	0	0
21	1	653	1	2	2	0.0995	0.0500	1	1	0.552	80	0	82
21	1	654	9	1	1	0.0995	0.0500	0	1	0.718	0	0	0
21	1	655	0	2	2	0.0995	0.0500	1	1	0.574	8	82	0
21	1	656	9	2	3	0.0995	0.0500	1	1	0.509	0	82	0
21	1	657	1	1	3	0.0995	0.0500	0	1	0.832	52	82	82
21	1	658	1	1	2	0.0995	0.0500	0	1	0.737	61	82	82
21	1	659	1	1	1	0.0995	0.0500	1	1	0.822	53	82	0
21	1	660	0	1	3	0.0995	0.0500	1	1	0.838	5	0	82
21	1	661	0	1	3	0.0995	0.0500	0	1	0.665	7	0	0
21	1	662	9	1	1	0.0995	0.0500	1	0	0.896	0	0	82
21	1	663	1	2	3	0.0995	0.0500	0	1	0.728	62	82	82
21	1	664	0	2	2	0.0995	0.0500	1	1	0.577	8	82	0
21	1	665	0	1	1	0.0995	0.0500	1	1	0.945	5	0	82
21	1	666	1	1	1	0.0995	0.0500	0	1	0.514	84	82	82
21	1	667	9	1	3	0.0995	0.0500	1	1	0.814	0	82	0
21	1	668	1	2	2	0.0995	0.0500	1	0	0.890	0	0	82
21	1	669	1	2	2	0.0995	0.0500	1	1	0.594	76	0	82
21	1	670	1	1	3	0.0995	0.0500	1	1	0.665	69	82	0
21	1	671	1	1	2	0.0995	0.0500	1	1	0.625	73	82	0
21	1	672	0	2	2	0.0995	0.0500	0	1	0.725	6	0	0
21	1	673	0	2	1	0.0995	0.0500	0	1	0.499	9	0	0
21	1	674	0	2	2	0.0995	0.0500	0	1	0.420	9	0	0
21	1	675	1	2	2	0.0995	0.0500	1	1	0.491	86	0	82
21	1	676	1	2	2	0.0995	0.0500	0	1	0.406	94	82	82
21	1	677	0	2	2	0.0995	0.0500	1	1	0.517	8	82	0
21	1	678	0	2	3	0.0995	0.0500	1	1	0.518	8	82	0
21	1	679	0	1	3	0.0995	0.0500	0	1	0.595	8	0	0
21	1	680	0	1	3	0.0995	0.0500	1	1	0.619	7	0	82
21	1	681	1	1	1	0.0995	0.0500	0	1	0.791	56	82	82
21	1	682	1	1	3	0.0995	0.0500	1	1	0.729	62	82	0
21	1	683	9	2	2	0.0995	0.0500	0	0	1.211	0	82	82
21	1	684	1	1	1	0.0995	0.0500	1	1	0.722	63	82	0
21	1	685	1	1	3	0.0995	0.0500	0	1	0.620	73	82	82
21	1	686	1	2	3	0.0995	0.0500	1	1	0.568	78	0	82
21	1	687	0	1	1	0.0995	0.0500	0	1	0.793	6	0	0
21	1	688	0	1	2	0.0995	0.0500	0	1	0.702	6	0	0
21	1	689	9	2	2	0.0995	0.0500	0	1	0.892	0	0	0
21	1	690	1	2	2	0.0995	0.0500	1	1	0.548	80	0	82
21	1	691	1	2	3	0.0995	0.0500	1	1	0.463	89	0	82
21	1	692	0	1	3	0.0995	0.0500	0	0	0.743	0	0	0
21	1	693	9	1	1	0.0995	0.0500	1	1	1.008	0	0	82
21	1	694	0	1	3	0.0995	0.0500	1	1	0.758	6	0	82
21	1	695	1	1	1	0.0995	0.0500	1	1	0.755	60	82	0
21	1	696	0	2	3	0.0995	0.0500	1	1	0.582	8	82	0
21	1	697	9	2	2	0.0995	0.0500	0	1	0.783	0	0	0
21	1	698	1	1	3	0.0995	0.0500	1	1	0.812	54	82	0
21	1	699	0	1	1	0.0995	0.0500	0	1	0.577	8	0	0
21	1	700	1	1	1	0.0995	0.0500	0	1	0.689	66	82	82
21	1	701	1	2	2	0.0995	0.0500	1	1	0.536	81	0	82
21	1	702	0	2	3	0.0995	0.0500	1	1	0.465	9	82	0
21	1	703	0	1	3	0.0995	0.0500	0	1	0.656	7	0	0
21	1	704	0	1	1	0.0995	0.0500	0	1	0.812	5	0	0
21	1	705	9	1	3	0.0995	0.0500	0	1	0.572	0	0	0
21	1	706	9	1	1	0.0995	0.0500	1	1	0.673	0	82	0
21	1	707	1	1	2	0.0995	0.0500	1	1	0.593	76	82	0
21	1	708	9	1	3	0.0995	0.0500	0	0	1.093	0	0	0
21	1	709	1	2	3	0.0995	0.0500	1	1	0.558	79	0	82
21	1	710	1	1	3	0.0995	0.0500	0	1	0.684	67	82	82
21	1	711	9	2	3	0.0995	0.0500	1	1	0.492	0	0	82
21	1	712	0	2	2	0.0995	0.0500	0	0	2.026	0	0	0
21	1	713	9	1	3	0.0995	0.0500	0	1	0.644	0	0	0
21	1	714	9	2	3	0.0995	0.0500	1	1	0.492	0	82	0
21	1	715	1	2	1	0.0995	0.0500	0	1	0.489	86	82	82
21	1	716	1	2	2	0.0995	0.0500	1	1	0.539	81	0	82
21	1	717	0	2	2	0.0995	0.0500	1	1	0.646	7	82	0
21	1	718	0	1	3	0.0995	0.0500	1	1	0.932	5	0	82
21	1	719	0	2	3	0.0995	0.0500	0	1	0.500	9	0	0
21	1	720	1	1	3	0.0995	0.0500	0	1	0.704	65	82	82
