sub	sess	t	loc	cue	co1	co2	or	resp	rt
54	1	1	2	2	0.0535	0.0651	1	1	0.200
54	1	2	1	3	0.0535	0.0651	1	1	1.447
54	1	3	2	2	0.0535	0.0651	0	1	0.881
54	1	4	1	1	0.0535	0.0651	0	1	1.462
54	1	5	1	1	0.0535	0.0651	1	1	0.790
54	1	6	1	1	0.0535	0.0651	0	1	0.671
54	1	7	2	2	0.0535	0.0651	0	1	0.927
54	1	8	1	1	0.0535	0.0651	0	1	1.387
54	1	9	2	3	0.0535	0.0651	1	1	1.917
54	1	10	2	1	0.0535	0.0651	1	1	0.961
54	1	11	1	1	0.0535	0.0651	0	0	0.716
54	1	12	1	3	0.0535	0.0651	0	1	1.107
54	1	13	2	2	0.0535	0.0651	1	1	1.015
54	1	14	1	3	0.0535	0.0651	0	1	1.056
54	1	15	2	2	0.0535	0.0651	0	1	0.670
54	1	16	2	2	0.0535	0.0651	0	1	0.885
54	1	17	2	1	0.0535	0.0651	0	1	1.923
54	1	18	2	2	0.0535	0.0651	0	1	0.623
54	1	19	2	3	0.0535	0.0651	1	1	0.850
54	1	20	2	1	0.0535	0.0651	0	1	0.800
54	1	21	1	2	0.0535	0.0651	1	1	0.916
54	1	22	1	1	0.0535	0.0651	1	1	1.514
54	1	23	1	2	0.0535	0.0651	1	1	2.248
54	1	24	1	3	0.0535	0.0651	0	1	0.705
54	1	25	1	3	0.0535	0.0651	1	1	0.743
54	1	26	2	2	0.0535	0.0651	1	1	1.412
54	1	27	1	1	0.0535	0.0651	0	0	0.850
54	1	28	1	1	0.0535	0.0651	1	1	0.625
54	1	29	2	2	0.0535	0.0651	0	1	0.583
54	1	30	2	3	0.0535	0.0651	1	1	0.818
54	1	31	1	1	0.0535	0.0651	1	1	0.908
54	1	32	2	2	0.0535	0.0651	0	1	0.552
54	1	33	1	1	0.0535	0.0651	1	1	1.532
54	1	34	1	2	0.0535	0.0651	0	1	0.951
54	1	35	1	1	0.0535	0.0651	0	1	0.764
54	1	36	1	2	0.0535	0.0651	0	1	0.782
54	1	37	2	3	0.0535	0.0651	0	1	0.666
54	1	38	2	1	0.0535	0.0651	1	1	0.970
54	1	39	2	2	0.0535	0.0651	1	0	0.846
54	1	40	1	1	0.0535	0.0651	0	1	1.045
54	1	41	1	3	0.0535	0.0651	1	1	0.895
54	1	42	1	3	0.0535	0.0651	0	1	0.541
54	1	43	2	2	0.0535	0.0651	1	1	0.552
54	1	44	2	2	0.0535	0.0651	1	1	0.605
54	1	45	2	2	0.0535	0.0651	0	1	0.652
54	1	46	1	1	0.0535	0.0651	1	0	1.004
54	1	47	2	3	0.0535	0.0651	1	1	0.775
54	1	48	1	1	0.0535	0.0651	0	1	0.937
54	1	49	1	1	0.0535	0.0651	1	1	0.869
54	1	50	2	2	0.0535	0.0651	1	1	0.644
54	1	51	2	3	0.0535	0.0651	0	1	0.653
54	1	52	2	3	0.0535	0.0651	0	1	0.606
54	1	53	1	3	0.0535	0.0651	1	0	0.920
54	1	54	1	1	0.0535	0.0651	1	1	0.686
54	1	55	2	2	0.0535	0.0651	1	1	0.636
54	1	56	2	3	0.0535	0.0651	0	1	0.763
54	1	57	1	2	0.0535	0.0651	0	1	0.741
54	1	58	2	2	0.0535	0.0651	1	1	0.642
54	1	59	1	1	0.0535	0.0651	0	1	0.633
54	1	60	2	1	0.0535	0.0651	0	1	0.666
54	1	61	2	2	0.0535	0.0651	1	1	0.573
54	1	62	1	1	0.0535	0.0651	0	1	0.713
54	1	63	2	2	0.0535	0.0651	0	1	0.605
54	1	64	2	2	0.0535	0.0651	0	1	0.487
54	1	65	1	2	0.0535	0.0651	0	1	0.589
54	1	66	1	1	0.0535	0.0651	0	1	0.617
54	1	67	1	2	0.0535	0.0651	1	1	0.864
54	1	68	1	3	0.0535	0.0651	1	1	0.855
54	1	69	2	2	0.0535	0.0651	0	1	0.677
54	1	70	2	3	0.0535	0.0651	1	0	1.125
54	1	71	2	2	0.0535	0.0651	0	1	0.715
54	1	72	2	2	0.0535	0.0651	1	1	0.568
54	1	73	1	1	0.0535	0.0651	1	1	0.683
54	1	74	1	1	0.0535	0.0651	0	1	0.908
54	1	75	1	1	0.0535	0.0651	0	0	0.640
54	1	76	1	1	0.0535	0.0651	1	1	0.663
54	1	77	1	1	0.0535	0.0651	1	1	1.083
54	1	78	1	1	0.0535	0.0651	1	1	0.873
54	1	79	2	2	0.0535	0.0651	1	1	0.752
54	1	80	2	3	0.0535	0.0651	1	1	0.691
54	1	81	1	1	0.0535	0.0651	0	1	0.761
54	1	82	2	3	0.0535	0.0651	0	1	0.674
54	1	83	1	1	0.0535	0.0651	0	1	0.587
54	1	84	1	1	0.0535	0.0651	1	1	0.771
54	1	85	1	1	0.0535	0.0651	0	1	0.591
54	1	86	2	3	0.0535	0.0651	0	1	0.698
54	1	87	2	2	0.0535	0.0651	0	1	0.656
54	1	88	1	3	0.0535	0.0651	0	1	0.768
54	1	89	2	2	0.0535	0.0651	1	1	0.650
54	1	90	2	1	0.0535	0.0651	1	1	0.763
54	1	91	2	3	0.0535	0.0651	0	1	0.924
54	1	92	2	2	0.0535	0.0651	0	1	0.603
54	1	93	1	3	0.0535	0.0651	0	1	1.259
54	1	94	1	1	0.0535	0.0651	1	1	0.788
54	1	95	2	2	0.0535	0.0651	1	1	0.854
54	1	96	1	3	0.0535	0.0651	0	1	0.733
54	1	97	2	2	0.0535	0.0651	0	1	0.907
54	1	98	1	2	0.0535	0.0651	1	1	0.727
54	1	99	2	1	0.0535	0.0651	0	1	0.715
54	1	100	1	3	0.0535	0.0651	1	0	0.743
54	1	101	1	3	0.0535	0.0651	0	1	0.806
54	1	102	2	3	0.0535	0.0651	1	1	1.016
54	1	103	2	2	0.0535	0.0651	0	1	0.632
54	1	104	1	3	0.0535	0.0651	1	1	0.607
54	1	105	2	3	0.0535	0.0651	0	1	0.568
54	1	106	1	3	0.0535	0.0651	1	1	1.307
54	1	107	2	3	0.0535	0.0651	1	1	1.377
54	1	108	2	2	0.0535	0.0651	1	1	0.549
54	1	109	1	1	0.0535	0.0651	1	1	0.633
54	1	110	2	2	0.0535	0.0651	1	1	0.695
54	1	111	1	1	0.0535	0.0651	1	1	0.845
54	1	112	2	1	0.0535	0.0651	1	0	1.916
