sub	sess	t	rew	loc	cue	co1	co2	or	resp	rt	rew_tot	left_col	right_col
54	1	1	1	2	2	0.0535	0.0651	0	1	0.787	56	0	0
54	1	2	0	2	3	0.0535	0.0651	1	1	0.647	7	0	82
54	1	3	0	1	3	0.0535	0.0651	0	1	0.542	8	82	82
54	1	4	1	1	1	0.0535	0.0651	1	1	0.698	65	0	82
54	1	5	1	1	1	0.0535	0.0651	1	1	0.638	71	0	82
54	1	6	0	1	3	0.0535	0.0651	1	1	0.720	6	82	0
54	1	7	0	1	1	0.0535	0.0651	0	1	0.694	7	82	82
54	1	8	0	2	2	0.0535	0.0651	1	1	0.780	6	0	82
54	1	9	1	2	2	0.0535	0.0651	0	1	0.711	64	0	0
54	1	10	0	1	3	0.0535	0.0651	1	1	0.715	6	82	0
54	1	11	9	2	3	0.0535	0.0651	0	1	0.695	0	82	82
54	1	12	0	2	3	0.0535	0.0651	1	1	0.636	7	0	82
54	1	13	9	2	3	0.0535	0.0651	1	1	0.620	0	82	0
54	1	14	0	1	1	0.0535	0.0651	0	1	0.587	8	82	82
54	1	15	0	1	3	0.0535	0.0651	1	1	0.797	6	82	0
54	1	16	0	1	1	0.0535	0.0651	1	1	0.653	7	82	0
54	1	17	1	2	1	0.0535	0.0651	1	1	0.948	50	82	0
54	1	18	0	2	3	0.0535	0.0651	1	0	0.887	0	0	82
54	1	19	9	1	2	0.0535	0.0651	1	1	0.709	0	82	0
54	1	20	1	1	3	0.0535	0.0651	0	1	0.612	74	0	0
54	1	21	0	1	3	0.0535	0.0651	1	1	0.698	7	82	0
54	1	22	1	2	3	0.0535	0.0651	1	1	0.968	50	82	0
54	1	23	0	1	3	0.0535	0.0651	0	1	0.561	8	82	82
54	1	24	1	2	2	0.0535	0.0651	0	1	0.796	55	0	0
54	1	25	1	1	1	0.0535	0.0651	1	1	0.630	72	0	82
54	1	26	1	1	1	0.0535	0.0651	1	1	0.558	79	0	82
54	1	27	1	2	2	0.0535	0.0651	1	1	0.762	59	82	0
54	1	28	0	2	2	0.0535	0.0651	0	1	0.591	8	82	82
54	1	29	1	2	2	0.0535	0.0651	0	1	0.562	79	0	0
54	1	30	0	2	2	0.0535	0.0651	1	0	0.804	0	0	82
54	1	31	1	2	3	0.0535	0.0651	0	1	0.703	65	0	0
54	1	32	0	1	1	0.0535	0.0651	1	1	0.525	8	82	0
54	1	33	9	1	3	0.0535	0.0651	0	0	0.577	0	82	82
54	1	34	0	1	3	0.0535	0.0651	0	1	0.570	8	82	82
54	1	35	9	1	1	0.0535	0.0651	1	1	0.540	0	0	82
54	1	36	9	2	3	0.0535	0.0651	0	1	0.706	0	0	0
54	1	37	1	2	2	0.0535	0.0651	1	1	0.583	77	82	0
54	1	38	0	2	2	0.0535	0.0651	0	1	0.579	8	82	82
54	1	39	0	1	3	0.0535	0.0651	0	1	0.596	8	82	82
54	1	40	1	1	1	0.0535	0.0651	1	1	0.591	76	0	82
54	1	41	9	1	2	0.0535	0.0651	0	1	0.567	0	0	0
54	1	42	1	1	3	0.0535	0.0651	0	1	0.665	69	0	0
54	1	43	0	1	3	0.0535	0.0651	1	0	0.751	0	82	0
54	1	44	0	2	3	0.0535	0.0651	0	1	0.554	8	82	82
54	1	45	1	1	3	0.0535	0.0651	1	1	0.596	75	0	82
54	1	46	0	1	3	0.0535	0.0651	1	1	0.632	7	82	0
54	1	47	1	2	2	0.0535	0.0651	0	1	0.534	82	0	0
54	1	48	0	1	1	0.0535	0.0651	0	1	0.491	9	82	82
54	1	49	0	2	2	0.0535	0.0651	0	1	0.569	8	82	82
54	1	50	0	1	1	0.0535	0.0651	1	0	0.805	0	82	0
54	1	51	1	2	1	0.0535	0.0651	1	0	0.966	0	82	0
54	1	52	0	2	3	0.0535	0.0651	0	1	0.674	7	82	82
54	1	53	1	1	3	0.0535	0.0651	1	1	0.665	68	0	82
54	1	54	9	2	2	0.0535	0.0651	1	1	0.625	0	0	82
54	1	55	0	2	2	0.0535	0.0651	0	1	0.577	8	82	82
54	1	56	1	1	3	0.0535	0.0651	1	1	0.587	76	0	82
54	1	57	1	1	3	0.0535	0.0651	1	1	0.587	76	0	82
54	1	58	1	2	2	0.0535	0.0651	1	1	1.078	50	82	0
54	1	59	1	2	3	0.0535	0.0651	1	1	0.844	51	82	0
54	1	60	1	1	3	0.0535	0.0651	1	1	0.556	79	0	82
54	1	61	0	2	2	0.0535	0.0651	0	1	0.585	8	82	82
54	1	62	0	1	3	0.0535	0.0651	0	1	0.629	7	82	82
54	1	63	1	1	1	0.0535	0.0651	0	1	0.460	89	0	0
54	1	64	0	2	2	0.0535	0.0651	1	1	1.764	5	0	82
54	1	65	1	1	1	0.0535	0.0651	0	1	0.525	82	0	0
54	1	66	1	1	1	0.0535	0.0651	0	1	0.505	85	0	0
54	1	67	0	2	1	0.0535	0.0651	1	1	0.959	5	0	82
54	1	68	0	1	3	0.0535	0.0651	0	1	0.474	9	82	82
54	1	69	9	2	2	0.0535	0.0651	1	0	1.232	0	0	82
54	1	70	9	1	3	0.0535	0.0651	0	1	0.689	0	82	82
54	1	71	1	1	3	0.0535	0.0651	1	0	1.216	0	0	82
54	1	72	1	1	1	0.0535	0.0651	1	1	1.002	50	0	82
54	1	73	0	2	3	0.0535	0.0651	1	1	0.725	6	0	82
54	1	74	0	2	3	0.0535	0.0651	0	1	0.497	9	82	82
54	1	75	1	2	2	0.0535	0.0651	1	1	0.678	67	82	0
54	1	76	0	2	3	0.0535	0.0651	1	1	0.723	6	0	82
54	1	77	0	2	3	0.0535	0.0651	0	1	0.459	9	82	82
54	1	78	1	2	2	0.0535	0.0651	1	1	0.715	64	82	0
54	1	79	0	2	3	0.0535	0.0651	0	1	0.494	9	82	82
54	1	80	9	2	2	0.0535	0.0651	0	1	0.475	0	0	0
54	1	81	1	2	3	0.0535	0.0651	1	1	0.518	83	82	0
54	1	82	1	2	3	0.0535	0.0651	0	1	0.531	82	0	0
54	1	83	0	2	2	0.0535	0.0651	0	1	0.487	9	82	82
54	1	84	1	2	3	0.0535	0.0651	1	1	0.702	65	82	0
54	1	85	0	1	3	0.0535	0.0651	0	1	0.595	8	82	82
54	1	86	1	1	1	0.0535	0.0651	1	1	0.750	60	0	82
54	1	87	9	1	3	0.0535	0.0651	1	1	0.608	0	82	0
54	1	88	1	2	2	0.0535	0.0651	0	1	0.611	74	0	0
54	1	89	1	1	2	0.0535	0.0651	1	1	0.572	78	0	82
54	1	90	1	1	3	0.0535	0.0651	1	1	0.599	75	0	82
54	1	91	0	1	1	0.0535	0.0651	0	1	0.767	6	82	82
54	1	92	1	2	2	0.0535	0.0651	0	1	0.571	78	0	0
54	1	93	1	2	3	0.0535	0.0651	0	1	0.550	80	0	0
54	1	94	0	2	3	0.0535	0.0651	1	1	0.576	8	0	82
54	1	95	1	1	1	0.0535	0.0651	0	1	0.483	87	0	0
54	1	96	1	1	2	0.0535	0.0651	0	1	0.552	80	0	0
54	1	97	0	1	3	0.0535	0.0651	0	1	0.406	9	82	82
54	1	98	9	1	1	0.0535	0.0651	0	1	0.550	0	0	0
54	1	99	0	2	3	0.0535	0.0651	1	0	0.394	0	0	82
54	1	100	9	2	2	0.0535	0.0651	0	1	0.579	0	0	0
54	1	101	1	2	1	0.0535	0.0651	0	1	0.566	78	0	0
54	1	102	0	2	2	0.0535	0.0651	0	1	0.515	8	82	82
54	1	103	0	2	2	0.0535	0.0651	0	1	0.425	9	82	82
54	1	104	0	1	1	0.0535	0.0651	0	1	0.482	9	82	82
54	1	105	9	2	3	0.0535	0.0651	1	1	0.623	0	82	0
54	1	106	1	2	3	0.0535	0.0651	0	1	0.478	87	0	0
54	1	107	0	1	1	0.0535	0.0651	0	1	0.510	8	82	82
54	1	108	1	2	2	0.0535	0.0651	0	1	0.443	91	0	0
54	1	109	1	2	2	0.0535	0.0651	0	1	0.434	92	0	0
54	1	110	1	1	1	0.0535	0.0651	0	1	0.419	93	0	0
54	1	111	9	2	3	0.0535	0.0651	0	1	0.531	0	0	0
54	1	112	1	2	2	0.0535	0.0651	0	1	0.409	94	0	0
54	1	113	1	2	3	0.0535	0.0651	0	1	0.417	93	0	0
54	1	114	9	2	3	0.0535	0.0651	1	1	0.475	0	82	0
54	1	115	0	2	2	0.0535	0.0651	0	1	0.420	9	82	82
54	1	116	0	2	1	0.0535	0.0651	0	1	0.540	8	82	82
54	1	117	1	1	1	0.0535	0.0651	1	1	0.466	88	0	82
54	1	118	9	2	2	0.0535	0.0651	0	1	0.416	0	0	0
54	1	119	1	2	2	0.0535	0.0651	0	1	0.427	92	0	0
54	1	120	1	2	3	0.0535	0.0651	1	1	0.413	94	82	0
54	1	121	9	1	1	0.0535	0.0651	1	1	0.530	0	0	82
54	1	122	1	1	1	0.0535	0.0651	0	1	0.478	87	0	0
54	1	123	1	2	3	0.0535	0.0651	1	1	0.452	90	82	0
54	1	124	1	2	3	0.0535	0.0651	0	1	0.497	85	0	0
54	1	125	9	2	1	0.0535	0.0651	1	1	0.537	0	82	0
54	1	126	1	1	3	0.0535	0.0651	1	1	0.532	82	0	82
54	1	127	1	2	3	0.0535	0.0651	1	1	0.432	92	82	0
54	1	128	9	1	1	0.0535	0.0651	1	1	0.574	0	82	0
54	1	129	1	2	3	0.0535	0.0651	0	1	0.499	85	0	0
54	1	130	9	2	3	0.0535	0.0651	0	1	0.480	0	82	82
54	1	131	0	1	1	0.0535	0.0651	0	1	0.407	9	82	82
54	1	132	0	2	3	0.0535	0.0651	0	1	0.425	9	82	82
54	1	133	0	1	3	0.0535	0.0651	0	1	0.442	9	82	82
54	1	134	0	2	1	0.0535	0.0651	0	1	0.876	5	82	82
54	1	135	0	2	1	0.0535	0.0651	1	0	0.435	0	0	82
54	1	136	9	2	2	0.0535	0.0651	0	1	0.483	0	82	82
54	1	137	9	1	3	0.0535	0.0651	0	0	0.850	0	0	0
54	1	138	0	2	3	0.0535	0.0651	0	1	0.578	8	82	82
54	1	139	0	2	2	0.0535	0.0651	0	1	0.421	9	82	82
54	1	140	1	1	1	0.0535	0.0651	0	1	0.519	83	0	0
54	1	141	9	1	1	0.0535	0.0651	0	1	0.475	0	82	82
54	1	142	1	1	3	0.0535	0.0651	0	1	0.657	69	0	0
54	1	143	0	1	2	0.0535	0.0651	0	1	0.504	8	82	82
54	1	144	9	1	3	0.0535	0.0651	1	1	0.509	0	0	82
54	1	145	1	1	3	0.0535	0.0651	1	1	0.482	87	0	82
54	1	146	0	1	3	0.0535	0.0651	1	1	0.720	6	82	0
54	1	147	1	1	1	0.0535	0.0651	0	1	0.427	92	0	0
54	1	148	1	1	3	0.0535	0.0651	1	0	0.812	0	0	82
54	1	149	0	1	1	0.0535	0.0651	1	1	0.694	7	82	0
54	1	150	0	2	3	0.0535	0.0651	1	1	0.581	8	0	82
54	1	151	1	1	3	0.0535	0.0651	0	1	0.631	72	0	0
54	1	152	0	1	1	0.0535	0.0651	1	1	0.663	7	82	0
54	1	153	0	1	3	0.0535	0.0651	1	1	0.580	8	82	0
54	1	154	0	1	3	0.0535	0.0651	1	1	0.550	8	82	0
54	1	155	9	1	3	0.0535	0.0651	1	1	0.643	0	82	0
54	1	156	0	1	3	0.0535	0.0651	0	1	1.003	5	82	82
54	1	157	1	2	3	0.0535	0.0651	1	1	0.476	87	82	0
54	1	158	9	2	2	0.0535	0.0651	0	1	0.515	0	0	0
54	1	159	9	1	3	0.0535	0.0651	1	1	0.480	0	0	82
54	1	160	0	1	1	0.0535	0.0651	1	1	0.886	5	82	0
54	1	161	0	1	2	0.0535	0.0651	1	1	0.632	7	82	0
54	1	162	9	2	2	0.0535	0.0651	1	1	0.471	0	82	0
54	1	163	9	2	2	0.0535	0.0651	0	1	0.560	0	82	82
54	1	164	1	2	3	0.0535	0.0651	1	1	0.508	84	82	0
54	1	165	0	2	1	0.0535	0.0651	1	1	0.890	5	0	82
54	1	166	0	1	1	0.0535	0.0651	1	1	0.696	7	82	0
54	1	167	1	1	3	0.0535	0.0651	0	1	0.735	62	0	0
54	1	168	1	1	2	0.0535	0.0651	1	1	0.589	76	0	82
54	1	169	9	2	2	0.0535	0.0651	1	1	0.527	0	82	0
54	1	170	0	1	3	0.0535	0.0651	0	1	0.668	7	82	82
54	1	171	9	1	1	0.0535	0.0651	1	1	0.514	0	0	82
54	1	172	0	1	1	0.0535	0.0651	0	1	0.431	9	82	82
54	1	173	1	2	1	0.0535	0.0651	0	1	0.461	89	0	0
54	1	174	9	2	2	0.0535	0.0651	1	1	0.547	0	0	82
54	1	175	9	1	2	0.0535	0.0651	1	1	0.717	0	0	82
54	1	176	1	2	3	0.0535	0.0651	0	1	0.764	59	0	0
54	1	177	0	2	3	0.0535	0.0651	1	1	0.559	8	0	82
54	1	178	0	1	1	0.0535	0.0651	0	1	0.456	9	82	82
54	1	179	0	2	3	0.0535	0.0651	0	1	0.462	9	82	82
54	1	180	1	2	3	0.0535	0.0651	1	1	0.382	97	82	0
54	1	181	1	1	3	0.0535	0.0651	1	1	0.412	94	0	82
54	1	182	1	2	2	0.0535	0.0651	1	1	0.342	100	82	0
54	1	183	0	2	3	0.0535	0.0651	0	1	0.516	8	82	82
54	1	184	0	2	2	0.0535	0.0651	1	1	0.442	9	0	82
54	1	185	1	1	3	0.0535	0.0651	0	1	0.338	100	0	0
54	1	186	0	1	1	0.0535	0.0651	0	1	0.365	10	82	82
54	1	187	0	1	3	0.0535	0.0651	1	1	0.423	9	82	0
54	1	188	0	2	2	0.0535	0.0651	0	1	0.438	9	82	82
54	1	189	1	2	3	0.0535	0.0651	0	1	0.455	89	0	0
54	1	190	1	1	2	0.0535	0.0651	1	0	0.528	0	0	82
54	1	191	0	2	3	0.0535	0.0651	0	1	0.467	9	82	82
54	1	192	1	1	3	0.0535	0.0651	0	1	0.651	70	0	0
54	1	193	9	2	1	0.0535	0.0651	1	1	0.667	0	0	82
54	1	194	1	1	3	0.0535	0.0651	0	1	0.491	86	0	0
54	1	195	9	1	1	0.0535	0.0651	1	1	0.521	0	82	0
54	1	196	9	1	1	0.0535	0.0651	0	1	0.432	0	82	82
54	1	197	1	2	3	0.0535	0.0651	0	1	0.430	92	0	0
54	1	198	0	1	2	0.0535	0.0651	1	0	0.661	0	82	0
54	1	199	0	2	1	0.0535	0.0651	0	1	0.620	7	82	82
54	1	200	0	2	3	0.0535	0.0651	0	1	0.499	9	82	82
54	1	201	1	2	3	0.0535	0.0651	1	1	0.448	90	82	0
54	1	202	9	1	1	0.0535	0.0651	0	1	0.423	0	0	0
54	1	203	1	2	2	0.0535	0.0651	0	1	0.401	95	0	0
54	1	204	0	2	2	0.0535	0.0651	1	1	0.458	9	0	82
54	1	205	0	1	1	0.0535	0.0651	0	1	0.378	10	82	82
54	1	206	1	1	2	0.0535	0.0651	0	1	0.454	90	0	0
54	1	207	1	1	3	0.0535	0.0651	0	1	0.429	92	0	0
54	1	208	9	2	3	0.0535	0.0651	0	1	0.480	0	0	0
54	1	209	1	1	1	0.0535	0.0651	0	1	0.430	92	0	0
54	1	210	9	2	3	0.0535	0.0651	0	1	0.496	0	82	82
54	1	211	0	2	3	0.0535	0.0651	0	1	0.400	9	82	82
54	1	212	9	1	1	0.0535	0.0651	1	1	0.577	0	82	0
54	1	213	0	2	2	0.0535	0.0651	0	1	0.390	10	82	82
54	1	214	0	2	2	0.0535	0.0651	1	1	0.520	8	0	82
54	1	215	0	1	1	0.0535	0.0651	1	0	0.524	0	82	0
54	1	216	1	1	1	0.0535	0.0651	0	1	0.417	93	0	0
54	1	217	1	1	1	0.0535	0.0651	1	1	0.467	88	0	82
54	1	218	1	2	2	0.0535	0.0651	1	1	0.411	94	82	0
54	1	219	9	2	2	0.0535	0.0651	1	1	0.407	0	0	82
54	1	220	1	1	3	0.0535	0.0651	1	1	0.423	93	0	82
54	1	221	0	1	1	0.0535	0.0651	1	1	0.481	9	82	0
54	1	222	1	1	3	0.0535	0.0651	1	1	0.423	93	0	82
54	1	223	0	2	3	0.0535	0.0651	0	1	0.439	9	82	82
54	1	224	0	1	3	0.0535	0.0651	1	1	0.622	7	82	0
54	1	225	1	2	2	0.0535	0.0651	1	1	0.382	97	82	0
54	1	226	1	2	2	0.0535	0.0651	1	1	0.377	97	82	0
54	1	227	0	2	2	0.0535	0.0651	1	1	0.470	9	0	82
54	1	228	9	1	1	0.0535	0.0651	0	1	0.526	0	0	0
54	1	229	0	1	1	0.0535	0.0651	0	1	0.530	8	82	82
54	1	230	1	2	2	0.0535	0.0651	1	1	0.398	95	82	0
54	1	231	9	2	2	0.0535	0.0651	0	1	0.457	0	82	82
54	1	232	1	2	2	0.0535	0.0651	1	1	0.409	94	82	0
54	1	233	1	1	1	0.0535	0.0651	1	1	0.418	93	0	82
54	1	234	1	1	3	0.0535	0.0651	0	1	0.389	96	0	0
54	1	235	0	2	2	0.0535	0.0651	1	1	0.407	9	0	82
54	1	236	1	2	3	0.0535	0.0651	1	0	0.642	0	82	0
54	1	237	0	2	3	0.0535	0.0651	1	1	0.461	9	0	82
54	1	238	0	1	3	0.0535	0.0651	0	1	0.493	9	82	82
54	1	239	1	2	3	0.0535	0.0651	0	1	0.499	85	0	0
54	1	240	1	1	1	0.0535	0.0651	0	1	0.426	92	0	0
54	1	241	0	1	3	0.0535	0.0651	0	1	0.417	9	82	82
54	1	242	0	1	1	0.0535	0.0651	0	1	0.466	9	82	82
54	1	243	9	1	1	0.0535	0.0651	0	1	0.407	0	82	82
54	1	244	9	2	2	0.0535	0.0651	1	1	0.610	0	82	0
54	1	245	1	1	3	0.0535	0.0651	0	1	0.419	93	0	0
54	1	246	1	2	3	0.0535	0.0651	0	1	0.428	92	0	0
54	1	247	1	2	3	0.0535	0.0651	1	1	0.364	99	82	0
54	1	248	1	2	2	0.0535	0.0651	0	1	0.511	84	0	0
54	1	249	1	1	3	0.0535	0.0651	1	0	0.493	0	0	82
54	1	250	0	2	2	0.0535	0.0651	1	1	0.404	9	0	82
54	1	251	1	1	1	0.0535	0.0651	1	1	0.454	90	0	82
54	1	252	1	1	3	0.0535	0.0651	0	1	0.637	71	0	0
54	1	253	1	1	3	0.0535	0.0651	1	1	0.396	95	0	82
54	1	254	9	2	1	0.0535	0.0651	0	1	0.461	0	0	0
54	1	255	9	1	3	0.0535	0.0651	0	1	0.460	0	82	82
54	1	256	1	2	2	0.0535	0.0651	1	1	0.363	99	82	0
54	1	257	0	1	3	0.0535	0.0651	1	0	0.591	0	82	0
54	1	258	1	2	3	0.0535	0.0651	0	1	0.473	88	0	0
54	1	259	0	1	1	0.0535	0.0651	0	1	0.433	9	82	82
54	1	260	1	1	1	0.0535	0.0651	1	1	0.767	58	0	82
54	1	261	1	2	2	0.0535	0.0651	1	1	0.394	96	82	0
54	1	262	0	2	2	0.0535	0.0651	1	1	0.550	8	0	82
54	1	263	0	1	1	0.0535	0.0651	0	1	0.423	9	82	82
54	1	264	1	2	2	0.0535	0.0651	1	0	0.424	0	82	0
54	1	265	9	2	2	0.0535	0.0651	0	1	0.520	0	82	82
54	1	266	1	1	1	0.0535	0.0651	0	1	0.535	82	0	0
54	1	267	1	2	2	0.0535	0.0651	0	1	0.411	94	0	0
54	1	268	9	2	3	0.0535	0.0651	1	1	0.621	0	0	82
54	1	269	9	1	2	0.0535	0.0651	0	1	0.517	0	82	82
54	1	270	1	1	1	0.0535	0.0651	0	1	0.417	93	0	0
54	1	271	9	1	3	0.0535	0.0651	1	1	0.472	0	0	82
54	1	272	0	1	1	0.0535	0.0651	1	0	0.671	0	82	0
54	1	273	1	2	1	0.0535	0.0651	1	0	0.660	0	82	0
54	1	274	0	2	1	0.0535	0.0651	0	0	0.554	0	82	82
54	1	275	1	2	3	0.0535	0.0651	0	1	0.541	81	0	0
54	1	276	9	2	3	0.0535	0.0651	1	1	0.697	0	0	82
54	1	277	9	1	3	0.0535	0.0651	0	1	0.668	0	82	82
54	1	278	9	1	3	0.0535	0.0651	0	1	0.572	0	0	0
54	1	279	1	1	3	0.0535	0.0651	0	1	0.760	59	0	0
54	1	280	1	2	3	0.0535	0.0651	1	0	0.718	0	82	0
54	1	281	1	1	2	0.0535	0.0651	0	1	0.543	81	0	0
54	1	282	0	1	2	0.0535	0.0651	1	1	0.994	5	82	0
54	1	283	0	1	3	0.0535	0.0651	1	1	0.563	8	82	0
54	1	284	9	2	3	0.0535	0.0651	0	1	0.551	0	82	82
54	1	285	0	2	3	0.0535	0.0651	1	0	0.728	0	0	82
54	1	286	1	2	2	0.0535	0.0651	0	1	0.604	75	0	0
54	1	287	1	1	1	0.0535	0.0651	1	1	0.765	58	0	82
54	1	288	0	2	3	0.0535	0.0651	1	1	0.495	9	0	82
54	1	289	0	1	2	0.0535	0.0651	0	1	0.526	8	82	82
54	1	290	0	2	2	0.0535	0.0651	1	1	0.434	9	0	82
54	1	291	0	2	3	0.0535	0.0651	0	1	0.538	8	82	82
54	1	292	0	2	2	0.0535	0.0651	1	1	0.581	8	0	82
54	1	293	9	1	3	0.0535	0.0651	0	1	1.480	0	0	0
54	1	294	1	2	2	0.0535	0.0651	1	1	0.479	87	82	0
54	1	295	0	2	2	0.0535	0.0651	0	1	0.517	8	82	82
54	1	296	0	1	3	0.0535	0.0651	1	1	0.778	6	82	0
54	1	297	1	1	1	0.0535	0.0651	0	1	0.419	93	0	0
54	1	298	1	2	2	0.0535	0.0651	1	1	0.406	94	82	0
54	1	299	0	2	2	0.0535	0.0651	0	1	0.462	9	82	82
54	1	300	0	2	2	0.0535	0.0651	1	1	0.411	9	0	82
54	1	301	1	2	2	0.0535	0.0651	0	1	0.417	93	0	0
54	1	302	0	1	2	0.0535	0.0651	0	1	0.562	8	82	82
54	1	303	9	2	2	0.0535	0.0651	1	1	0.438	0	82	0
54	1	304	0	2	3	0.0535	0.0651	1	1	0.716	6	0	82
54	1	305	0	1	3	0.0535	0.0651	0	1	0.522	8	82	82
54	1	306	0	1	2	0.0535	0.0651	0	1	0.512	8	82	82
54	1	307	0	1	1	0.0535	0.0651	1	1	0.468	9	82	0
54	1	308	1	1	3	0.0535	0.0651	0	1	0.796	55	0	0
54	1	309	0	2	2	0.0535	0.0651	1	1	0.479	9	0	82
54	1	310	9	1	1	0.0535	0.0651	1	1	0.573	0	82	0
54	1	311	0	1	1	0.0535	0.0651	1	1	0.527	8	82	0
54	1	312	0	2	3	0.0535	0.0651	0	1	0.483	9	82	82
54	1	313	9	2	1	0.0535	0.0651	0	1	0.569	0	82	82
54	1	314	1	1	1	0.0535	0.0651	1	0	0.997	0	0	82
54	1	315	0	1	3	0.0535	0.0651	0	1	0.833	5	82	82
54	1	316	9	2	3	0.0535	0.0651	1	1	0.572	0	0	82
54	1	317	9	1	1	0.0535	0.0651	1	1	0.470	0	0	82
54	1	318	0	2	2	0.0535	0.0651	0	1	0.490	9	82	82
54	1	319	0	1	1	0.0535	0.0651	0	1	0.456	9	82	82
54	1	320	0	2	1	0.0535	0.0651	1	1	0.511	8	0	82
54	1	321	9	2	3	0.0535	0.0651	0	1	0.425	0	0	0
54	1	322	1	2	3	0.0535	0.0651	0	1	0.457	89	0	0
54	1	323	9	1	1	0.0535	0.0651	0	1	0.457	0	82	82
54	1	324	0	1	1	0.0535	0.0651	1	1	0.778	6	82	0
54	1	325	1	2	1	0.0535	0.0651	1	0	1.099	0	82	0
54	1	326	1	2	3	0.0535	0.0651	1	1	0.490	86	82	0
54	1	327	0	1	2	0.0535	0.0651	1	1	1.218	5	82	0
54	1	328	1	1	3	0.0535	0.0651	0	1	0.548	80	0	0
54	1	329	0	2	3	0.0535	0.0651	1	1	0.450	9	0	82
54	1	330	0	1	3	0.0535	0.0651	1	1	0.737	6	82	0
54	1	331	9	2	3	0.0535	0.0651	1	1	0.524	0	0	82
54	1	332	9	1	3	0.0535	0.0651	1	0	0.928	0	82	0
54	1	333	1	2	1	0.0535	0.0651	0	1	0.629	72	0	0
54	1	334	1	1	3	0.0535	0.0651	1	1	0.605	75	0	82
54	1	335	1	1	1	0.0535	0.0651	1	1	0.534	82	0	82
54	1	336	1	2	1	0.0535	0.0651	0	1	0.675	68	0	0
54	1	337	0	1	3	0.0535	0.0651	1	1	0.776	6	82	0
54	1	338	9	2	3	0.0535	0.0651	1	0	0.588	0	82	0
54	1	339	0	1	3	0.0535	0.0651	0	1	0.639	7	82	82
54	1	340	1	1	1	0.0535	0.0651	0	1	0.455	89	0	0
54	1	341	0	1	1	0.0535	0.0651	1	1	0.557	8	82	0
54	1	342	0	2	3	0.0535	0.0651	0	1	0.441	9	82	82
54	1	343	9	1	3	0.0535	0.0651	1	1	0.531	0	82	0
54	1	344	0	2	2	0.0535	0.0651	0	1	0.429	9	82	82
54	1	345	9	1	3	0.0535	0.0651	1	1	0.503	0	0	82
54	1	346	1	2	3	0.0535	0.0651	1	1	0.549	80	82	0
54	1	347	0	2	2	0.0535	0.0651	1	1	0.441	9	0	82
54	1	348	0	2	3	0.0535	0.0651	1	0	1.257	0	0	82
54	1	349	0	1	1	0.0535	0.0651	1	1	0.584	8	82	0
54	1	350	1	1	2	0.0535	0.0651	0	1	0.632	72	0	0
54	1	351	1	1	3	0.0535	0.0651	0	1	0.441	91	0	0
54	1	352	1	1	1	0.0535	0.0651	1	1	0.627	72	0	82
54	1	353	1	2	3	0.0535	0.0651	0	1	0.478	87	0	0
54	1	354	0	1	1	0.0535	0.0651	1	1	0.550	8	82	0
54	1	355	0	2	3	0.0535	0.0651	1	1	0.592	8	0	82
54	1	356	9	1	1	0.0535	0.0651	0	1	0.387	0	0	0
54	1	357	1	1	1	0.0535	0.0651	0	1	0.381	97	0	0
54	1	358	9	1	3	0.0535	0.0651	0	1	0.400	0	0	0
54	1	359	1	1	2	0.0535	0.0651	1	1	0.665	69	0	82
54	1	360	0	2	2	0.0535	0.0651	1	1	0.417	9	0	82
54	1	361	1	1	1	0.0535	0.0651	0	1	0.387	96	0	0
54	1	362	9	2	2	0.0535	0.0651	1	1	0.336	0	82	0
54	1	363	1	1	1	0.0535	0.0651	0	1	0.380	97	0	0
54	1	364	9	2	1	0.0535	0.0651	1	1	0.414	0	82	0
54	1	365	0	1	3	0.0535	0.0651	0	1	0.510	8	82	82
54	1	366	1	1	2	0.0535	0.0651	0	1	0.422	93	0	0
54	1	367	0	1	1	0.0535	0.0651	1	1	0.711	6	82	0
54	1	368	0	2	2	0.0535	0.0651	0	1	0.507	8	82	82
54	1	369	9	2	3	0.0535	0.0651	1	1	0.518	0	0	82
54	1	370	9	1	3	0.0535	0.0651	0	1	0.419	0	82	82
54	1	371	0	2	2	0.0535	0.0651	1	1	0.381	10	0	82
54	1	372	1	2	1	0.0535	0.0651	0	1	0.630	72	0	0
54	1	373	9	1	2	0.0535	0.0651	1	1	0.679	0	0	82
54	1	374	9	1	3	0.0535	0.0651	1	1	0.702	0	82	0
54	1	375	1	1	1	0.0535	0.0651	1	1	0.451	90	0	82
54	1	376	1	1	3	0.0535	0.0651	0	1	0.545	80	0	0
54	1	377	1	1	2	0.0535	0.0651	1	1	0.725	63	0	82
54	1	378	9	2	3	0.0535	0.0651	1	0	0.688	0	82	0
54	1	379	9	2	2	0.0535	0.0651	1	1	0.502	0	0	82
54	1	380	1	2	2	0.0535	0.0651	0	1	0.469	88	0	0
54	1	381	1	2	2	0.0535	0.0651	1	1	0.379	97	82	0
54	1	382	1	1	1	0.0535	0.0651	0	1	0.437	91	0	0
54	1	383	0	1	3	0.0535	0.0651	0	1	0.428	9	82	82
54	1	384	1	1	3	0.0535	0.0651	1	1	0.548	80	0	82
54	1	385	1	2	2	0.0535	0.0651	0	1	0.471	88	0	0
54	1	386	1	1	1	0.0535	0.0651	1	1	0.430	92	0	82
54	1	387	0	2	1	0.0535	0.0651	0	1	0.543	8	82	82
54	1	388	9	2	3	0.0535	0.0651	0	1	0.442	0	0	0
54	1	389	9	1	1	0.0535	0.0651	0	1	0.436	0	0	0
54	1	390	9	2	3	0.0535	0.0651	1	1	0.461	0	0	82
54	1	391	9	1	1	0.0535	0.0651	0	1	0.366	0	82	82
54	1	392	1	2	3	0.0535	0.0651	0	1	0.441	91	0	0
54	1	393	9	2	3	0.0535	0.0651	1	1	0.481	0	82	0
54	1	394	1	2	2	0.0535	0.0651	1	1	0.951	50	82	0
54	1	395	0	1	2	0.0535	0.0651	0	1	0.508	8	82	82
54	1	396	0	2	3	0.0535	0.0651	0	1	0.856	5	82	82
54	1	397	9	1	1	0.0535	0.0651	1	0	0.504	0	82	0
54	1	398	0	1	3	0.0535	0.0651	0	1	0.524	8	82	82
54	1	399	1	2	3	0.0535	0.0651	1	1	0.497	85	82	0
54	1	400	0	2	3	0.0535	0.0651	1	1	0.551	8	0	82
54	1	401	1	2	3	0.0535	0.0651	1	1	0.372	98	82	0
54	1	402	0	2	2	0.0535	0.0651	1	1	0.376	10	0	82
54	1	403	9	2	2	0.0535	0.0651	0	0	0.427	0	82	82
54	1	404	9	1	1	0.0535	0.0651	1	1	0.542	0	0	82
54	1	405	9	1	3	0.0535	0.0651	0	1	0.505	0	82	82
54	1	406	1	2	3	0.0535	0.0651	1	1	0.446	90	82	0
54	1	407	0	1	3	0.0535	0.0651	1	1	0.558	8	82	0
54	1	408	0	2	3	0.0535	0.0651	1	1	0.508	8	0	82
54	1	409	0	2	1	0.0535	0.0651	1	1	0.490	9	0	82
54	1	410	1	2	2	0.0535	0.0651	0	1	0.406	94	0	0
54	1	411	0	1	2	0.0535	0.0651	1	1	0.690	7	82	0
54	1	412	1	1	3	0.0535	0.0651	1	1	0.496	85	0	82
54	1	413	1	1	3	0.0535	0.0651	1	1	0.455	89	0	82
54	1	414	9	1	3	0.0535	0.0651	1	1	0.776	0	0	82
54	1	415	1	1	3	0.0535	0.0651	0	1	0.394	96	0	0
54	1	416	9	1	3	0.0535	0.0651	0	1	0.415	0	82	82
54	1	417	9	1	3	0.0535	0.0651	0	1	0.378	0	0	0
54	1	418	0	1	2	0.0535	0.0651	1	0	0.498	0	82	0
54	1	419	1	2	3	0.0535	0.0651	1	1	0.465	88	82	0
54	1	420	1	1	3	0.0535	0.0651	1	1	0.591	76	0	82
54	1	421	9	2	3	0.0535	0.0651	1	1	0.459	0	0	82
54	1	422	9	2	3	0.0535	0.0651	1	1	0.497	0	82	0
54	1	423	0	1	1	0.0535	0.0651	1	1	0.789	6	82	0
54	1	424	1	1	3	0.0535	0.0651	1	1	0.440	91	0	82
54	1	425	1	1	1	0.0535	0.0651	0	1	0.439	91	0	0
54	1	426	1	2	2	0.0535	0.0651	0	1	0.447	90	0	0
54	1	427	0	2	2	0.0535	0.0651	1	1	0.375	10	0	82
54	1	428	1	1	3	0.0535	0.0651	1	0	1.088	0	0	82
54	1	429	1	1	3	0.0535	0.0651	1	1	0.543	81	0	82
54	1	430	0	1	1	0.0535	0.0651	0	1	0.476	9	82	82
54	1	431	9	2	3	0.0535	0.0651	0	1	0.564	0	82	82
54	1	432	9	2	3	0.0535	0.0651	0	1	0.408	0	82	82
54	1	433	0	1	1	0.0535	0.0651	0	1	0.466	9	82	82
54	1	434	0	1	2	0.0535	0.0651	1	1	0.835	5	82	0
54	1	435	0	2	3	0.0535	0.0651	1	1	0.524	8	0	82
54	1	436	0	1	3	0.0535	0.0651	1	0	0.520	0	82	0
54	1	437	0	2	3	0.0535	0.0651	0	1	0.453	9	82	82
54	1	438	1	2	1	0.0535	0.0651	1	1	0.468	88	82	0
54	1	439	0	1	1	0.0535	0.0651	0	1	0.636	7	82	82
54	1	440	1	1	2	0.0535	0.0651	1	1	0.646	70	0	82
54	1	441	1	2	3	0.0535	0.0651	0	1	0.922	50	0	0
54	1	442	9	2	3	0.0535	0.0651	1	1	0.397	0	82	0
54	1	443	0	1	1	0.0535	0.0651	1	1	0.440	9	82	0
54	1	444	1	2	2	0.0535	0.0651	1	1	0.384	97	82	0
54	1	445	0	1	3	0.0535	0.0651	0	1	0.530	8	82	82
54	1	446	1	1	1	0.0535	0.0651	1	1	0.541	81	0	82
54	1	447	9	1	3	0.0535	0.0651	1	0	0.473	0	82	0
54	1	448	1	1	2	0.0535	0.0651	1	1	0.624	73	0	82
54	1	449	0	2	3	0.0535	0.0651	0	1	0.505	8	82	82
54	1	450	1	2	3	0.0535	0.0651	0	1	0.431	92	0	0
54	1	451	1	2	3	0.0535	0.0651	1	1	0.488	86	82	0
54	1	452	0	2	2	0.0535	0.0651	0	1	0.463	9	82	82
54	1	453	1	2	2	0.0535	0.0651	0	1	0.444	91	0	0
54	1	454	1	1	3	0.0535	0.0651	0	1	0.425	92	0	0
54	1	455	9	2	2	0.0535	0.0651	0	1	0.378	0	0	0
54	1	456	0	2	2	0.0535	0.0651	0	1	0.380	10	82	82
54	1	457	1	2	3	0.0535	0.0651	0	1	0.400	95	0	0
54	1	458	0	2	3	0.0535	0.0651	1	1	0.401	9	0	82
54	1	459	0	1	1	0.0535	0.0651	0	1	0.428	9	82	82
54	1	460	9	2	3	0.0535	0.0651	1	1	0.450	0	0	82
54	1	461	1	2	2	0.0535	0.0651	1	1	0.394	96	82	0
54	1	462	1	1	3	0.0535	0.0651	1	1	0.607	74	0	82
54	1	463	0	2	1	0.0535	0.0651	0	0	0.536	0	82	82
54	1	464	0	1	3	0.0535	0.0651	1	1	0.739	6	82	0
54	1	465	0	1	1	0.0535	0.0651	1	1	0.576	8	82	0
54	1	466	0	2	2	0.0535	0.0651	0	0	0.384	0	82	82
54	1	467	0	1	1	0.0535	0.0651	1	1	0.619	7	82	0
54	1	468	0	1	1	0.0535	0.0651	0	1	0.467	9	82	82
54	1	469	1	2	2	0.0535	0.0651	0	1	0.426	92	0	0
54	1	470	0	1	1	0.0535	0.0651	0	1	0.459	9	82	82
54	1	471	1	1	3	0.0535	0.0651	0	1	0.493	86	0	0
54	1	472	1	1	3	0.0535	0.0651	1	0	0.420	0	0	82
54	1	473	1	1	1	0.0535	0.0651	1	1	0.484	87	0	82
54	1	474	9	1	1	0.0535	0.0651	0	1	0.441	0	0	0
54	1	475	0	2	3	0.0535	0.0651	1	1	1.025	5	0	82
54	1	476	1	2	3	0.0535	0.0651	0	1	0.602	75	0	0
54	1	477	1	1	3	0.0535	0.0651	1	1	0.868	50	0	82
54	1	478	1	1	1	0.0535	0.0651	0	1	0.435	92	0	0
54	1	479	1	2	3	0.0535	0.0651	1	1	0.436	91	82	0
54	1	480	1	1	1	0.0535	0.0651	1	1	0.573	78	0	82
54	1	481	1	2	3	0.0535	0.0651	0	1	0.611	74	0	0
54	1	482	0	1	2	0.0535	0.0651	0	1	0.485	9	82	82
54	1	483	9	1	1	0.0535	0.0651	0	1	0.418	0	82	82
54	1	484	0	1	1	0.0535	0.0651	0	1	0.411	9	82	82
54	1	485	0	1	1	0.0535	0.0651	0	1	0.356	10	82	82
54	1	486	9	1	3	0.0535	0.0651	0	1	0.458	0	0	0
54	1	487	1	2	2	0.0535	0.0651	0	1	0.489	86	0	0
54	1	488	1	2	3	0.0535	0.0651	0	1	0.440	91	0	0
54	1	489	0	2	2	0.0535	0.0651	1	1	0.410	9	0	82
54	1	490	1	2	2	0.0535	0.0651	0	1	0.435	92	0	0
54	1	491	1	1	1	0.0535	0.0651	1	1	0.441	91	0	82
54	1	492	0	2	2	0.0535	0.0651	0	1	0.563	8	82	82
54	1	493	1	2	2	0.0535	0.0651	1	1	0.404	95	82	0
54	1	494	9	2	2	0.0535	0.0651	1	1	0.517	0	0	82
54	1	495	0	1	1	0.0535	0.0651	0	1	0.410	9	82	82
54	1	496	0	2	2	0.0535	0.0651	1	1	0.398	10	0	82
54	1	497	0	2	3	0.0535	0.0651	1	1	0.511	8	0	82
54	1	498	0	2	3	0.0535	0.0651	1	1	0.396	10	0	82
54	1	499	0	1	2	0.0535	0.0651	0	1	0.464	9	82	82
54	1	500	1	2	2	0.0535	0.0651	1	1	0.384	97	82	0
54	1	501	0	2	2	0.0535	0.0651	1	1	0.386	10	0	82
54	1	502	9	2	1	0.0535	0.0651	1	0	0.476	0	0	82
54	1	503	0	1	2	0.0535	0.0651	1	0	0.516	0	82	0
54	1	504	9	1	3	0.0535	0.0651	0	1	0.505	0	82	82
54	1	505	1	1	3	0.0535	0.0651	1	1	0.718	63	0	82
54	1	506	0	1	3	0.0535	0.0651	0	1	0.466	9	82	82
54	1	507	1	1	1	0.0535	0.0651	1	1	0.425	93	0	82
54	1	508	0	1	3	0.0535	0.0651	0	1	0.505	8	82	82
54	1	509	0	1	1	0.0535	0.0651	1	0	0.496	0	82	0
54	1	510	1	1	1	0.0535	0.0651	0	1	0.495	85	0	0
54	1	511	1	1	1	0.0535	0.0651	1	1	0.414	94	0	82
54	1	512	0	1	1	0.0535	0.0651	0	1	0.439	9	82	82
54	1	513	0	2	2	0.0535	0.0651	1	1	0.529	8	0	82
54	1	514	9	1	1	0.0535	0.0651	1	1	0.429	0	0	82
54	1	515	1	1	1	0.0535	0.0651	0	1	0.669	68	0	0
54	1	516	0	2	1	0.0535	0.0651	1	1	0.508	8	0	82
54	1	517	9	2	2	0.0535	0.0651	1	1	0.864	0	82	0
54	1	518	0	2	3	0.0535	0.0651	0	1	0.513	8	82	82
54	1	519	0	1	3	0.0535	0.0651	0	1	0.621	7	82	82
54	1	520	0	2	1	0.0535	0.0651	0	1	0.487	9	82	82
54	1	521	1	1	2	0.0535	0.0651	0	1	0.547	80	0	0
54	1	522	0	2	3	0.0535	0.0651	1	0	0.544	0	0	82
54	1	523	0	1	3	0.0535	0.0651	1	1	0.710	6	82	0
54	1	524	1	2	3	0.0535	0.0651	1	0	0.418	0	82	0
54	1	525	0	1	1	0.0535	0.0651	1	1	0.506	8	82	0
54	1	526	0	1	3	0.0535	0.0651	0	1	0.464	9	82	82
54	1	527	1	1	3	0.0535	0.0651	0	1	0.461	89	0	0
54	1	528	0	2	2	0.0535	0.0651	0	1	0.499	9	82	82
54	1	529	1	2	3	0.0535	0.0651	1	1	0.402	95	82	0
54	1	530	1	1	1	0.0535	0.0651	0	1	0.406	94	0	0
54	1	531	1	2	3	0.0535	0.0651	1	1	0.383	97	82	0
54	1	532	0	2	2	0.0535	0.0651	1	1	0.409	9	0	82
54	1	533	0	1	1	0.0535	0.0651	1	1	0.523	8	82	0
54	1	534	0	1	3	0.0535	0.0651	0	1	0.385	10	82	82
54	1	535	1	1	1	0.0535	0.0651	0	1	0.361	99	0	0
54	1	536	1	2	3	0.0535	0.0651	0	1	0.437	91	0	0
54	1	537	0	2	3	0.0535	0.0651	1	1	0.542	8	0	82
54	1	538	0	1	3	0.0535	0.0651	1	1	0.760	6	82	0
54	1	539	9	2	2	0.0535	0.0651	1	1	0.428	0	0	82
54	1	540	9	1	3	0.0535	0.0651	1	1	0.523	0	0	82
54	1	541	0	2	2	0.0535	0.0651	0	1	0.583	8	82	82
54	1	542	9	2	2	0.0535	0.0651	0	1	0.392	0	0	0
54	1	543	1	2	1	0.0535	0.0651	0	1	0.529	82	0	0
54	1	544	1	2	2	0.0535	0.0651	1	1	0.383	97	82	0
54	1	545	9	1	1	0.0535	0.0651	1	1	0.625	0	0	82
54	1	546	1	2	2	0.0535	0.0651	0	1	0.410	94	0	0
54	1	547	1	1	3	0.0535	0.0651	1	1	0.433	92	0	82
54	1	548	1	2	3	0.0535	0.0651	1	1	0.473	88	82	0
54	1	549	0	1	1	0.0535	0.0651	0	1	0.760	6	82	82
54	1	550	9	1	1	0.0535	0.0651	1	1	0.474	0	82	0
54	1	551	1	1	1	0.0535	0.0651	0	1	0.416	93	0	0
54	1	552	1	2	3	0.0535	0.0651	0	1	0.527	82	0	0
54	1	553	1	1	2	0.0535	0.0651	0	1	0.430	92	0	0
54	1	554	9	1	1	0.0535	0.0651	0	1	0.398	0	82	82
54	1	555	1	1	3	0.0535	0.0651	0	1	0.341	100	0	0
54	1	556	9	1	3	0.0535	0.0651	1	0	0.392	0	82	0
54	1	557	9	2	2	0.0535	0.0651	1	1	0.419	0	82	0
54	1	558	0	1	1	0.0535	0.0651	0	1	0.364	10	82	82
54	1	559	0	2	1	0.0535	0.0651	1	0	0.472	0	0	82
54	1	560	1	1	3	0.0535	0.0651	0	1	0.528	82	0	0
54	1	561	9	1	1	0.0535	0.0651	0	1	0.376	0	0	0
54	1	562	1	2	2	0.0535	0.0651	0	1	0.387	96	0	0
54	1	563	0	2	3	0.0535	0.0651	0	1	0.422	9	82	82
54	1	564	9	2	3	0.0535	0.0651	0	1	0.425	0	82	82
54	1	565	1	1	1	0.0535	0.0651	1	1	0.466	88	0	82
54	1	566	1	2	2	0.0535	0.0651	1	1	0.443	91	82	0
54	1	567	1	2	1	0.0535	0.0651	0	1	0.635	72	0	0
54	1	568	0	1	3	0.0535	0.0651	1	1	0.900	5	82	0
54	1	569	0	2	3	0.0535	0.0651	1	1	0.505	8	0	82
54	1	570	9	1	3	0.0535	0.0651	1	0	0.566	0	82	0
54	1	571	1	2	2	0.0535	0.0651	1	1	0.371	98	82	0
54	1	572	0	2	2	0.0535	0.0651	1	1	0.516	8	0	82
54	1	573	0	2	3	0.0535	0.0651	1	1	0.431	9	0	82
54	1	574	0	2	2	0.0535	0.0651	0	1	0.705	6	82	82
54	1	575	0	1	3	0.0535	0.0651	1	0	0.888	0	82	0
54	1	576	0	1	3	0.0535	0.0651	0	0	0.471	0	82	82
54	1	577	1	1	3	0.0535	0.0651	1	1	0.555	79	0	82
54	1	578	1	2	2	0.0535	0.0651	1	1	1.046	50	82	0
54	1	579	0	2	3	0.0535	0.0651	0	1	0.543	8	82	82
54	1	580	1	2	2	0.0535	0.0651	1	1	0.354	100	82	0
54	1	581	1	1	3	0.0535	0.0651	0	1	0.427	92	0	0
54	1	582	9	2	2	0.0535	0.0651	0	1	0.485	0	82	82
54	1	583	1	2	3	0.0535	0.0651	0	1	0.563	79	0	0
54	1	584	0	2	2	0.0535	0.0651	1	1	0.351	10	0	82
54	1	585	0	2	2	0.0535	0.0651	0	1	0.444	9	82	82
54	1	586	0	1	3	0.0535	0.0651	0	1	0.532	8	82	82
54	1	587	1	2	3	0.0535	0.0651	0	1	0.457	89	0	0
54	1	588	1	1	3	0.0535	0.0651	0	1	0.475	88	0	0
54	1	589	1	1	1	0.0535	0.0651	1	1	0.489	86	0	82
54	1	590	0	1	3	0.0535	0.0651	1	1	0.862	5	82	0
54	1	591	0	2	2	0.0535	0.0651	0	1	0.397	10	82	82
54	1	592	0	1	1	0.0535	0.0651	0	1	0.663	7	82	82
54	1	593	0	1	3	0.0535	0.0651	1	1	0.677	7	82	0
54	1	594	1	2	3	0.0535	0.0651	0	1	0.438	91	0	0
54	1	595	1	2	1	0.0535	0.0651	0	1	0.576	77	0	0
54	1	596	1	1	1	0.0535	0.0651	0	1	0.386	96	0	0
54	1	597	1	2	3	0.0535	0.0651	0	1	0.365	99	0	0
54	1	598	1	2	3	0.0535	0.0651	0	1	0.359	99	0	0
54	1	599	1	1	1	0.0535	0.0651	0	1	0.409	94	0	0
54	1	600	0	2	3	0.0535	0.0651	1	1	0.501	8	0	82
54	1	601	0	2	3	0.0535	0.0651	0	1	0.551	8	82	82
54	1	602	0	2	2	0.0535	0.0651	0	1	0.450	9	82	82
54	1	603	1	2	2	0.0535	0.0651	0	1	0.361	99	0	0
54	1	604	0	2	2	0.0535	0.0651	0	1	0.326	10	82	82
54	1	605	0	1	3	0.0535	0.0651	1	1	0.514	8	82	0
54	1	606	0	2	3	0.0535	0.0651	0	1	0.382	10	82	82
54	1	607	0	1	1	0.0535	0.0651	1	1	0.641	7	82	0
54	1	608	9	2	1	0.0535	0.0651	0	1	0.523	0	82	82
54	1	609	0	2	3	0.0535	0.0651	1	1	0.544	8	0	82
54	1	610	0	2	2	0.0535	0.0651	0	1	0.556	8	82	82
54	1	611	0	2	2	0.0535	0.0651	1	1	0.517	8	0	82
54	1	612	9	1	2	0.0535	0.0651	0	0	0.540	0	0	0
54	1	613	1	1	2	0.0535	0.0651	1	1	0.567	78	0	82
54	1	614	1	2	3	0.0535	0.0651	1	1	0.524	83	82	0
54	1	615	0	1	3	0.0535	0.0651	0	1	0.392	10	82	82
54	1	616	0	2	3	0.0535	0.0651	0	1	0.464	9	82	82
54	1	617	1	2	3	0.0535	0.0651	1	1	0.383	97	82	0
54	1	618	9	2	2	0.0535	0.0651	0	1	0.449	0	0	0
54	1	619	9	1	1	0.0535	0.0651	0	1	0.400	0	0	0
54	1	620	0	2	3	0.0535	0.0651	1	1	0.690	7	0	82
54	1	621	9	2	3	0.0535	0.0651	0	0	0.530	0	82	82
54	1	622	1	1	2	0.0535	0.0651	0	1	0.496	85	0	0
54	1	623	0	1	3	0.0535	0.0651	1	0	0.485	0	82	0
54	1	624	0	2	3	0.0535	0.0651	0	1	0.467	9	82	82
54	1	625	0	1	3	0.0535	0.0651	0	1	0.512	8	82	82
54	1	626	1	2	3	0.0535	0.0651	1	1	0.405	94	82	0
54	1	627	0	1	1	0.0535	0.0651	1	1	0.865	5	82	0
54	1	628	0	1	3	0.0535	0.0651	1	1	0.751	6	82	0
54	1	629	1	2	3	0.0535	0.0651	1	0	0.994	0	82	0
54	1	630	0	1	1	0.0535	0.0651	1	1	0.596	8	82	0
54	1	631	1	1	1	0.0535	0.0651	0	1	0.581	77	0	0
54	1	632	9	2	2	0.0535	0.0651	0	1	0.496	0	82	82
54	1	633	9	2	2	0.0535	0.0651	0	1	0.414	0	0	0
54	1	634	0	1	3	0.0535	0.0651	1	1	0.597	8	82	0
54	1	635	1	1	1	0.0535	0.0651	0	1	0.414	94	0	0
54	1	636	0	2	3	0.0535	0.0651	0	1	0.593	8	82	82
54	1	637	0	1	1	0.0535	0.0651	0	1	0.428	9	82	82
54	1	638	9	2	2	0.0535	0.0651	1	1	0.423	0	0	82
54	1	639	1	2	2	0.0535	0.0651	1	1	0.399	95	82	0
54	1	640	1	1	3	0.0535	0.0651	1	1	0.794	56	0	82
54	1	641	9	2	3	0.0535	0.0651	0	1	0.502	0	0	0
54	1	642	1	2	3	0.0535	0.0651	0	1	0.395	96	0	0
54	1	643	9	2	1	0.0535	0.0651	0	0	0.509	0	0	0
54	1	644	1	1	3	0.0535	0.0651	0	1	0.507	84	0	0
54	1	645	0	1	1	0.0535	0.0651	1	1	0.607	7	82	0
54	1	646	9	2	2	0.0535	0.0651	0	1	0.440	0	82	82
54	1	647	9	1	1	0.0535	0.0651	1	1	0.553	0	82	0
54	1	648	1	1	1	0.0535	0.0651	0	1	0.396	95	0	0
54	1	649	1	2	2	0.0535	0.0651	0	1	0.388	96	0	0
54	1	650	1	2	1	0.0535	0.0651	1	1	0.712	64	82	0
54	1	651	0	1	1	0.0535	0.0651	0	1	0.357	10	82	82
54	1	652	1	2	2	0.0535	0.0651	0	0	0.361	0	0	0
54	1	653	0	2	2	0.0535	0.0651	1	1	0.405	9	0	82
54	1	654	0	2	2	0.0535	0.0651	0	1	0.408	9	82	82
54	1	655	0	2	2	0.0535	0.0651	1	1	0.425	9	0	82
54	1	656	0	1	2	0.0535	0.0651	0	1	0.548	8	82	82
54	1	657	0	2	2	0.0535	0.0651	0	1	0.457	9	82	82
54	1	658	9	1	1	0.0535	0.0651	1	1	0.490	0	0	82
54	1	659	1	2	2	0.0535	0.0651	0	1	0.343	100	0	0
54	1	660	9	2	3	0.0535	0.0651	0	1	0.386	0	0	0
54	1	661	0	1	1	0.0535	0.0651	1	1	0.517	8	82	0
54	1	662	9	1	2	0.0535	0.0651	1	1	0.489	0	82	0
54	1	663	1	1	1	0.0535	0.0651	1	1	0.488	86	0	82
54	1	664	1	2	3	0.0535	0.0651	1	1	0.981	50	82	0
54	1	665	0	2	2	0.0535	0.0651	1	1	0.512	8	0	82
54	1	666	1	1	3	0.0535	0.0651	0	1	0.573	78	0	0
54	1	667	1	2	3	0.0535	0.0651	0	1	0.399	95	0	0
54	1	668	0	1	3	0.0535	0.0651	1	1	1.008	5	82	0
54	1	669	0	2	3	0.0535	0.0651	0	1	0.385	10	82	82
54	1	670	1	1	3	0.0535	0.0651	0	1	0.533	82	0	0
54	1	671	0	2	1	0.0535	0.0651	1	0	0.400	0	0	82
54	1	672	9	1	1	0.0535	0.0651	0	1	0.404	0	82	82
54	1	673	1	1	1	0.0535	0.0651	1	1	0.540	81	0	82
54	1	674	1	1	1	0.0535	0.0651	0	1	0.320	100	0	0
54	1	675	0	1	1	0.0535	0.0651	1	1	0.548	8	82	0
54	1	676	0	2	2	0.0535	0.0651	1	1	0.464	9	0	82
54	1	677	0	1	3	0.0535	0.0651	0	1	0.518	8	82	82
54	1	678	1	2	2	0.0535	0.0651	1	1	0.364	99	82	0
54	1	679	0	1	3	0.0535	0.0651	0	1	0.470	9	82	82
54	1	680	0	2	1	0.0535	0.0651	0	1	0.494	9	82	82
54	1	681	9	1	2	0.0535	0.0651	0	1	0.541	0	82	82
54	1	682	9	1	1	0.0535	0.0651	1	0	0.577	0	82	0
54	1	683	1	1	3	0.0535	0.0651	1	1	0.499	85	0	82
54	1	684	0	2	2	0.0535	0.0651	0	1	0.359	10	82	82
54	1	685	0	1	1	0.0535	0.0651	0	1	0.512	8	82	82
54	1	686	0	2	2	0.0535	0.0651	1	1	0.436	9	0	82
54	1	687	0	2	3	0.0535	0.0651	1	1	0.443	9	0	82
54	1	688	0	2	3	0.0535	0.0651	0	1	0.540	8	82	82
54	1	689	9	1	3	0.0535	0.0651	0	1	0.424	0	0	0
54	1	690	1	2	1	0.0535	0.0651	1	0	0.440	0	82	0
54	1	691	1	2	2	0.0535	0.0651	1	1	0.375	98	82	0
54	1	692	1	1	3	0.0535	0.0651	1	1	0.546	80	0	82
54	1	693	1	1	3	0.0535	0.0651	0	1	0.694	66	0	0
54	1	694	0	1	3	0.0535	0.0651	1	1	0.697	7	82	0
54	1	695	1	2	3	0.0535	0.0651	1	0	0.775	0	82	0
54	1	696	0	1	3	0.0535	0.0651	1	0	0.803	0	82	0
54	1	697	1	1	1	0.0535	0.0651	1	0	0.925	0	0	82
54	1	698	9	2	2	0.0535	0.0651	1	1	0.465	0	82	0
54	1	699	0	1	1	0.0535	0.0651	1	1	0.839	5	82	0
54	1	700	9	2	3	0.0535	0.0651	0	1	0.615	0	0	0
54	1	701	0	2	3	0.0535	0.0651	0	1	0.546	8	82	82
54	1	702	0	2	3	0.0535	0.0651	0	1	0.382	10	82	82
54	1	703	1	2	2	0.0535	0.0651	1	1	0.424	93	82	0
54	1	704	9	1	3	0.0535	0.0651	1	1	0.601	0	0	82
54	1	705	1	2	1	0.0535	0.0651	1	1	0.485	87	82	0
54	1	706	1	1	3	0.0535	0.0651	0	1	0.459	89	0	0
54	1	707	1	2	2	0.0535	0.0651	0	1	0.489	86	0	0
54	1	708	0	1	1	0.0535	0.0651	1	1	0.503	8	82	0
54	1	709	0	2	3	0.0535	0.0651	0	1	0.421	9	82	82
54	1	710	1	2	2	0.0535	0.0651	0	1	0.405	95	0	0
54	1	711	1	1	3	0.0535	0.0651	0	1	0.527	82	0	0
54	1	712	9	1	3	0.0535	0.0651	0	1	0.379	0	0	0
54	1	713	1	1	1	0.0535	0.0651	1	1	0.436	91	0	82
54	1	714	0	2	3	0.0535	0.0651	1	0	0.662	0	0	82
54	1	715	1	1	3	0.0535	0.0651	0	1	0.420	93	0	0
54	1	716	1	1	1	0.0535	0.0651	1	1	0.460	89	0	82
54	1	717	1	2	2	0.0535	0.0651	1	1	0.396	95	82	0
54	1	718	1	1	1	0.0535	0.0651	1	1	0.429	92	0	82
54	1	719	0	1	3	0.0535	0.0651	0	1	0.423	9	82	82
54	1	720	9	1	3	0.0535	0.0651	1	1	0.438	0	0	82
