sub	sess	t	rew	loc	cue	co1	co2	or	resp	rt	rew_tot	left_col	right_col
100	1	1	9	2	3	0.0500	0.1139	1	1	0.487	0	82	0
100	1	2	9	2	1	0.0500	0.1139	0	1	0.468	0	0	0
100	1	3	1	2	2	0.0500	0.1139	0	1	0.471	88	0	0
100	1	4	0	1	1	0.0500	0.1139	0	1	0.378	10	82	82
100	1	5	1	1	1	0.0500	0.1139	0	0	0.540	0	0	0
100	1	6	9	1	3	0.0500	0.1139	1	1	0.465	0	82	0
100	1	7	1	1	1	0.0500	0.1139	1	1	0.551	80	0	82
100	1	8	1	2	1	0.0500	0.1139	1	1	0.421	93	82	0
100	1	9	0	2	3	0.0500	0.1139	0	1	0.411	9	82	82
100	1	10	1	1	2	0.0500	0.1139	0	1	0.505	85	0	0
100	1	11	1	2	3	0.0500	0.1139	1	1	0.397	95	82	0
100	1	12	9	1	1	0.0500	0.1139	0	0	0.453	0	0	0
100	1	13	0	1	1	0.0500	0.1139	0	1	0.514	8	82	82
100	1	14	0	2	2	0.0500	0.1139	1	1	0.482	9	0	82
100	1	15	0	1	3	0.0500	0.1139	1	1	0.430	9	82	0
100	1	16	0	2	2	0.0500	0.1139	0	1	0.409	9	82	82
100	1	17	1	2	2	0.0500	0.1139	1	1	0.367	98	82	0
100	1	18	0	1	3	0.0500	0.1139	1	1	0.383	10	82	0
100	1	19	1	1	1	0.0500	0.1139	1	1	0.368	98	0	82
100	1	20	0	2	1	0.0500	0.1139	0	0	0.418	0	82	82
100	1	21	1	2	2	0.0500	0.1139	1	0	0.338	0	82	0
100	1	22	1	1	3	0.0500	0.1139	0	1	0.466	88	0	0
100	1	23	1	2	3	0.0500	0.1139	0	1	0.386	96	0	0
100	1	24	0	2	3	0.0500	0.1139	0	1	0.442	9	82	82
100	1	25	1	2	3	0.0500	0.1139	0	1	0.427	92	0	0
100	1	26	1	2	2	0.0500	0.1139	0	1	0.388	96	0	0
100	1	27	9	2	2	0.0500	0.1139	1	1	0.443	0	0	82
100	1	28	1	2	2	0.0500	0.1139	0	1	0.399	95	0	0
100	1	29	1	1	1	0.0500	0.1139	0	0	0.447	0	0	0
100	1	30	0	1	1	0.0500	0.1139	1	1	0.497	9	82	0
100	1	31	0	2	3	0.0500	0.1139	1	0	0.633	0	0	82
100	1	32	0	1	1	0.0500	0.1139	0	1	0.560	8	82	82
100	1	33	9	1	1	0.0500	0.1139	0	1	0.490	0	0	0
100	1	34	1	1	1	0.0500	0.1139	1	1	0.968	50	0	82
100	1	35	1	2	2	0.0500	0.1139	0	1	0.537	81	0	0
100	1	36	9	1	2	0.0500	0.1139	1	1	0.605	0	82	0
100	1	37	1	2	1	0.0500	0.1139	0	1	0.440	91	0	0
100	1	38	9	2	3	0.0500	0.1139	0	1	0.549	0	0	0
100	1	39	9	1	3	0.0500	0.1139	0	0	0.824	0	82	82
100	1	40	9	2	2	0.0500	0.1139	0	1	0.418	0	0	0
100	1	41	0	1	2	0.0500	0.1139	1	1	0.442	9	82	0
100	1	42	0	2	2	0.0500	0.1139	0	1	0.421	9	82	82
100	1	43	1	1	3	0.0500	0.1139	0	0	0.391	0	0	0
100	1	44	1	1	3	0.0500	0.1139	1	1	1.072	50	0	82
100	1	45	0	1	3	0.0500	0.1139	1	1	0.433	9	82	0
100	1	46	0	2	2	0.0500	0.1139	1	1	0.451	9	0	82
100	1	47	9	1	2	0.0500	0.1139	1	1	0.435	0	0	82
100	1	48	9	2	3	0.0500	0.1139	0	1	0.531	0	82	82
100	1	49	9	1	1	0.0500	0.1139	0	1	0.345	0	82	82
100	1	50	0	1	1	0.0500	0.1139	0	0	0.454	0	82	82
100	1	51	1	1	1	0.0500	0.1139	1	1	0.418	93	0	82
100	1	52	0	2	3	0.0500	0.1139	0	1	0.429	9	82	82
100	1	53	1	1	3	0.0500	0.1139	1	1	0.331	100	0	82
100	1	54	0	1	1	0.0500	0.1139	1	0	0.273	0	82	0
100	1	55	0	1	1	0.0500	0.1139	1	1	0.610	7	82	0
100	1	56	0	1	3	0.0500	0.1139	0	0	0.354	0	82	82
100	1	57	0	2	1	0.0500	0.1139	1	0	0.540	0	0	82
100	1	58	0	1	1	0.0500	0.1139	1	1	0.636	7	82	0
100	1	59	0	2	1	0.0500	0.1139	1	1	1.228	5	0	82
100	1	60	1	2	2	0.0500	0.1139	1	1	0.454	90	82	0
100	1	61	0	1	3	0.0500	0.1139	0	1	0.486	9	82	82
100	1	62	9	2	3	0.0500	0.1139	0	1	0.412	0	0	0
100	1	63	1	1	3	0.0500	0.1139	1	0	0.548	0	0	82
100	1	64	0	2	3	0.0500	0.1139	0	1	0.392	10	82	82
100	1	65	1	1	2	0.0500	0.1139	1	1	0.423	93	0	82
100	1	66	0	2	3	0.0500	0.1139	1	1	0.987	5	0	82
100	1	67	0	2	3	0.0500	0.1139	1	0	0.568	0	0	82
100	1	68	1	1	3	0.0500	0.1139	0	1	0.491	86	0	0
100	1	69	0	2	2	0.0500	0.1139	1	1	0.487	9	0	82
100	1	70	1	1	1	0.0500	0.1139	1	1	0.446	90	0	82
100	1	71	0	2	2	0.0500	0.1139	1	0	0.549	0	0	82
100	1	72	0	2	2	0.0500	0.1139	1	1	0.656	7	0	82
100	1	73	0	2	3	0.0500	0.1139	1	1	0.838	5	0	82
100	1	74	0	1	3	0.0500	0.1139	1	1	0.750	6	82	0
100	1	75	1	1	1	0.0500	0.1139	1	1	0.473	88	0	82
100	1	76	9	2	2	0.0500	0.1139	0	1	0.569	0	82	82
100	1	77	1	2	3	0.0500	0.1139	1	1	0.562	79	82	0
100	1	78	9	1	1	0.0500	0.1139	1	1	0.508	0	82	0
100	1	79	9	2	3	0.0500	0.1139	1	0	0.652	0	0	82
100	1	80	1	1	2	0.0500	0.1139	1	1	0.506	84	0	82
100	1	81	1	1	1	0.0500	0.1139	1	1	0.438	91	0	82
100	1	82	0	1	1	0.0500	0.1139	1	1	0.412	9	82	0
100	1	83	0	2	3	0.0500	0.1139	1	1	0.529	8	0	82
100	1	84	1	1	1	0.0500	0.1139	1	1	0.411	94	0	82
100	1	85	1	2	2	0.0500	0.1139	0	1	0.361	99	0	0
100	1	86	1	2	2	0.0500	0.1139	1	1	0.353	100	82	0
100	1	87	0	2	3	0.0500	0.1139	1	1	0.670	7	0	82
100	1	88	0	1	1	0.0500	0.1139	0	1	0.392	10	82	82
100	1	89	1	1	3	0.0500	0.1139	1	1	0.468	88	0	82
100	1	90	0	2	3	0.0500	0.1139	1	0	0.496	0	0	82
100	1	91	1	1	3	0.0500	0.1139	1	1	0.721	63	0	82
100	1	92	1	2	3	0.0500	0.1139	1	1	0.535	82	82	0
100	1	93	0	2	3	0.0500	0.1139	0	0	0.313	0	82	82
100	1	94	1	1	3	0.0500	0.1139	1	1	0.516	83	0	82
100	1	95	0	1	3	0.0500	0.1139	1	1	0.603	7	82	0
100	1	96	1	1	1	0.0500	0.1139	0	1	0.469	88	0	0
100	1	97	1	1	3	0.0500	0.1139	0	1	0.699	65	0	0
100	1	98	0	1	1	0.0500	0.1139	0	0	0.619	0	82	82
100	1	99	0	2	1	0.0500	0.1139	1	0	0.588	0	0	82
100	1	100	9	2	2	0.0500	0.1139	0	1	0.572	0	0	0
100	1	101	1	1	2	0.0500	0.1139	0	1	0.518	83	0	0
100	1	102	1	1	1	0.0500	0.1139	1	1	0.401	95	0	82
100	1	103	0	2	3	0.0500	0.1139	1	0	0.474	0	0	82
100	1	104	9	2	2	0.0500	0.1139	0	0	0.317	0	0	0
100	1	105	1	1	1	0.0500	0.1139	0	0	0.347	0	0	0
100	1	106	1	2	2	0.0500	0.1139	1	1	0.401	95	82	0
100	1	107	1	2	2	0.0500	0.1139	0	1	0.410	94	0	0
100	1	108	1	2	2	0.0500	0.1139	0	1	0.429	92	0	0
100	1	109	9	1	1	0.0500	0.1139	0	1	0.457	0	0	0
100	1	110	0	1	3	0.0500	0.1139	1	1	0.459	9	82	0
100	1	111	0	1	1	0.0500	0.1139	0	1	0.485	9	82	82
100	1	112	1	2	1	0.0500	0.1139	1	1	0.294	100	82	0
100	1	113	0	2	2	0.0500	0.1139	0	0	0.369	0	82	82
100	1	114	9	2	3	0.0500	0.1139	1	1	0.374	0	82	0
100	1	115	0	1	1	0.0500	0.1139	1	1	0.467	9	82	0
100	1	116	0	2	3	0.0500	0.1139	0	1	0.409	9	82	82
100	1	117	9	1	3	0.0500	0.1139	0	1	0.558	0	82	82
100	1	118	1	1	1	0.0500	0.1139	0	1	0.415	93	0	0
100	1	119	0	1	3	0.0500	0.1139	1	1	0.402	9	82	0
100	1	120	0	1	1	0.0500	0.1139	1	1	0.358	10	82	0
100	1	121	0	1	2	0.0500	0.1139	0	1	0.434	9	82	82
100	1	122	1	1	1	0.0500	0.1139	0	1	0.345	100	0	0
100	1	123	0	2	2	0.0500	0.1139	1	0	0.443	0	0	82
100	1	124	9	1	3	0.0500	0.1139	1	1	0.384	0	82	0
100	1	125	1	1	1	0.0500	0.1139	1	1	0.410	94	0	82
100	1	126	1	1	3	0.0500	0.1139	1	1	0.406	94	0	82
100	1	127	1	1	3	0.0500	0.1139	1	1	0.425	92	0	82
100	1	128	9	1	3	0.0500	0.1139	0	1	0.325	0	82	82
100	1	129	0	2	3	0.0500	0.1139	1	1	0.413	9	0	82
100	1	130	0	1	1	0.0500	0.1139	0	1	0.373	10	82	82
100	1	131	0	2	2	0.0500	0.1139	1	1	0.578	8	0	82
100	1	132	0	1	1	0.0500	0.1139	1	1	0.461	9	82	0
100	1	133	1	1	3	0.0500	0.1139	0	1	0.477	87	0	0
100	1	134	0	2	2	0.0500	0.1139	1	0	0.478	0	0	82
100	1	135	1	1	1	0.0500	0.1139	1	1	0.354	100	0	82
100	1	136	1	2	3	0.0500	0.1139	0	1	0.369	98	0	0
100	1	137	1	2	2	0.0500	0.1139	1	1	0.360	99	82	0
100	1	138	1	2	3	0.0500	0.1139	0	1	0.365	98	0	0
100	1	139	1	2	2	0.0500	0.1139	1	1	0.336	100	82	0
100	1	140	9	2	1	0.0500	0.1139	1	1	0.314	0	82	0
100	1	141	0	1	3	0.0500	0.1139	1	1	0.385	10	82	0
100	1	142	1	2	2	0.0500	0.1139	1	1	0.330	100	82	0
100	1	143	0	1	1	0.0500	0.1139	0	0	0.385	0	82	82
100	1	144	0	2	2	0.0500	0.1139	0	1	0.536	8	82	82
100	1	145	1	1	3	0.0500	0.1139	1	1	0.436	91	0	82
100	1	146	1	1	3	0.0500	0.1139	0	1	0.346	100	0	0
100	1	147	9	1	3	0.0500	0.1139	0	0	0.280	0	0	0
100	1	148	1	2	3	0.0500	0.1139	0	1	0.455	90	0	0
100	1	149	1	1	3	0.0500	0.1139	0	0	0.349	0	0	0
100	1	150	9	1	3	0.0500	0.1139	1	0	0.345	0	0	82
100	1	151	0	1	1	0.0500	0.1139	0	1	0.322	10	82	82
100	1	152	1	2	2	0.0500	0.1139	0	0	0.334	0	0	0
100	1	153	9	1	1	0.0500	0.1139	1	1	0.435	0	82	0
100	1	154	1	1	3	0.0500	0.1139	1	1	0.454	90	0	82
100	1	155	0	2	3	0.0500	0.1139	0	0	0.403	0	82	82
100	1	156	1	1	3	0.0500	0.1139	1	1	1.079	50	0	82
100	1	157	9	1	1	0.0500	0.1139	1	1	0.472	0	82	0
100	1	158	1	2	3	0.0500	0.1139	1	1	0.455	89	82	0
100	1	159	1	2	1	0.0500	0.1139	0	1	0.288	100	0	0
100	1	160	9	2	3	0.0500	0.1139	0	0	0.285	0	0	0
100	1	161	1	2	3	0.0500	0.1139	1	1	0.402	95	82	0
100	1	162	1	2	3	0.0500	0.1139	1	1	0.360	99	82	0
100	1	163	1	2	3	0.0500	0.1139	1	1	0.425	92	82	0
100	1	164	9	2	3	0.0500	0.1139	0	1	0.097	0	82	82
100	1	165	0	2	3	0.0500	0.1139	0	0	0.354	0	82	82
100	1	166	1	2	2	0.0500	0.1139	0	1	0.213	100	0	0
100	1	167	0	1	3	0.0500	0.1139	0	1	0.248	10	82	82
100	1	168	1	1	1	0.0500	0.1139	0	1	0.321	100	0	0
100	1	169	1	2	3	0.0500	0.1139	0	0	0.279	0	0	0
100	1	170	0	1	3	0.0500	0.1139	1	1	0.554	8	82	0
100	1	171	0	1	1	0.0500	0.1139	0	1	0.408	9	82	82
100	1	172	1	1	2	0.0500	0.1139	1	0	0.316	0	0	82
100	1	173	0	2	2	0.0500	0.1139	1	0	0.344	0	0	82
100	1	174	1	1	3	0.0500	0.1139	1	1	0.463	89	0	82
100	1	175	1	1	1	0.0500	0.1139	1	1	0.438	91	0	82
100	1	176	9	1	3	0.0500	0.1139	1	1	0.363	0	0	82
100	1	177	1	2	3	0.0500	0.1139	1	1	0.554	80	82	0
100	1	178	1	2	1	0.0500	0.1139	1	1	0.359	99	82	0
100	1	179	9	2	3	0.0500	0.1139	0	1	0.288	0	82	82
100	1	180	0	2	3	0.0500	0.1139	1	0	0.771	0	0	82
100	1	181	1	1	2	0.0500	0.1139	0	1	0.396	95	0	0
100	1	182	1	1	2	0.0500	0.1139	1	1	0.401	95	0	82
100	1	183	0	2	2	0.0500	0.1139	1	1	0.450	9	0	82
100	1	184	0	2	3	0.0500	0.1139	0	1	0.426	9	82	82
100	1	185	1	2	3	0.0500	0.1139	1	0	0.312	0	82	0
100	1	186	9	1	1	0.0500	0.1139	0	0	0.354	0	82	82
100	1	187	0	2	2	0.0500	0.1139	1	0	0.560	0	0	82
100	1	188	1	2	3	0.0500	0.1139	1	1	0.277	100	82	0
100	1	189	0	1	1	0.0500	0.1139	1	1	0.476	9	82	0
100	1	190	0	2	2	0.0500	0.1139	0	1	0.621	7	82	82
100	1	191	0	1	1	0.0500	0.1139	1	1	0.613	7	82	0
100	1	192	9	2	2	0.0500	0.1139	1	1	0.435	0	82	0
100	1	193	1	2	2	0.0500	0.1139	0	1	0.489	86	0	0
100	1	194	0	1	3	0.0500	0.1139	1	1	0.442	9	82	0
100	1	195	9	1	3	0.0500	0.1139	0	1	0.516	0	82	82
100	1	196	1	2	3	0.0500	0.1139	1	1	0.418	93	82	0
100	1	197	1	2	2	0.0500	0.1139	1	1	0.435	92	82	0
100	1	198	9	2	2	0.0500	0.1139	1	0	0.469	0	0	82
100	1	199	1	1	3	0.0500	0.1139	0	0	0.313	0	0	0
100	1	200	1	2	2	0.0500	0.1139	0	1	0.350	100	0	0
100	1	201	0	1	3	0.0500	0.1139	1	1	0.543	8	82	0
100	1	202	0	2	1	0.0500	0.1139	1	1	0.675	7	0	82
100	1	203	1	1	1	0.0500	0.1139	0	1	0.466	88	0	0
100	1	204	0	2	3	0.0500	0.1139	0	1	0.410	9	82	82
100	1	205	0	1	2	0.0500	0.1139	1	1	0.394	10	82	0
100	1	206	9	1	1	0.0500	0.1139	1	0	0.546	0	0	82
100	1	207	1	2	3	0.0500	0.1139	0	1	0.453	90	0	0
100	1	208	0	2	3	0.0500	0.1139	0	1	0.431	9	82	82
100	1	209	0	2	2	0.0500	0.1139	0	0	0.319	0	82	82
100	1	210	0	1	3	0.0500	0.1139	0	1	0.364	10	82	82
100	1	211	9	1	1	0.0500	0.1139	1	1	0.430	0	0	82
100	1	212	1	2	2	0.0500	0.1139	1	1	0.377	97	82	0
100	1	213	0	2	3	0.0500	0.1139	1	0	0.354	0	0	82
100	1	214	1	2	2	0.0500	0.1139	0	0	0.359	0	0	0
100	1	215	9	1	3	0.0500	0.1139	1	0	0.412	0	82	0
100	1	216	0	1	1	0.0500	0.1139	0	1	0.380	10	82	82
100	1	217	0	2	2	0.0500	0.1139	0	1	0.404	9	82	82
100	1	218	0	2	2	0.0500	0.1139	1	0	0.463	0	0	82
100	1	219	0	2	2	0.0500	0.1139	1	1	0.416	9	0	82
100	1	220	0	1	2	0.0500	0.1139	0	0	0.452	0	82	82
100	1	221	1	2	2	0.0500	0.1139	1	1	0.433	92	82	0
100	1	222	9	2	3	0.0500	0.1139	1	1	0.375	0	82	0
100	1	223	9	1	1	0.0500	0.1139	0	1	0.361	0	0	0
100	1	224	0	2	2	0.0500	0.1139	0	1	0.376	10	82	82
100	1	225	9	2	3	0.0500	0.1139	1	0	0.254	0	0	82
100	1	226	0	2	2	0.0500	0.1139	0	0	0.283	0	82	82
100	1	227	1	1	1	0.0500	0.1139	0	1	0.177	100	0	0
100	1	228	9	2	2	0.0500	0.1139	1	1	0.385	0	82	0
100	1	229	0	2	3	0.0500	0.1139	0	1	0.411	9	82	82
100	1	230	1	2	3	0.0500	0.1139	1	1	0.296	100	82	0
100	1	231	1	1	3	0.0500	0.1139	0	1	0.434	92	0	0
100	1	232	1	2	3	0.0500	0.1139	0	0	0.387	0	0	0
100	1	233	1	2	3	0.0500	0.1139	0	1	0.245	100	0	0
100	1	234	9	2	2	0.0500	0.1139	0	0	0.261	0	82	82
100	1	235	0	1	3	0.0500	0.1139	1	0	0.573	0	82	0
100	1	236	1	2	2	0.0500	0.1139	0	1	0.401	95	0	0
100	1	237	1	1	2	0.0500	0.1139	0	0	0.518	0	0	0
100	1	238	9	2	2	0.0500	0.1139	0	1	0.434	0	82	82
100	1	239	9	2	3	0.0500	0.1139	1	1	0.646	0	0	82
100	1	240	0	2	1	0.0500	0.1139	0	1	0.471	9	82	82
100	1	241	9	2	3	0.0500	0.1139	1	1	0.387	0	82	0
100	1	242	9	1	3	0.0500	0.1139	0	1	0.429	0	0	0
100	1	243	1	2	2	0.0500	0.1139	0	1	0.351	100	0	0
100	1	244	0	2	3	0.0500	0.1139	1	1	0.454	9	0	82
100	1	245	1	2	2	0.0500	0.1139	1	1	0.359	99	82	0
100	1	246	1	1	3	0.0500	0.1139	0	1	0.338	100	0	0
100	1	247	0	1	3	0.0500	0.1139	0	1	0.338	10	82	82
100	1	248	1	1	1	0.0500	0.1139	1	1	0.269	100	0	82
100	1	249	0	2	2	0.0500	0.1139	1	0	0.313	0	0	82
100	1	250	9	1	3	0.0500	0.1139	0	1	0.465	0	0	0
100	1	251	1	1	1	0.0500	0.1139	0	1	0.381	97	0	0
100	1	252	9	2	2	0.0500	0.1139	1	1	0.308	0	82	0
100	1	253	0	1	1	0.0500	0.1139	1	1	0.505	8	82	0
100	1	254	1	1	3	0.0500	0.1139	0	1	0.214	100	0	0
100	1	255	1	2	2	0.0500	0.1139	1	1	0.303	100	82	0
100	1	256	1	1	3	0.0500	0.1139	0	1	0.276	100	0	0
100	1	257	0	1	1	0.0500	0.1139	1	1	0.229	10	82	0
100	1	258	0	1	2	0.0500	0.1139	1	0	0.481	0	82	0
100	1	259	1	1	3	0.0500	0.1139	0	1	0.297	100	0	0
100	1	260	0	2	3	0.0500	0.1139	0	1	0.562	8	82	82
100	1	261	1	2	3	0.0500	0.1139	0	1	0.478	87	0	0
100	1	262	1	1	3	0.0500	0.1139	0	1	0.208	100	0	0
100	1	263	1	2	2	0.0500	0.1139	1	1	0.271	100	82	0
100	1	264	0	1	1	0.0500	0.1139	0	1	0.310	10	82	82
100	1	265	1	2	3	0.0500	0.1139	1	1	0.298	100	82	0
100	1	266	1	2	3	0.0500	0.1139	0	1	0.231	100	0	0
100	1	267	9	1	1	0.0500	0.1139	0	0	0.132	0	82	82
100	1	268	0	2	2	0.0500	0.1139	0	1	0.293	10	82	82
100	1	269	1	1	1	0.0500	0.1139	1	0	0.243	0	0	82
100	1	270	1	1	3	0.0500	0.1139	0	1	0.352	100	0	0
100	1	271	1	1	1	0.0500	0.1139	1	1	0.373	98	0	82
100	1	272	0	1	3	0.0500	0.1139	0	0	0.339	0	82	82
100	1	273	0	1	3	0.0500	0.1139	0	1	0.366	10	82	82
100	1	274	0	2	3	0.0500	0.1139	0	1	0.429	9	82	82
100	1	275	0	1	3	0.0500	0.1139	1	1	0.583	8	82	0
100	1	276	1	2	3	0.0500	0.1139	0	1	0.521	83	0	0
100	1	277	0	2	2	0.0500	0.1139	1	0	0.484	0	0	82
100	1	278	0	2	3	0.0500	0.1139	1	0	0.521	0	0	82
100	1	279	0	1	3	0.0500	0.1139	0	0	0.247	0	82	82
100	1	280	0	2	2	0.0500	0.1139	1	0	0.405	0	0	82
100	1	281	9	2	2	0.0500	0.1139	1	0	0.452	0	0	82
100	1	282	0	1	3	0.0500	0.1139	0	1	0.406	9	82	82
100	1	283	0	1	2	0.0500	0.1139	0	1	0.426	9	82	82
100	1	284	9	1	1	0.0500	0.1139	1	0	0.296	0	0	82
100	1	285	1	2	3	0.0500	0.1139	0	1	0.326	100	0	0
100	1	286	0	1	3	0.0500	0.1139	0	0	0.289	0	82	82
100	1	287	9	2	2	0.0500	0.1139	0	1	0.509	0	82	82
100	1	288	0	2	3	0.0500	0.1139	1	0	0.509	0	0	82
100	1	289	1	2	3	0.0500	0.1139	1	1	0.358	99	82	0
100	1	290	0	1	3	0.0500	0.1139	0	0	0.465	0	82	82
100	1	291	0	1	1	0.0500	0.1139	0	1	0.419	9	82	82
100	1	292	0	1	1	0.0500	0.1139	0	1	0.541	8	82	82
100	1	293	0	1	3	0.0500	0.1139	0	1	0.481	9	82	82
100	1	294	0	1	2	0.0500	0.1139	0	1	0.416	9	82	82
100	1	295	0	2	2	0.0500	0.1139	0	1	0.532	8	82	82
100	1	296	9	2	3	0.0500	0.1139	0	1	0.458	0	0	0
100	1	297	9	1	3	0.0500	0.1139	1	0	0.526	0	82	0
100	1	298	1	2	3	0.0500	0.1139	1	1	0.415	94	82	0
100	1	299	0	2	2	0.0500	0.1139	0	1	0.481	9	82	82
100	1	300	1	2	1	0.0500	0.1139	1	1	0.322	100	82	0
100	1	301	0	2	1	0.0500	0.1139	0	1	0.495	9	82	82
100	1	302	1	1	1	0.0500	0.1139	0	0	0.536	0	0	0
100	1	303	9	1	1	0.0500	0.1139	1	1	0.381	0	0	82
100	1	304	9	2	3	0.0500	0.1139	1	0	0.462	0	0	82
100	1	305	0	1	1	0.0500	0.1139	1	1	0.696	7	82	0
100	1	306	9	2	1	0.0500	0.1139	1	1	0.735	0	0	82
100	1	307	0	1	2	0.0500	0.1139	1	1	0.470	9	82	0
100	1	308	1	1	1	0.0500	0.1139	0	1	0.528	82	0	0
100	1	309	0	1	1	0.0500	0.1139	1	0	0.510	0	82	0
100	1	310	1	2	2	0.0500	0.1139	1	1	0.391	96	82	0
100	1	311	1	1	1	0.0500	0.1139	0	1	0.338	100	0	0
100	1	312	1	1	3	0.0500	0.1139	1	1	0.378	97	0	82
100	1	313	9	1	3	0.0500	0.1139	1	1	0.387	0	0	82
100	1	314	0	2	3	0.0500	0.1139	0	1	0.269	10	82	82
100	1	315	1	2	3	0.0500	0.1139	0	0	0.304	0	0	0
100	1	316	0	1	1	0.0500	0.1139	1	1	0.370	10	82	0
100	1	317	0	2	2	0.0500	0.1139	0	1	0.363	10	82	82
100	1	318	1	2	1	0.0500	0.1139	0	1	0.361	99	0	0
100	1	319	0	1	1	0.0500	0.1139	0	0	0.170	0	82	82
100	1	320	1	2	3	0.0500	0.1139	0	1	0.179	100	0	0
100	1	321	0	2	2	0.0500	0.1139	0	1	0.308	10	82	82
100	1	322	0	1	3	0.0500	0.1139	0	0	0.196	0	82	82
100	1	323	0	2	3	0.0500	0.1139	0	1	0.296	10	82	82
100	1	324	1	1	1	0.0500	0.1139	1	1	0.404	95	0	82
100	1	325	1	2	1	0.0500	0.1139	0	1	0.298	100	0	0
100	1	326	0	1	3	0.0500	0.1139	0	1	0.361	10	82	82
100	1	327	9	1	3	0.0500	0.1139	0	1	0.346	0	0	0
100	1	328	9	1	2	0.0500	0.1139	0	1	0.299	0	0	0
100	1	329	0	1	1	0.0500	0.1139	1	1	0.276	10	82	0
100	1	330	1	2	2	0.0500	0.1139	0	1	0.217	100	0	0
100	1	331	0	2	2	0.0500	0.1139	0	0	0.286	0	82	82
100	1	332	1	1	3	0.0500	0.1139	1	0	0.245	0	0	82
100	1	333	0	1	3	0.0500	0.1139	1	1	0.333	10	82	0
100	1	334	0	1	3	0.0500	0.1139	0	1	0.616	7	82	82
100	1	335	1	1	1	0.0500	0.1139	0	0	0.305	0	0	0
100	1	336	1	1	3	0.0500	0.1139	0	1	0.341	100	0	0
100	1	337	0	1	3	0.0500	0.1139	1	1	0.287	10	82	0
100	1	338	1	2	2	0.0500	0.1139	1	1	0.381	97	82	0
100	1	339	0	2	1	0.0500	0.1139	0	1	0.333	10	82	82
100	1	340	1	1	1	0.0500	0.1139	0	1	0.491	86	0	0
100	1	341	0	2	3	0.0500	0.1139	1	1	0.648	7	0	82
100	1	342	9	1	1	0.0500	0.1139	1	0	0.934	0	82	0
100	1	343	1	1	1	0.0500	0.1139	0	1	0.524	83	0	0
100	1	344	9	2	3	0.0500	0.1139	0	1	0.430	0	82	82
100	1	345	1	1	3	0.0500	0.1139	1	1	0.698	65	0	82
100	1	346	9	2	1	0.0500	0.1139	0	1	0.251	0	82	82
100	1	347	1	2	2	0.0500	0.1139	0	1	0.323	100	0	0
100	1	348	0	1	3	0.0500	0.1139	0	0	0.566	0	82	82
100	1	349	1	1	3	0.0500	0.1139	1	0	0.288	0	0	82
100	1	350	9	1	1	0.0500	0.1139	0	1	0.309	0	82	82
100	1	351	0	1	3	0.0500	0.1139	1	1	0.858	5	82	0
100	1	352	9	1	3	0.0500	0.1139	1	1	0.422	0	0	82
100	1	353	9	2	2	0.0500	0.1139	0	1	0.513	0	0	0
100	1	354	1	2	3	0.0500	0.1139	0	1	0.374	98	0	0
100	1	355	9	2	2	0.0500	0.1139	1	1	0.447	0	0	82
100	1	356	0	2	2	0.0500	0.1139	0	1	0.336	10	82	82
100	1	357	9	2	2	0.0500	0.1139	1	1	0.416	0	82	0
100	1	358	0	2	3	0.0500	0.1139	1	0	0.434	0	0	82
100	1	359	1	2	3	0.0500	0.1139	1	1	0.338	100	82	0
100	1	360	9	1	2	0.0500	0.1139	0	1	0.474	0	82	82
100	1	361	9	1	1	0.0500	0.1139	1	1	0.417	0	82	0
100	1	362	1	1	3	0.0500	0.1139	1	1	0.516	83	0	82
100	1	363	1	2	2	0.0500	0.1139	1	1	0.389	96	82	0
100	1	364	1	1	3	0.0500	0.1139	0	1	0.260	100	0	0
100	1	365	1	1	3	0.0500	0.1139	1	1	0.481	87	0	82
100	1	366	0	1	3	0.0500	0.1139	0	1	0.350	10	82	82
100	1	367	0	1	3	0.0500	0.1139	0	1	0.420	9	82	82
100	1	368	1	1	3	0.0500	0.1139	1	1	0.414	94	0	82
100	1	369	0	1	3	0.0500	0.1139	1	1	0.356	10	82	0
100	1	370	0	1	3	0.0500	0.1139	0	0	0.324	0	82	82
100	1	371	0	1	1	0.0500	0.1139	0	1	0.327	10	82	82
100	1	372	0	2	2	0.0500	0.1139	1	1	0.495	9	0	82
100	1	373	0	1	3	0.0500	0.1139	1	0	0.336	0	82	0
100	1	374	0	2	3	0.0500	0.1139	1	1	0.866	5	0	82
100	1	375	9	1	1	0.0500	0.1139	1	0	0.239	0	0	82
100	1	376	1	1	1	0.0500	0.1139	1	1	0.425	92	0	82
100	1	377	9	1	2	0.0500	0.1139	1	1	0.684	0	82	0
100	1	378	0	1	3	0.0500	0.1139	1	1	0.718	6	82	0
100	1	379	0	1	1	0.0500	0.1139	1	1	0.429	9	82	0
100	1	380	9	1	1	0.0500	0.1139	1	1	0.651	0	82	0
100	1	381	1	1	1	0.0500	0.1139	0	1	0.498	85	0	0
100	1	382	0	2	2	0.0500	0.1139	0	1	0.400	9	82	82
100	1	383	1	1	3	0.0500	0.1139	0	1	0.330	100	0	0
100	1	384	1	1	3	0.0500	0.1139	0	0	0.414	0	0	0
100	1	385	1	2	3	0.0500	0.1139	1	1	0.364	99	82	0
100	1	386	9	1	3	0.0500	0.1139	1	0	0.210	0	0	82
100	1	387	1	2	3	0.0500	0.1139	1	1	0.413	94	82	0
100	1	388	1	1	1	0.0500	0.1139	0	1	0.459	89	0	0
100	1	389	0	1	3	0.0500	0.1139	1	1	0.490	9	82	0
100	1	390	9	1	2	0.0500	0.1139	0	1	0.317	0	82	82
100	1	391	0	1	3	0.0500	0.1139	0	1	0.398	10	82	82
100	1	392	9	1	3	0.0500	0.1139	1	0	0.578	0	82	0
100	1	393	0	2	2	0.0500	0.1139	0	1	0.371	10	82	82
100	1	394	1	2	3	0.0500	0.1139	0	1	0.347	100	0	0
100	1	395	1	2	2	0.0500	0.1139	1	1	0.491	86	82	0
100	1	396	0	2	3	0.0500	0.1139	1	1	0.765	6	0	82
100	1	397	9	1	1	0.0500	0.1139	0	1	0.454	0	0	0
100	1	398	0	2	2	0.0500	0.1139	0	1	0.334	10	82	82
100	1	399	1	1	2	0.0500	0.1139	1	1	0.435	92	0	82
100	1	400	1	2	1	0.0500	0.1139	0	1	0.342	100	0	0
100	1	401	9	2	3	0.0500	0.1139	1	1	0.617	0	0	82
100	1	402	0	1	1	0.0500	0.1139	0	0	0.393	0	82	82
100	1	403	1	2	1	0.0500	0.1139	0	1	0.313	100	0	0
100	1	404	0	1	3	0.0500	0.1139	0	1	0.404	9	82	82
100	1	405	9	2	3	0.0500	0.1139	1	0	0.602	0	0	82
100	1	406	1	1	3	0.0500	0.1139	1	1	0.447	90	0	82
100	1	407	0	1	3	0.0500	0.1139	1	0	0.340	0	82	0
100	1	408	9	2	2	0.0500	0.1139	0	1	0.498	0	82	82
100	1	409	0	1	3	0.0500	0.1139	0	1	0.359	10	82	82
100	1	410	9	2	2	0.0500	0.1139	0	1	0.378	0	0	0
100	1	411	0	1	1	0.0500	0.1139	0	1	0.338	10	82	82
100	1	412	1	2	3	0.0500	0.1139	0	1	0.300	100	0	0
100	1	413	9	2	2	0.0500	0.1139	1	1	0.476	0	82	0
100	1	414	0	2	3	0.0500	0.1139	0	1	0.382	10	82	82
100	1	415	1	1	3	0.0500	0.1139	1	1	0.442	91	0	82
100	1	416	0	1	3	0.0500	0.1139	0	1	0.378	10	82	82
100	1	417	1	1	1	0.0500	0.1139	0	1	0.375	98	0	0
100	1	418	1	2	3	0.0500	0.1139	0	1	0.889	50	0	0
100	1	419	0	1	1	0.0500	0.1139	1	1	0.447	9	82	0
100	1	420	0	2	1	0.0500	0.1139	0	1	0.531	8	82	82
100	1	421	1	2	2	0.0500	0.1139	0	1	0.345	100	0	0
100	1	422	1	2	1	0.0500	0.1139	0	1	0.394	96	0	0
100	1	423	0	2	3	0.0500	0.1139	1	0	0.538	0	0	82
100	1	424	1	1	3	0.0500	0.1139	1	1	0.390	96	0	82
100	1	425	1	2	3	0.0500	0.1139	0	1	0.434	92	0	0
100	1	426	9	2	3	0.0500	0.1139	1	1	0.291	0	0	82
100	1	427	0	2	1	0.0500	0.1139	1	0	0.388	0	0	82
100	1	428	9	1	1	0.0500	0.1139	0	1	0.465	0	82	82
100	1	429	0	2	3	0.0500	0.1139	1	1	0.659	7	0	82
100	1	430	0	1	1	0.0500	0.1139	1	1	0.703	6	82	0
100	1	431	1	1	1	0.0500	0.1139	0	1	0.500	85	0	0
100	1	432	0	1	1	0.0500	0.1139	1	1	0.700	7	82	0
100	1	433	1	1	1	0.0500	0.1139	1	0	0.294	0	0	82
100	1	434	0	1	1	0.0500	0.1139	1	1	0.786	6	82	0
100	1	435	1	1	3	0.0500	0.1139	0	1	0.441	91	0	0
100	1	436	1	2	3	0.0500	0.1139	0	1	0.283	100	0	0
100	1	437	9	1	1	0.0500	0.1139	0	1	0.382	0	0	0
100	1	438	1	2	3	0.0500	0.1139	0	1	0.405	94	0	0
100	1	439	0	1	1	0.0500	0.1139	0	1	0.361	10	82	82
100	1	440	1	2	3	0.0500	0.1139	1	1	0.425	92	82	0
100	1	441	0	1	1	0.0500	0.1139	1	1	0.417	9	82	0
100	1	442	0	1	3	0.0500	0.1139	0	1	0.325	10	82	82
100	1	443	1	1	1	0.0500	0.1139	0	1	0.476	87	0	0
100	1	444	9	1	1	0.0500	0.1139	0	1	0.370	0	0	0
100	1	445	9	1	3	0.0500	0.1139	0	1	0.444	0	82	82
100	1	446	1	2	3	0.0500	0.1139	1	1	0.297	100	82	0
100	1	447	1	2	2	0.0500	0.1139	0	1	0.367	98	0	0
100	1	448	1	2	2	0.0500	0.1139	1	1	0.340	100	82	0
100	1	449	1	2	3	0.0500	0.1139	0	1	0.480	87	0	0
100	1	450	1	1	3	0.0500	0.1139	1	1	0.413	94	0	82
100	1	451	9	1	2	0.0500	0.1139	1	1	0.320	0	0	82
100	1	452	1	1	3	0.0500	0.1139	1	1	0.426	92	0	82
100	1	453	0	1	1	0.0500	0.1139	1	1	0.459	9	82	0
100	1	454	9	1	3	0.0500	0.1139	0	1	0.437	0	0	0
100	1	455	9	1	3	0.0500	0.1139	0	1	0.700	0	0	0
100	1	456	0	2	3	0.0500	0.1139	1	0	0.635	0	0	82
100	1	457	0	1	1	0.0500	0.1139	1	1	0.526	8	82	0
100	1	458	9	2	2	0.0500	0.1139	1	0	0.441	0	0	82
100	1	459	9	1	3	0.0500	0.1139	1	1	0.704	0	82	0
100	1	460	0	2	1	0.0500	0.1139	1	0	0.722	0	0	82
100	1	461	1	2	2	0.0500	0.1139	0	0	21.620	0	0	0
100	1	462	0	2	3	0.0500	0.1139	0	0	0.463	0	82	82
100	1	463	9	2	3	0.0500	0.1139	0	1	0.597	0	82	82
100	1	464	1	2	2	0.0500	0.1139	0	1	0.369	98	0	0
100	1	465	1	1	3	0.0500	0.1139	0	1	0.661	69	0	0
100	1	466	0	1	3	0.0500	0.1139	1	0	0.495	0	82	0
100	1	467	0	1	3	0.0500	0.1139	0	1	0.421	9	82	82
100	1	468	1	2	2	0.0500	0.1139	0	1	0.882	50	0	0
100	1	469	9	1	3	0.0500	0.1139	1	1	0.401	0	0	82
100	1	470	1	2	3	0.0500	0.1139	0	0	0.583	0	0	0
100	1	471	9	1	1	0.0500	0.1139	1	1	0.422	0	0	82
100	1	472	0	2	2	0.0500	0.1139	1	0	0.495	0	0	82
100	1	473	9	1	3	0.0500	0.1139	0	1	0.536	0	82	82
100	1	474	1	1	3	0.0500	0.1139	1	1	0.281	100	0	82
100	1	475	0	1	2	0.0500	0.1139	0	1	0.408	9	82	82
100	1	476	0	2	3	0.0500	0.1139	1	0	0.483	0	0	82
100	1	477	0	1	1	0.0500	0.1139	0	0	0.340	0	82	82
100	1	478	9	1	3	0.0500	0.1139	1	1	0.435	0	82	0
100	1	479	0	2	1	0.0500	0.1139	0	0	0.445	0	82	82
100	1	480	0	1	3	0.0500	0.1139	0	1	0.532	8	82	82
100	1	481	1	2	3	0.0500	0.1139	1	1	0.316	100	82	0
100	1	482	0	2	3	0.0500	0.1139	1	0	0.602	0	0	82
100	1	483	0	2	2	0.0500	0.1139	1	0	0.419	0	0	82
100	1	484	1	2	3	0.0500	0.1139	1	1	0.427	92	82	0
100	1	485	1	2	2	0.0500	0.1139	0	1	0.339	100	0	0
100	1	486	0	2	2	0.0500	0.1139	0	0	0.251	0	82	82
100	1	487	9	2	2	0.0500	0.1139	1	1	0.692	0	0	82
100	1	488	0	2	3	0.0500	0.1139	0	1	0.397	10	82	82
100	1	489	0	1	1	0.0500	0.1139	1	1	0.555	8	82	0
100	1	490	0	2	3	0.0500	0.1139	0	1	0.493	9	82	82
100	1	491	1	1	1	0.0500	0.1139	0	1	0.670	68	0	0
100	1	492	0	2	2	0.0500	0.1139	1	0	0.468	0	0	82
100	1	493	0	1	1	0.0500	0.1139	1	1	0.443	9	82	0
100	1	494	1	1	1	0.0500	0.1139	0	1	0.361	99	0	0
100	1	495	0	2	3	0.0500	0.1139	0	1	0.384	10	82	82
100	1	496	1	1	1	0.0500	0.1139	1	1	0.390	96	0	82
100	1	497	0	2	1	0.0500	0.1139	0	1	0.337	10	82	82
100	1	498	1	2	2	0.0500	0.1139	1	1	0.384	97	82	0
100	1	499	1	1	3	0.0500	0.1139	0	1	0.375	97	0	0
100	1	500	0	1	3	0.0500	0.1139	1	1	0.483	9	82	0
100	1	501	0	2	3	0.0500	0.1139	0	1	0.667	7	82	82
100	1	502	0	2	3	0.0500	0.1139	0	1	0.319	10	82	82
100	1	503	0	2	3	0.0500	0.1139	0	0	0.281	0	82	82
100	1	504	1	2	3	0.0500	0.1139	0	1	0.293	100	0	0
100	1	505	1	1	1	0.0500	0.1139	1	0	0.462	0	0	82
100	1	506	0	2	2	0.0500	0.1139	1	0	0.294	0	0	82
100	1	507	0	1	2	0.0500	0.1139	1	1	0.499	9	82	0
100	1	508	1	2	2	0.0500	0.1139	0	1	0.341	100	0	0
100	1	509	0	1	3	0.0500	0.1139	1	0	0.557	0	82	0
100	1	510	0	2	3	0.0500	0.1139	1	1	0.447	9	0	82
100	1	511	0	1	1	0.0500	0.1139	0	1	0.470	9	82	82
100	1	512	1	1	3	0.0500	0.1139	0	1	0.906	50	0	0
100	1	513	9	2	2	0.0500	0.1139	1	0	0.502	0	0	82
100	1	514	9	1	2	0.0500	0.1139	0	1	0.671	0	0	0
100	1	515	0	2	3	0.0500	0.1139	0	1	0.327	10	82	82
100	1	516	1	1	1	0.0500	0.1139	1	1	0.428	92	0	82
100	1	517	9	1	1	0.0500	0.1139	1	0	0.433	0	0	82
100	1	518	1	1	2	0.0500	0.1139	1	1	0.367	98	0	82
100	1	519	1	2	1	0.0500	0.1139	1	0	0.304	0	82	0
100	1	520	0	2	2	0.0500	0.1139	1	0	0.297	0	0	82
100	1	521	0	2	2	0.0500	0.1139	0	1	0.398	10	82	82
100	1	522	0	1	2	0.0500	0.1139	0	1	0.407	9	82	82
100	1	523	1	1	3	0.0500	0.1139	0	1	0.326	100	0	0
100	1	524	0	1	3	0.0500	0.1139	1	0	0.431	0	82	0
100	1	525	9	1	3	0.0500	0.1139	1	1	0.381	0	0	82
100	1	526	0	2	1	0.0500	0.1139	1	1	0.705	6	0	82
100	1	527	9	2	1	0.0500	0.1139	1	1	0.336	0	82	0
100	1	528	0	1	2	0.0500	0.1139	1	1	0.349	10	82	0
100	1	529	0	2	3	0.0500	0.1139	0	1	0.555	8	82	82
100	1	530	9	1	3	0.0500	0.1139	1	1	0.734	0	82	0
100	1	531	1	2	1	0.0500	0.1139	1	1	0.354	100	82	0
100	1	532	1	1	1	0.0500	0.1139	1	1	0.397	95	0	82
100	1	533	9	2	3	0.0500	0.1139	0	1	0.558	0	82	82
100	1	534	1	2	1	0.0500	0.1139	0	1	0.417	93	0	0
100	1	535	0	1	1	0.0500	0.1139	1	1	0.455	9	82	0
100	1	536	0	1	2	0.0500	0.1139	1	0	0.348	0	82	0
100	1	537	1	2	2	0.0500	0.1139	0	1	0.377	97	0	0
100	1	538	0	1	2	0.0500	0.1139	1	1	0.542	8	82	0
100	1	539	1	2	3	0.0500	0.1139	1	1	0.476	87	82	0
100	1	540	9	1	3	0.0500	0.1139	0	1	0.702	0	82	82
100	1	541	0	2	2	0.0500	0.1139	1	1	0.584	8	0	82
100	1	542	0	2	3	0.0500	0.1139	1	1	0.428	9	0	82
100	1	543	9	2	3	0.0500	0.1139	1	1	0.481	0	82	0
100	1	544	0	2	2	0.0500	0.1139	0	1	0.352	10	82	82
100	1	545	1	1	1	0.0500	0.1139	0	1	0.401	95	0	0
100	1	546	0	2	2	0.0500	0.1139	1	1	0.679	7	0	82
100	1	547	1	1	1	0.0500	0.1139	0	1	0.405	95	0	0
100	1	548	0	2	3	0.0500	0.1139	0	1	0.467	9	82	82
100	1	549	1	2	2	0.0500	0.1139	1	1	0.415	94	82	0
100	1	550	0	1	1	0.0500	0.1139	0	1	0.412	9	82	82
100	1	551	1	2	2	0.0500	0.1139	1	1	0.386	96	82	0
100	1	552	0	2	3	0.0500	0.1139	1	0	0.543	0	0	82
100	1	553	1	1	1	0.0500	0.1139	1	1	0.513	84	0	82
100	1	554	9	2	3	0.0500	0.1139	1	1	0.436	0	82	0
100	1	555	0	1	3	0.0500	0.1139	1	1	0.654	7	82	0
100	1	556	1	2	2	0.0500	0.1139	1	1	0.404	95	82	0
100	1	557	0	2	1	0.0500	0.1139	1	1	0.480	9	0	82
100	1	558	0	1	3	0.0500	0.1139	0	1	0.609	7	82	82
100	1	559	0	2	3	0.0500	0.1139	1	0	0.407	0	0	82
100	1	560	0	2	2	0.0500	0.1139	0	1	0.478	9	82	82
100	1	561	9	2	3	0.0500	0.1139	0	1	0.461	0	82	82
100	1	562	1	2	2	0.0500	0.1139	1	1	0.393	96	82	0
100	1	563	1	1	2	0.0500	0.1139	1	1	0.388	96	0	82
100	1	564	1	2	2	0.0500	0.1139	0	1	0.335	100	0	0
100	1	565	9	1	3	0.0500	0.1139	0	0	0.489	0	0	0
100	1	566	1	2	2	0.0500	0.1139	0	1	0.397	95	0	0
100	1	567	0	1	3	0.0500	0.1139	1	1	0.516	8	82	0
100	1	568	1	1	1	0.0500	0.1139	1	1	0.377	97	0	82
100	1	569	0	1	1	0.0500	0.1139	0	0	0.418	0	82	82
100	1	570	1	1	3	0.0500	0.1139	1	1	0.524	83	0	82
100	1	571	1	1	1	0.0500	0.1139	1	1	0.448	90	0	82
100	1	572	1	1	3	0.0500	0.1139	1	1	0.340	100	0	82
100	1	573	0	2	2	0.0500	0.1139	0	1	0.310	10	82	82
100	1	574	0	2	2	0.0500	0.1139	0	1	0.457	9	82	82
100	1	575	9	2	2	0.0500	0.1139	1	1	0.367	0	82	0
100	1	576	0	1	3	0.0500	0.1139	1	1	0.809	5	82	0
100	1	577	1	2	1	0.0500	0.1139	1	1	0.328	100	82	0
100	1	578	1	1	1	0.0500	0.1139	1	1	0.446	90	0	82
100	1	579	0	2	2	0.0500	0.1139	1	0	0.318	0	0	82
100	1	580	0	2	2	0.0500	0.1139	0	1	0.563	8	82	82
100	1	581	9	2	2	0.0500	0.1139	1	1	0.356	0	82	0
100	1	582	9	1	1	0.0500	0.1139	0	0	0.391	0	82	82
100	1	583	9	2	3	0.0500	0.1139	1	1	0.330	0	82	0
100	1	584	1	2	3	0.0500	0.1139	1	1	0.374	98	82	0
100	1	585	0	2	2	0.0500	0.1139	1	1	0.460	9	0	82
100	1	586	0	2	2	0.0500	0.1139	0	1	0.383	10	82	82
100	1	587	1	2	3	0.0500	0.1139	0	1	0.411	94	0	0
100	1	588	1	1	3	0.0500	0.1139	1	1	0.415	93	0	82
100	1	589	9	1	3	0.0500	0.1139	0	1	0.311	0	82	82
100	1	590	1	1	1	0.0500	0.1139	1	1	0.326	100	0	82
100	1	591	0	1	1	0.0500	0.1139	0	1	1.466	5	82	82
100	1	592	9	1	1	0.0500	0.1139	0	1	0.789	0	82	82
100	1	593	1	2	2	0.0500	0.1139	1	1	0.428	92	82	0
100	1	594	0	2	1	0.0500	0.1139	0	1	0.401	9	82	82
100	1	595	1	1	1	0.0500	0.1139	0	1	0.383	97	0	0
100	1	596	1	2	3	0.0500	0.1139	0	1	0.406	94	0	0
100	1	597	0	1	1	0.0500	0.1139	1	1	0.676	7	82	0
100	1	598	1	1	1	0.0500	0.1139	0	1	0.395	96	0	0
100	1	599	0	1	1	0.0500	0.1139	1	1	0.462	9	82	0
100	1	600	1	2	2	0.0500	0.1139	1	1	0.523	83	82	0
100	1	601	1	2	2	0.0500	0.1139	1	1	0.401	95	82	0
100	1	602	1	1	3	0.0500	0.1139	0	1	0.431	92	0	0
100	1	603	9	2	2	0.0500	0.1139	0	1	0.475	0	82	82
100	1	604	1	2	2	0.0500	0.1139	1	1	0.427	92	82	0
100	1	605	1	1	2	0.0500	0.1139	0	0	0.596	0	0	0
100	1	606	1	2	3	0.0500	0.1139	1	1	0.465	88	82	0
100	1	607	1	1	1	0.0500	0.1139	1	0	0.361	0	0	82
100	1	608	9	1	3	0.0500	0.1139	0	1	0.503	0	0	0
100	1	609	0	2	3	0.0500	0.1139	0	1	0.617	7	82	82
100	1	610	0	1	1	0.0500	0.1139	0	1	0.296	10	82	82
100	1	611	1	2	2	0.0500	0.1139	0	0	0.451	0	0	0
100	1	612	0	1	3	0.0500	0.1139	1	1	0.403	9	82	0
100	1	613	9	2	3	0.0500	0.1139	0	1	0.340	0	0	0
100	1	614	1	2	2	0.0500	0.1139	1	1	0.377	97	82	0
100	1	615	1	1	1	0.0500	0.1139	1	0	0.314	0	0	82
100	1	616	1	2	3	0.0500	0.1139	1	1	0.358	99	82	0
100	1	617	1	1	3	0.0500	0.1139	0	1	0.447	90	0	0
100	1	618	1	1	3	0.0500	0.1139	1	1	0.453	90	0	82
100	1	619	1	1	1	0.0500	0.1139	1	1	0.494	86	0	82
100	1	620	9	2	1	0.0500	0.1139	0	1	0.615	0	0	0
100	1	621	9	2	2	0.0500	0.1139	1	1	0.572	0	0	82
100	1	622	0	1	3	0.0500	0.1139	1	0	0.513	0	82	0
100	1	623	0	2	2	0.0500	0.1139	0	1	0.448	9	82	82
100	1	624	1	1	3	0.0500	0.1139	1	1	0.419	93	0	82
100	1	625	0	2	3	0.0500	0.1139	1	0	0.509	0	0	82
100	1	626	9	1	1	0.0500	0.1139	1	0	0.545	0	82	0
100	1	627	1	2	2	0.0500	0.1139	1	1	0.376	97	82	0
100	1	628	9	2	3	0.0500	0.1139	0	1	0.420	0	0	0
100	1	629	0	1	3	0.0500	0.1139	1	1	0.432	9	82	0
100	1	630	1	1	2	0.0500	0.1139	0	1	0.339	100	0	0
100	1	631	1	2	2	0.0500	0.1139	0	1	0.386	96	0	0
100	1	632	0	2	2	0.0500	0.1139	1	1	0.812	5	0	82
100	1	633	9	2	3	0.0500	0.1139	0	1	0.373	0	82	82
100	1	634	0	1	3	0.0500	0.1139	0	0	0.416	0	82	82
100	1	635	1	2	3	0.0500	0.1139	0	1	0.267	100	0	0
100	1	636	9	2	2	0.0500	0.1139	0	1	0.354	0	0	0
100	1	637	9	1	3	0.0500	0.1139	1	1	0.423	0	0	82
100	1	638	1	1	2	0.0500	0.1139	0	1	0.280	100	0	0
100	1	639	1	2	2	0.0500	0.1139	1	1	0.508	84	82	0
100	1	640	9	1	1	0.0500	0.1139	1	1	0.471	0	0	82
100	1	641	0	2	2	0.0500	0.1139	1	1	0.410	9	0	82
100	1	642	0	1	1	0.0500	0.1139	1	0	0.385	0	82	0
100	1	643	1	2	3	0.0500	0.1139	1	1	0.340	100	82	0
100	1	644	1	1	2	0.0500	0.1139	0	1	0.324	100	0	0
100	1	645	1	1	1	0.0500	0.1139	0	1	0.756	59	0	0
100	1	646	0	2	3	0.0500	0.1139	1	1	0.700	7	0	82
100	1	647	1	2	2	0.0500	0.1139	0	1	0.337	100	0	0
100	1	648	9	2	2	0.0500	0.1139	0	1	0.478	0	82	82
100	1	649	0	2	2	0.0500	0.1139	1	0	0.611	0	0	82
100	1	650	0	2	3	0.0500	0.1139	0	1	0.422	9	82	82
100	1	651	1	1	1	0.0500	0.1139	0	1	1.042	50	0	0
100	1	652	1	1	1	0.0500	0.1139	0	0	0.280	0	0	0
100	1	653	0	1	2	0.0500	0.1139	0	1	0.468	9	82	82
100	1	654	1	1	3	0.0500	0.1139	0	1	0.305	100	0	0
100	1	655	0	1	3	0.0500	0.1139	0	1	0.355	10	82	82
100	1	656	9	2	2	0.0500	0.1139	0	1	0.464	0	0	0
100	1	657	0	1	3	0.0500	0.1139	0	0	0.614	0	82	82
100	1	658	1	1	3	0.0500	0.1139	0	1	0.283	100	0	0
100	1	659	1	2	3	0.0500	0.1139	1	1	0.455	89	82	0
100	1	660	9	2	1	0.0500	0.1139	1	1	0.546	0	0	82
100	1	661	0	2	2	0.0500	0.1139	0	1	0.295	10	82	82
100	1	662	1	2	3	0.0500	0.1139	0	1	0.217	100	0	0
100	1	663	1	2	3	0.0500	0.1139	1	0	0.282	0	82	0
100	1	664	9	2	2	0.0500	0.1139	0	1	0.417	0	82	82
100	1	665	0	2	2	0.0500	0.1139	0	1	0.341	10	82	82
100	1	666	0	2	3	0.0500	0.1139	1	0	0.366	0	0	82
100	1	667	0	2	3	0.0500	0.1139	0	1	0.480	9	82	82
100	1	668	0	1	1	0.0500	0.1139	0	0	0.290	0	82	82
100	1	669	1	2	2	0.0500	0.1139	1	1	0.367	98	82	0
100	1	670	1	1	3	0.0500	0.1139	0	0	0.576	0	0	0
100	1	671	1	1	3	0.0500	0.1139	1	0	0.291	0	0	82
100	1	672	1	2	3	0.0500	0.1139	0	1	0.360	99	0	0
100	1	673	9	2	3	0.0500	0.1139	0	1	0.401	0	0	0
100	1	674	0	2	2	0.0500	0.1139	1	1	0.536	8	0	82
100	1	675	0	2	2	0.0500	0.1139	0	1	0.279	10	82	82
100	1	676	0	2	3	0.0500	0.1139	1	0	0.464	0	0	82
100	1	677	0	2	2	0.0500	0.1139	0	1	0.391	10	82	82
100	1	678	9	2	2	0.0500	0.1139	0	1	0.394	0	0	0
100	1	679	1	1	1	0.0500	0.1139	0	0	0.380	0	0	0
100	1	680	9	2	1	0.0500	0.1139	0	1	0.462	0	82	82
100	1	681	1	2	3	0.0500	0.1139	1	1	0.424	93	82	0
100	1	682	9	1	1	0.0500	0.1139	0	1	0.365	0	82	82
100	1	683	0	1	3	0.0500	0.1139	0	1	0.306	10	82	82
100	1	684	1	2	1	0.0500	0.1139	1	1	0.403	95	82	0
100	1	685	0	1	3	0.0500	0.1139	1	0	0.972	0	82	0
100	1	686	1	1	3	0.0500	0.1139	0	1	0.463	89	0	0
100	1	687	1	1	2	0.0500	0.1139	1	1	0.378	97	0	82
100	1	688	9	2	3	0.0500	0.1139	1	1	0.415	0	82	0
100	1	689	1	2	3	0.0500	0.1139	0	1	0.552	80	0	0
100	1	690	0	2	3	0.0500	0.1139	1	0	0.463	0	0	82
100	1	691	1	2	3	0.0500	0.1139	0	0	0.309	0	0	0
100	1	692	1	2	3	0.0500	0.1139	1	1	0.492	86	82	0
100	1	693	0	1	1	0.0500	0.1139	1	1	0.655	7	82	0
100	1	694	1	2	2	0.0500	0.1139	0	1	0.330	100	0	0
100	1	695	0	2	2	0.0500	0.1139	1	0	0.578	0	0	82
100	1	696	0	1	2	0.0500	0.1139	0	1	0.356	10	82	82
100	1	697	1	1	1	0.0500	0.1139	1	1	0.368	98	0	82
100	1	698	0	1	1	0.0500	0.1139	1	0	0.327	0	82	0
100	1	699	0	1	1	0.0500	0.1139	0	1	0.611	7	82	82
100	1	700	0	1	1	0.0500	0.1139	0	1	0.447	9	82	82
100	1	701	9	2	3	0.0500	0.1139	1	1	0.422	0	0	82
100	1	702	0	1	1	0.0500	0.1139	0	1	0.363	10	82	82
100	1	703	0	2	3	0.0500	0.1139	0	1	0.460	9	82	82
100	1	704	0	1	1	0.0500	0.1139	0	1	0.353	10	82	82
100	1	705	1	1	3	0.0500	0.1139	0	1	0.424	93	0	0
100	1	706	0	1	1	0.0500	0.1139	0	1	0.670	7	82	82
100	1	707	9	2	2	0.0500	0.1139	1	1	0.368	0	82	0
100	1	708	1	2	2	0.0500	0.1139	0	1	0.290	100	0	0
100	1	709	1	1	3	0.0500	0.1139	1	0	0.633	0	0	82
100	1	710	9	2	3	0.0500	0.1139	0	1	0.346	0	0	0
100	1	711	0	2	2	0.0500	0.1139	1	1	0.376	10	0	82
100	1	712	0	2	3	0.0500	0.1139	0	1	0.345	10	82	82
100	1	713	1	1	1	0.0500	0.1139	1	1	0.328	100	0	82
100	1	714	1	2	2	0.0500	0.1139	0	1	0.262	100	0	0
100	1	715	9	1	1	0.0500	0.1139	1	1	0.282	0	82	0
100	1	716	1	2	3	0.0500	0.1139	1	1	0.322	100	82	0
100	1	717	9	1	1	0.0500	0.1139	0	1	0.407	0	0	0
100	1	718	1	1	1	0.0500	0.1139	0	0	0.279	0	0	0
100	1	719	1	1	3	0.0500	0.1139	0	1	0.257	100	0	0
100	1	720	0	1	3	0.0500	0.1139	0	1	0.330	10	82	82
