sub	sess	t	rew	loc	cue	co1	co2	or	resp	rt	rew_tot	left_col	right_col
93	1	1	1	1	1	0.0500	0.2290	1	1	0.688	66	82	0
93	1	2	9	1	3	0.0500	0.2290	1	1	0.968	0	0	82
93	1	3	0	2	2	0.0500	0.2290	1	0	0.615	0	82	0
93	1	4	0	2	3	0.0500	0.2290	0	1	0.649	7	0	0
93	1	5	0	2	3	0.0500	0.2290	0	1	0.592	8	0	0
93	1	6	1	2	3	0.0500	0.2290	1	1	0.537	81	0	82
93	1	7	9	1	3	0.0500	0.2290	0	1	0.501	0	82	82
93	1	8	0	1	3	0.0500	0.2290	0	1	0.460	9	0	0
93	1	9	1	2	3	0.0500	0.2290	0	1	0.471	88	82	82
93	1	10	1	1	3	0.0500	0.2290	0	1	0.473	88	82	82
93	1	11	1	1	1	0.0500	0.2290	1	1	0.674	68	82	0
93	1	12	1	1	3	0.0500	0.2290	1	1	0.553	80	82	0
93	1	13	1	2	2	0.0500	0.2290	0	1	0.582	77	82	82
93	1	14	0	1	1	0.0500	0.2290	0	1	0.426	9	0	0
93	1	15	0	2	2	0.0500	0.2290	1	1	0.686	7	82	0
93	1	16	1	2	3	0.0500	0.2290	0	1	0.415	93	82	82
93	1	17	0	2	2	0.0500	0.2290	0	0	0.520	0	0	0
93	1	18	0	1	1	0.0500	0.2290	1	0	0.650	0	0	82
93	1	19	0	2	3	0.0500	0.2290	1	1	0.567	8	82	0
93	1	20	9	1	1	0.0500	0.2290	0	1	0.712	0	82	82
93	1	21	1	2	2	0.0500	0.2290	1	1	0.710	64	0	82
93	1	22	0	2	3	0.0500	0.2290	1	1	0.472	9	82	0
93	1	23	0	1	1	0.0500	0.2290	1	0	0.518	0	0	82
93	1	24	0	1	3	0.0500	0.2290	0	0	0.445	0	0	0
93	1	25	0	2	3	0.0500	0.2290	1	0	0.504	0	82	0
93	1	26	0	2	3	0.0500	0.2290	1	1	0.566	8	82	0
93	1	27	1	1	1	0.0500	0.2290	1	1	0.552	80	82	0
93	1	28	1	1	2	0.0500	0.2290	0	1	0.623	73	82	82
93	1	29	9	2	3	0.0500	0.2290	0	0	0.505	0	0	0
93	1	30	9	2	3	0.0500	0.2290	0	1	0.545	0	0	0
93	1	31	9	2	3	0.0500	0.2290	0	1	0.539	0	82	82
93	1	32	9	1	3	0.0500	0.2290	1	0	0.656	0	0	82
93	1	33	0	2	3	0.0500	0.2290	0	1	0.462	9	0	0
93	1	34	0	1	3	0.0500	0.2290	1	0	0.738	0	0	82
93	1	35	0	1	1	0.0500	0.2290	1	0	0.470	0	0	82
93	1	36	0	2	1	0.0500	0.2290	1	1	0.674	7	82	0
93	1	37	1	1	2	0.0500	0.2290	1	0	0.815	0	82	0
93	1	38	0	1	3	0.0500	0.2290	1	1	1.091	5	0	82
93	1	39	1	2	1	0.0500	0.2290	0	1	0.684	67	82	82
93	1	40	1	1	1	0.0500	0.2290	0	1	0.643	71	82	82
93	1	41	1	2	3	0.0500	0.2290	0	1	0.523	83	82	82
93	1	42	1	2	3	0.0500	0.2290	1	0	0.561	0	0	82
93	1	43	1	2	2	0.0500	0.2290	0	1	0.484	87	82	82
93	1	44	1	1	3	0.0500	0.2290	1	1	0.646	70	82	0
93	1	45	9	2	3	0.0500	0.2290	1	0	0.555	0	0	82
93	1	46	0	2	2	0.0500	0.2290	0	1	0.505	8	0	0
93	1	47	0	1	1	0.0500	0.2290	0	0	0.736	0	0	0
93	1	48	9	2	1	0.0500	0.2290	1	1	0.567	0	0	82
93	1	49	0	1	2	0.0500	0.2290	1	1	0.545	8	0	82
93	1	50	1	1	2	0.0500	0.2290	1	1	0.551	80	82	0
93	1	51	1	1	1	0.0500	0.2290	0	1	0.573	78	82	82
93	1	52	9	2	3	0.0500	0.2290	1	1	0.570	0	82	0
93	1	53	0	1	1	0.0500	0.2290	1	1	0.525	8	0	82
93	1	54	0	2	3	0.0500	0.2290	1	1	0.425	9	82	0
93	1	55	1	2	2	0.0500	0.2290	0	1	0.785	56	82	82
93	1	56	1	1	1	0.0500	0.2290	0	0	0.563	0	82	82
93	1	57	9	2	1	0.0500	0.2290	1	0	0.607	0	82	0
93	1	58	9	1	3	0.0500	0.2290	0	1	0.941	0	0	0
93	1	59	9	1	3	0.0500	0.2290	0	1	0.570	0	0	0
93	1	60	1	1	3	0.0500	0.2290	0	1	0.606	74	82	82
93	1	61	0	1	3	0.0500	0.2290	0	1	0.502	8	0	0
93	1	62	1	2	3	0.0500	0.2290	0	1	0.510	84	82	82
93	1	63	9	1	1	0.0500	0.2290	1	1	0.645	0	0	82
93	1	64	0	2	3	0.0500	0.2290	0	1	0.581	8	0	0
93	1	65	1	2	2	0.0500	0.2290	1	1	0.605	75	0	82
93	1	66	1	1	2	0.0500	0.2290	1	1	0.861	50	82	0
93	1	67	1	2	3	0.0500	0.2290	1	1	0.645	71	0	82
93	1	68	9	1	1	0.0500	0.2290	1	1	0.751	0	0	82
93	1	69	1	2	1	0.0500	0.2290	1	1	0.568	78	0	82
93	1	70	1	2	3	0.0500	0.2290	0	1	0.523	83	82	82
93	1	71	0	1	3	0.0500	0.2290	1	1	0.621	7	0	82
93	1	72	0	1	1	0.0500	0.2290	1	0	0.611	0	0	82
93	1	73	1	1	1	0.0500	0.2290	1	1	0.582	77	82	0
93	1	74	0	2	2	0.0500	0.2290	0	1	0.508	8	0	0
93	1	75	0	1	3	0.0500	0.2290	0	1	0.662	7	0	0
93	1	76	9	1	3	0.0500	0.2290	1	0	0.583	0	0	82
93	1	77	0	1	1	0.0500	0.2290	1	1	0.758	6	0	82
93	1	78	0	1	3	0.0500	0.2290	1	0	0.650	0	0	82
93	1	79	9	1	3	0.0500	0.2290	1	1	0.564	0	82	0
93	1	80	9	2	2	0.0500	0.2290	0	1	0.633	0	0	0
93	1	81	1	2	2	0.0500	0.2290	1	0	0.671	0	0	82
93	1	82	0	2	1	0.0500	0.2290	1	1	0.526	8	82	0
93	1	83	9	2	3	0.0500	0.2290	0	1	0.476	0	0	0
93	1	84	1	1	1	0.0500	0.2290	1	1	0.653	70	82	0
93	1	85	0	2	3	0.0500	0.2290	0	1	0.541	8	0	0
93	1	86	1	1	3	0.0500	0.2290	0	1	0.687	66	82	82
93	1	87	0	2	2	0.0500	0.2290	0	1	0.538	8	0	0
93	1	88	0	2	3	0.0500	0.2290	0	1	0.615	7	0	0
93	1	89	0	1	1	0.0500	0.2290	0	1	0.594	8	0	0
93	1	90	1	2	1	0.0500	0.2290	1	1	0.878	50	0	82
93	1	91	0	2	3	0.0500	0.2290	1	1	0.568	8	82	0
93	1	92	0	2	2	0.0500	0.2290	1	1	0.564	8	82	0
93	1	93	1	2	2	0.0500	0.2290	0	1	0.414	94	82	82
93	1	94	1	2	2	0.0500	0.2290	1	1	0.405	95	0	82
93	1	95	0	2	2	0.0500	0.2290	1	1	0.460	9	82	0
93	1	96	9	2	2	0.0500	0.2290	1	1	0.445	0	82	0
93	1	97	9	2	2	0.0500	0.2290	1	0	0.609	0	0	82
93	1	98	1	2	3	0.0500	0.2290	1	1	0.590	76	0	82
93	1	99	1	2	2	0.0500	0.2290	1	1	0.377	97	0	82
93	1	100	1	1	2	0.0500	0.2290	1	1	0.535	82	82	0
93	1	101	0	1	1	0.0500	0.2290	1	1	0.455	9	0	82
93	1	102	0	2	2	0.0500	0.2290	0	0	0.464	0	0	0
93	1	103	0	2	2	0.0500	0.2290	1	1	0.557	8	82	0
93	1	104	0	1	1	0.0500	0.2290	1	0	0.503	0	0	82
93	1	105	0	1	3	0.0500	0.2290	1	1	0.550	8	0	82
93	1	106	1	1	1	0.0500	0.2290	0	1	0.514	84	82	82
93	1	107	1	2	2	0.0500	0.2290	0	0	0.481	0	82	82
93	1	108	9	1	1	0.0500	0.2290	0	1	0.554	0	0	0
93	1	109	9	1	1	0.0500	0.2290	1	0	1.008	0	82	0
93	1	110	0	2	1	0.0500	0.2290	0	1	0.446	9	0	0
93	1	111	1	1	3	0.0500	0.2290	1	0	0.584	0	82	0
93	1	112	9	1	1	0.0500	0.2290	1	0	0.716	0	0	82
93	1	113	1	1	3	0.0500	0.2290	0	0	0.617	0	82	82
93	1	114	0	2	3	0.0500	0.2290	0	1	0.452	9	0	0
93	1	115	9	1	1	0.0500	0.2290	1	1	0.600	0	82	0
93	1	116	1	1	1	0.0500	0.2290	0	1	0.549	80	82	82
93	1	117	1	1	3	0.0500	0.2290	0	1	0.614	74	82	82
93	1	118	0	2	2	0.0500	0.2290	0	1	0.483	9	0	0
93	1	119	0	1	2	0.0500	0.2290	1	0	0.466	0	0	82
93	1	120	0	1	3	0.0500	0.2290	1	0	0.554	0	0	82
93	1	121	1	2	3	0.0500	0.2290	1	0	0.507	0	0	82
93	1	122	0	1	1	0.0500	0.2290	0	1	0.536	8	0	0
93	1	123	0	2	1	0.0500	0.2290	1	1	0.990	5	82	0
93	1	124	1	1	3	0.0500	0.2290	0	1	0.395	96	82	82
93	1	125	0	1	3	0.0500	0.2290	0	1	0.626	7	0	0
93	1	126	0	2	2	0.0500	0.2290	0	1	0.493	9	0	0
93	1	127	1	2	1	0.0500	0.2290	1	1	0.725	62	0	82
93	1	128	1	2	3	0.0500	0.2290	0	1	0.475	88	82	82
93	1	129	0	2	2	0.0500	0.2290	1	0	0.617	0	82	0
93	1	130	1	1	1	0.0500	0.2290	1	1	0.409	94	82	0
93	1	131	9	1	3	0.0500	0.2290	0	1	0.639	0	0	0
93	1	132	0	2	3	0.0500	0.2290	0	0	0.485	0	0	0
93	1	133	9	2	2	0.0500	0.2290	1	0	0.568	0	0	82
93	1	134	1	2	3	0.0500	0.2290	0	0	0.475	0	82	82
93	1	135	9	2	3	0.0500	0.2290	0	1	0.536	0	0	0
93	1	136	0	2	3	0.0500	0.2290	1	1	0.675	7	82	0
93	1	137	1	2	3	0.0500	0.2290	0	1	0.600	75	82	82
93	1	138	1	2	2	0.0500	0.2290	0	1	0.546	80	82	82
93	1	139	1	2	2	0.0500	0.2290	0	1	0.460	89	82	82
93	1	140	9	1	1	0.0500	0.2290	0	1	0.449	0	0	0
93	1	141	0	1	1	0.0500	0.2290	0	1	0.388	10	0	0
93	1	142	1	1	3	0.0500	0.2290	1	1	0.521	83	82	0
93	1	143	0	1	1	0.0500	0.2290	0	1	0.514	8	0	0
93	1	144	0	2	3	0.0500	0.2290	0	1	0.486	9	0	0
93	1	145	1	1	1	0.0500	0.2290	0	1	0.431	92	82	82
93	1	146	1	2	2	0.0500	0.2290	1	1	0.534	82	0	82
93	1	147	0	2	2	0.0500	0.2290	1	0	0.530	0	82	0
93	1	148	0	1	1	0.0500	0.2290	1	1	0.445	9	0	82
93	1	149	1	1	3	0.0500	0.2290	0	1	0.421	93	82	82
93	1	150	1	2	1	0.0500	0.2290	1	0	0.457	0	0	82
93	1	151	9	1	1	0.0500	0.2290	0	0	0.450	0	0	0
93	1	152	1	2	3	0.0500	0.2290	0	1	0.351	100	82	82
93	1	153	9	2	3	0.0500	0.2290	1	1	0.507	0	82	0
93	1	154	9	2	2	0.0500	0.2290	1	0	0.499	0	0	82
93	1	155	1	2	2	0.0500	0.2290	0	1	0.410	94	82	82
93	1	156	0	2	3	0.0500	0.2290	1	1	0.602	7	82	0
93	1	157	1	2	2	0.0500	0.2290	0	1	0.295	100	82	82
93	1	158	0	1	3	0.0500	0.2290	0	1	0.426	9	0	0
93	1	159	1	1	2	0.0500	0.2290	0	1	0.496	85	82	82
93	1	160	9	2	1	0.0500	0.2290	0	1	0.431	0	0	0
93	1	161	0	2	3	0.0500	0.2290	1	1	0.476	9	82	0
93	1	162	9	2	3	0.0500	0.2290	1	0	0.473	0	0	82
93	1	163	9	2	3	0.0500	0.2290	1	1	0.504	0	82	0
93	1	164	0	1	3	0.0500	0.2290	1	0	0.448	0	0	82
93	1	165	0	1	3	0.0500	0.2290	1	1	0.484	9	0	82
93	1	166	0	1	3	0.0500	0.2290	1	1	0.587	8	0	82
93	1	167	0	2	3	0.0500	0.2290	0	0	0.395	0	0	0
93	1	168	9	2	2	0.0500	0.2290	0	1	0.459	0	0	0
93	1	169	0	2	3	0.0500	0.2290	1	1	0.649	7	82	0
93	1	170	0	1	2	0.0500	0.2290	1	1	0.606	7	0	82
93	1	171	9	2	3	0.0500	0.2290	1	1	0.657	0	0	82
93	1	172	0	1	1	0.0500	0.2290	0	1	0.389	10	0	0
93	1	173	0	2	2	0.0500	0.2290	0	1	0.514	8	0	0
93	1	174	1	2	3	0.0500	0.2290	0	1	0.716	63	82	82
93	1	175	0	2	1	0.0500	0.2290	1	0	0.475	0	82	0
93	1	176	1	1	3	0.0500	0.2290	1	1	0.308	100	82	0
93	1	177	1	2	2	0.0500	0.2290	1	0	0.311	0	0	82
93	1	178	1	1	2	0.0500	0.2290	0	1	0.637	71	82	82
93	1	179	0	2	2	0.0500	0.2290	1	1	0.511	8	82	0
93	1	180	0	1	1	0.0500	0.2290	0	1	0.350	10	0	0
93	1	181	1	1	3	0.0500	0.2290	1	0	0.373	0	82	0
93	1	182	9	2	3	0.0500	0.2290	1	1	0.602	0	0	82
93	1	183	0	2	2	0.0500	0.2290	1	0	0.345	0	82	0
93	1	184	1	1	3	0.0500	0.2290	0	0	0.275	0	82	82
93	1	185	1	2	2	0.0500	0.2290	1	0	0.594	0	0	82
93	1	186	0	2	2	0.0500	0.2290	1	0	0.564	0	82	0
93	1	187	1	2	3	0.0500	0.2290	1	1	0.500	85	0	82
93	1	188	1	1	1	0.0500	0.2290	0	1	0.582	77	82	82
93	1	189	1	2	2	0.0500	0.2290	0	1	0.501	85	82	82
93	1	190	1	1	1	0.0500	0.2290	0	1	0.451	90	82	82
93	1	191	1	2	1	0.0500	0.2290	0	1	0.379	97	82	82
93	1	192	9	2	3	0.0500	0.2290	1	0	0.356	0	82	0
93	1	193	1	1	1	0.0500	0.2290	1	1	0.418	93	82	0
93	1	194	1	2	3	0.0500	0.2290	1	0	0.485	0	0	82
93	1	195	1	1	1	0.0500	0.2290	0	0	0.409	0	82	82
93	1	196	1	1	3	0.0500	0.2290	0	1	0.495	86	82	82
93	1	197	0	1	3	0.0500	0.2290	0	1	0.694	7	0	0
93	1	198	1	2	3	0.0500	0.2290	1	1	0.581	77	0	82
93	1	199	0	2	3	0.0500	0.2290	0	1	0.363	10	0	0
93	1	200	1	2	2	0.0500	0.2290	1	1	0.525	82	0	82
93	1	201	1	2	2	0.0500	0.2290	1	0	0.571	0	0	82
93	1	202	1	1	3	0.0500	0.2290	1	1	0.555	79	82	0
93	1	203	9	1	3	0.0500	0.2290	1	1	0.375	0	82	0
93	1	204	1	2	3	0.0500	0.2290	1	1	0.439	91	0	82
93	1	205	9	1	1	0.0500	0.2290	1	1	0.458	0	0	82
93	1	206	0	1	1	0.0500	0.2290	0	1	0.640	7	0	0
93	1	207	9	2	1	0.0500	0.2290	0	1	0.495	0	82	82
93	1	208	0	2	2	0.0500	0.2290	0	0	0.350	0	0	0
93	1	209	1	1	1	0.0500	0.2290	1	0	0.432	0	82	0
93	1	210	0	2	1	0.0500	0.2290	0	1	0.471	9	0	0
93	1	211	1	2	3	0.0500	0.2290	0	1	0.433	92	82	82
93	1	212	0	1	3	0.0500	0.2290	1	0	0.517	0	0	82
93	1	213	9	2	2	0.0500	0.2290	1	0	0.393	0	82	0
93	1	214	1	1	3	0.0500	0.2290	1	1	0.370	98	82	0
93	1	215	1	1	1	0.0500	0.2290	0	1	0.424	93	82	82
93	1	216	0	2	2	0.0500	0.2290	1	1	0.447	9	82	0
93	1	217	0	1	3	0.0500	0.2290	1	0	0.376	0	0	82
93	1	218	1	2	2	0.0500	0.2290	1	0	0.498	0	0	82
93	1	219	0	2	3	0.0500	0.2290	0	1	0.567	8	0	0
93	1	220	9	2	2	0.0500	0.2290	1	1	0.519	0	0	82
93	1	221	9	1	3	0.0500	0.2290	0	1	0.493	0	82	82
93	1	222	0	1	1	0.0500	0.2290	1	0	0.372	0	0	82
93	1	223	0	2	3	0.0500	0.2290	0	0	0.299	0	0	0
93	1	224	0	1	1	0.0500	0.2290	0	1	0.422	9	0	0
93	1	225	1	2	3	0.0500	0.2290	1	0	0.587	0	0	82
93	1	226	0	2	2	0.0500	0.2290	0	1	0.527	8	0	0
93	1	227	1	2	3	0.0500	0.2290	1	1	0.717	63	0	82
93	1	228	1	2	2	0.0500	0.2290	0	1	0.539	81	82	82
93	1	229	9	1	3	0.0500	0.2290	0	0	0.633	0	0	0
93	1	230	0	2	2	0.0500	0.2290	0	1	0.476	9	0	0
93	1	231	1	2	3	0.0500	0.2290	0	1	0.562	79	82	82
93	1	232	0	2	2	0.0500	0.2290	1	0	0.597	0	82	0
93	1	233	9	1	1	0.0500	0.2290	1	0	1.045	0	82	0
93	1	234	0	1	3	0.0500	0.2290	0	1	0.895	5	0	0
93	1	235	0	1	1	0.0500	0.2290	1	1	0.734	6	0	82
93	1	236	9	1	1	0.0500	0.2290	0	1	0.524	0	82	82
93	1	237	1	1	1	0.0500	0.2290	0	1	0.452	90	82	82
93	1	238	1	1	3	0.0500	0.2290	1	0	0.608	0	82	0
93	1	239	9	2	2	0.0500	0.2290	0	1	0.489	0	82	82
93	1	240	0	1	3	0.0500	0.2290	0	1	0.424	9	0	0
93	1	241	9	2	2	0.0500	0.2290	0	1	0.454	0	0	0
93	1	242	0	1	3	0.0500	0.2290	0	1	0.475	9	0	0
93	1	243	0	2	3	0.0500	0.2290	1	0	0.687	0	82	0
93	1	244	9	2	2	0.0500	0.2290	1	0	0.621	0	82	0
93	1	245	1	2	2	0.0500	0.2290	1	1	0.488	86	0	82
93	1	246	0	1	1	0.0500	0.2290	0	1	0.437	9	0	0
93	1	247	0	1	3	0.0500	0.2290	0	1	0.699	7	0	0
93	1	248	1	1	1	0.0500	0.2290	1	1	0.515	84	82	0
93	1	249	9	2	2	0.0500	0.2290	0	1	0.423	0	82	82
93	1	250	0	1	2	0.0500	0.2290	0	1	0.308	10	0	0
93	1	251	1	2	3	0.0500	0.2290	1	0	0.479	0	0	82
93	1	252	0	2	3	0.0500	0.2290	1	1	0.451	9	82	0
93	1	253	1	2	1	0.0500	0.2290	0	1	0.579	77	82	82
93	1	254	1	2	2	0.0500	0.2290	1	1	0.474	88	0	82
93	1	255	0	1	1	0.0500	0.2290	1	0	0.502	0	0	82
93	1	256	9	1	1	0.0500	0.2290	0	1	0.446	0	0	0
93	1	257	1	2	2	0.0500	0.2290	1	0	0.521	0	0	82
93	1	258	1	1	1	0.0500	0.2290	1	1	0.479	87	82	0
93	1	259	1	2	3	0.0500	0.2290	0	1	0.539	81	82	82
93	1	260	0	1	3	0.0500	0.2290	0	0	0.940	0	0	0
93	1	261	9	2	2	0.0500	0.2290	0	1	0.520	0	0	0
93	1	262	9	1	2	0.0500	0.2290	0	1	0.627	0	82	82
93	1	263	1	2	2	0.0500	0.2290	0	1	0.471	88	82	82
93	1	264	9	2	2	0.0500	0.2290	0	1	0.530	0	82	82
93	1	265	1	1	1	0.0500	0.2290	1	0	0.659	0	82	0
93	1	266	9	2	3	0.0500	0.2290	0	0	0.447	0	82	82
93	1	267	1	1	3	0.0500	0.2290	1	1	0.792	56	82	0
93	1	268	9	1	1	0.0500	0.2290	0	1	0.683	0	82	82
93	1	269	1	2	3	0.0500	0.2290	1	1	0.506	84	0	82
93	1	270	0	1	1	0.0500	0.2290	0	1	0.436	9	0	0
93	1	271	1	2	3	0.0500	0.2290	0	1	0.507	84	82	82
93	1	272	1	2	2	0.0500	0.2290	1	0	0.839	0	0	82
93	1	273	0	1	3	0.0500	0.2290	0	1	0.600	8	0	0
93	1	274	0	1	1	0.0500	0.2290	1	1	0.590	8	0	82
93	1	275	1	1	3	0.0500	0.2290	0	1	0.370	98	82	82
93	1	276	0	1	1	0.0500	0.2290	0	1	0.404	9	0	0
93	1	277	1	2	2	0.0500	0.2290	0	0	0.513	0	82	82
93	1	278	1	1	3	0.0500	0.2290	0	1	0.419	93	82	82
93	1	279	0	1	2	0.0500	0.2290	0	1	0.448	9	0	0
93	1	280	1	2	1	0.0500	0.2290	0	1	0.356	99	82	82
93	1	281	0	2	3	0.0500	0.2290	1	0	0.426	0	82	0
93	1	282	0	2	2	0.0500	0.2290	0	1	0.470	9	0	0
93	1	283	1	1	3	0.0500	0.2290	1	1	0.461	89	82	0
93	1	284	1	2	2	0.0500	0.2290	1	0	0.293	0	0	82
93	1	285	0	2	2	0.0500	0.2290	0	0	0.373	0	0	0
93	1	286	0	1	3	0.0500	0.2290	0	0	0.639	0	0	0
93	1	287	0	2	3	0.0500	0.2290	0	1	0.411	9	0	0
93	1	288	9	1	2	0.0500	0.2290	0	1	0.567	0	0	0
93	1	289	1	1	3	0.0500	0.2290	0	1	0.624	73	82	82
93	1	290	0	2	3	0.0500	0.2290	1	1	0.570	8	82	0
93	1	291	1	2	2	0.0500	0.2290	0	1	0.497	85	82	82
93	1	292	0	2	3	0.0500	0.2290	1	1	0.445	9	82	0
93	1	293	9	1	3	0.0500	0.2290	1	0	0.629	0	82	0
93	1	294	9	1	3	0.0500	0.2290	0	0	0.312	0	82	82
93	1	295	9	1	3	0.0500	0.2290	0	1	0.440	0	82	82
93	1	296	1	1	3	0.0500	0.2290	1	1	0.834	52	82	0
93	1	297	1	1	1	0.0500	0.2290	0	1	0.562	79	82	82
93	1	298	0	1	1	0.0500	0.2290	1	0	0.494	0	0	82
93	1	299	0	1	3	0.0500	0.2290	1	1	0.584	8	0	82
93	1	300	9	1	2	0.0500	0.2290	1	0	0.428	0	82	0
93	1	301	0	1	2	0.0500	0.2290	0	1	0.330	10	0	0
93	1	302	1	2	3	0.0500	0.2290	0	1	0.448	90	82	82
93	1	303	0	1	3	0.0500	0.2290	0	0	0.555	0	0	0
93	1	304	0	1	3	0.0500	0.2290	1	0	0.452	0	0	82
93	1	305	1	2	2	0.0500	0.2290	0	1	0.484	87	82	82
93	1	306	0	2	2	0.0500	0.2290	1	0	0.564	0	82	0
93	1	307	1	1	1	0.0500	0.2290	1	1	0.591	76	82	0
93	1	308	9	1	1	0.0500	0.2290	0	1	0.398	0	82	82
93	1	309	1	1	2	0.0500	0.2290	0	1	0.677	67	82	82
93	1	310	0	2	3	0.0500	0.2290	1	1	0.900	5	82	0
93	1	311	0	2	1	0.0500	0.2290	0	1	0.555	8	0	0
93	1	312	9	2	3	0.0500	0.2290	0	1	0.433	0	82	82
93	1	313	1	1	1	0.0500	0.2290	0	1	0.624	73	82	82
93	1	314	1	1	1	0.0500	0.2290	1	0	0.427	0	82	0
93	1	315	1	1	3	0.0500	0.2290	1	1	0.529	82	82	0
93	1	316	0	2	2	0.0500	0.2290	0	1	0.512	8	0	0
93	1	317	0	1	1	0.0500	0.2290	0	1	0.340	10	0	0
93	1	318	1	2	2	0.0500	0.2290	0	1	0.398	95	82	82
93	1	319	1	1	1	0.0500	0.2290	1	0	0.381	0	82	0
93	1	320	1	1	1	0.0500	0.2290	1	1	0.272	100	82	0
93	1	321	0	1	2	0.0500	0.2290	1	0	0.441	0	0	82
93	1	322	0	1	3	0.0500	0.2290	0	0	0.228	0	0	0
93	1	323	0	2	2	0.0500	0.2290	0	1	0.364	10	0	0
93	1	324	1	1	1	0.0500	0.2290	1	1	0.292	100	82	0
93	1	325	1	1	3	0.0500	0.2290	0	1	0.447	90	82	82
93	1	326	1	2	3	0.0500	0.2290	1	0	0.347	0	0	82
93	1	327	0	1	1	0.0500	0.2290	1	0	0.430	0	0	82
93	1	328	9	2	2	0.0500	0.2290	1	1	0.181	0	82	0
93	1	329	1	2	3	0.0500	0.2290	0	1	0.481	87	82	82
93	1	330	9	1	3	0.0500	0.2290	1	1	0.563	0	0	82
93	1	331	0	2	1	0.0500	0.2290	0	1	0.438	9	0	0
93	1	332	1	1	1	0.0500	0.2290	0	1	0.326	100	82	82
93	1	333	0	1	1	0.0500	0.2290	0	1	0.357	10	0	0
93	1	334	0	2	3	0.0500	0.2290	0	0	0.304	0	0	0
93	1	335	1	1	3	0.0500	0.2290	0	1	0.293	100	82	82
93	1	336	0	1	3	0.0500	0.2290	1	0	0.461	0	0	82
93	1	337	1	1	3	0.0500	0.2290	1	1	0.523	83	82	0
93	1	338	0	1	3	0.0500	0.2290	1	1	0.561	8	0	82
93	1	339	9	2	3	0.0500	0.2290	0	1	0.511	0	82	82
93	1	340	1	1	1	0.0500	0.2290	0	0	0.483	0	82	82
93	1	341	9	2	2	0.0500	0.2290	0	1	0.269	0	82	82
93	1	342	1	1	3	0.0500	0.2290	0	1	0.261	100	82	82
93	1	343	9	1	1	0.0500	0.2290	1	0	0.327	0	82	0
93	1	344	0	1	2	0.0500	0.2290	0	1	0.274	10	0	0
93	1	345	0	2	2	0.0500	0.2290	0	1	0.359	10	0	0
93	1	346	0	2	3	0.0500	0.2290	0	1	0.446	9	0	0
93	1	347	9	1	3	0.0500	0.2290	1	0	0.370	0	82	0
93	1	348	1	1	1	0.0500	0.2290	0	1	0.345	100	82	82
93	1	349	1	2	3	0.0500	0.2290	1	0	0.259	0	0	82
93	1	350	1	1	3	0.0500	0.2290	0	1	0.562	79	82	82
93	1	351	1	1	3	0.0500	0.2290	1	1	0.556	79	82	0
93	1	352	0	2	2	0.0500	0.2290	1	0	0.377	0	82	0
93	1	353	0	1	1	0.0500	0.2290	0	0	0.345	0	0	0
93	1	354	0	2	2	0.0500	0.2290	1	0	0.247	0	82	0
93	1	355	1	2	3	0.0500	0.2290	1	0	0.586	0	0	82
93	1	356	1	1	3	0.0500	0.2290	1	0	0.620	0	82	0
93	1	357	0	1	3	0.0500	0.2290	1	0	0.745	0	0	82
93	1	358	0	2	2	0.0500	0.2290	1	1	0.780	6	82	0
93	1	359	0	1	1	0.0500	0.2290	1	1	0.519	8	0	82
93	1	360	9	1	2	0.0500	0.2290	1	0	0.462	0	0	82
93	1	361	0	2	2	0.0500	0.2290	1	1	0.480	9	82	0
93	1	362	1	1	3	0.0500	0.2290	0	1	0.451	90	82	82
93	1	363	9	2	3	0.0500	0.2290	1	1	0.719	0	82	0
93	1	364	1	2	3	0.0500	0.2290	1	1	0.462	89	0	82
93	1	365	0	1	3	0.0500	0.2290	0	1	0.350	10	0	0
93	1	366	1	1	2	0.0500	0.2290	1	0	0.349	0	82	0
93	1	367	1	1	3	0.0500	0.2290	1	1	0.232	100	82	0
93	1	368	0	2	2	0.0500	0.2290	1	1	0.529	8	82	0
93	1	369	9	1	1	0.0500	0.2290	0	1	1.234	0	0	0
93	1	370	0	2	3	0.0500	0.2290	0	0	0.302	0	0	0
93	1	371	0	2	1	0.0500	0.2290	1	1	0.622	7	82	0
93	1	372	0	2	3	0.0500	0.2290	0	1	0.213	10	0	0
93	1	373	9	2	3	0.0500	0.2290	0	1	0.364	0	82	82
93	1	374	1	1	3	0.0500	0.2290	1	1	0.348	100	82	0
93	1	375	9	2	3	0.0500	0.2290	1	0	0.227	0	0	82
93	1	376	1	1	1	0.0500	0.2290	0	0	0.371	0	82	82
93	1	377	0	2	2	0.0500	0.2290	0	1	0.378	10	0	0
93	1	378	0	1	3	0.0500	0.2290	0	0	0.509	0	0	0
93	1	379	0	1	3	0.0500	0.2290	0	1	0.497	9	0	0
93	1	380	1	2	2	0.0500	0.2290	0	1	0.594	76	82	82
93	1	381	9	1	1	0.0500	0.2290	0	1	0.410	0	82	82
93	1	382	9	2	2	0.0500	0.2290	1	0	0.286	0	0	82
93	1	383	0	1	3	0.0500	0.2290	1	1	0.592	8	0	82
93	1	384	1	2	2	0.0500	0.2290	1	0	0.297	0	0	82
93	1	385	0	2	3	0.0500	0.2290	1	1	0.375	10	82	0
93	1	386	0	1	1	0.0500	0.2290	0	1	0.419	9	0	0
93	1	387	1	2	2	0.0500	0.2290	0	0	0.440	0	82	82
93	1	388	9	1	1	0.0500	0.2290	0	1	0.344	0	0	0
93	1	389	0	1	1	0.0500	0.2290	0	1	0.337	10	0	0
93	1	390	0	1	1	0.0500	0.2290	0	1	0.432	9	0	0
93	1	391	9	1	2	0.0500	0.2290	0	1	0.459	0	82	82
93	1	392	9	2	2	0.0500	0.2290	0	1	0.299	0	0	0
93	1	393	0	1	3	0.0500	0.2290	0	1	0.419	9	0	0
93	1	394	1	2	1	0.0500	0.2290	0	1	0.366	98	82	82
93	1	395	0	2	3	0.0500	0.2290	1	0	0.477	0	82	0
93	1	396	1	2	3	0.0500	0.2290	0	1	0.554	80	82	82
93	1	397	1	2	2	0.0500	0.2290	0	1	0.579	77	82	82
93	1	398	0	2	1	0.0500	0.2290	1	1	0.512	8	82	0
93	1	399	9	1	2	0.0500	0.2290	1	0	0.466	0	0	82
93	1	400	9	2	2	0.0500	0.2290	1	1	0.481	0	82	0
93	1	401	0	2	2	0.0500	0.2290	1	0	0.471	0	82	0
93	1	402	9	2	3	0.0500	0.2290	0	0	0.451	0	0	0
93	1	403	0	2	3	0.0500	0.2290	0	0	0.511	0	0	0
93	1	404	1	2	2	0.0500	0.2290	1	1	0.530	82	0	82
93	1	405	0	1	1	0.0500	0.2290	0	1	0.448	9	0	0
93	1	406	0	1	3	0.0500	0.2290	1	1	0.681	7	0	82
93	1	407	0	2	2	0.0500	0.2290	1	0	0.596	0	82	0
93	1	408	9	2	2	0.0500	0.2290	1	1	0.538	0	0	82
93	1	409	1	2	2	0.0500	0.2290	1	1	0.486	86	0	82
93	1	410	9	2	2	0.0500	0.2290	0	1	0.540	0	82	82
93	1	411	0	2	3	0.0500	0.2290	0	1	0.462	9	0	0
93	1	412	0	2	2	0.0500	0.2290	0	1	0.401	9	0	0
93	1	413	0	2	2	0.0500	0.2290	0	1	0.482	9	0	0
93	1	414	1	1	3	0.0500	0.2290	0	0	0.698	0	82	82
93	1	415	1	1	3	0.0500	0.2290	1	0	0.560	0	82	0
93	1	416	1	1	3	0.0500	0.2290	1	1	0.481	87	82	0
93	1	417	1	1	3	0.0500	0.2290	1	0	0.377	0	82	0
93	1	418	1	2	3	0.0500	0.2290	1	1	0.203	100	0	82
93	1	419	1	2	2	0.0500	0.2290	0	0	0.471	0	82	82
93	1	420	0	1	2	0.0500	0.2290	0	1	0.325	10	0	0
93	1	421	0	1	3	0.0500	0.2290	0	1	0.410	9	0	0
93	1	422	1	2	1	0.0500	0.2290	1	1	0.562	79	0	82
93	1	423	1	1	1	0.0500	0.2290	1	0	0.496	0	82	0
93	1	424	9	1	1	0.0500	0.2290	0	0	0.284	0	82	82
93	1	425	1	1	2	0.0500	0.2290	0	1	0.312	100	82	82
93	1	426	1	1	1	0.0500	0.2290	1	0	0.450	0	82	0
93	1	427	9	1	3	0.0500	0.2290	1	1	0.385	0	82	0
93	1	428	1	2	3	0.0500	0.2290	1	0	0.347	0	0	82
93	1	429	1	2	3	0.0500	0.2290	1	1	0.297	100	0	82
93	1	430	0	1	3	0.0500	0.2290	1	1	0.336	10	0	82
93	1	431	1	2	3	0.0500	0.2290	1	1	0.366	98	0	82
93	1	432	1	2	1	0.0500	0.2290	0	1	0.479	87	82	82
93	1	433	9	1	1	0.0500	0.2290	1	0	0.426	0	0	82
93	1	434	0	1	1	0.0500	0.2290	0	0	0.632	0	0	0
93	1	435	1	1	3	0.0500	0.2290	0	1	0.509	84	82	82
93	1	436	1	2	3	0.0500	0.2290	0	1	0.311	100	82	82
93	1	437	1	1	3	0.0500	0.2290	0	1	0.663	69	82	82
93	1	438	1	2	3	0.0500	0.2290	0	1	0.716	63	82	82
93	1	439	9	1	3	0.0500	0.2290	0	1	0.446	0	82	82
93	1	440	1	1	1	0.0500	0.2290	1	1	0.700	65	82	0
93	1	441	1	1	1	0.0500	0.2290	1	0	0.538	0	82	0
93	1	442	1	2	3	0.0500	0.2290	0	1	0.456	89	82	82
93	1	443	1	2	1	0.0500	0.2290	0	1	0.312	100	82	82
93	1	444	1	2	2	0.0500	0.2290	0	1	0.377	97	82	82
93	1	445	0	1	3	0.0500	0.2290	0	1	0.408	9	0	0
93	1	446	0	2	3	0.0500	0.2290	1	1	0.614	7	82	0
93	1	447	1	2	1	0.0500	0.2290	1	0	0.392	0	0	82
93	1	448	1	1	1	0.0500	0.2290	0	1	0.444	91	82	82
93	1	449	0	1	1	0.0500	0.2290	1	1	0.352	10	0	82
93	1	450	1	2	3	0.0500	0.2290	1	1	0.608	74	0	82
93	1	451	9	1	1	0.0500	0.2290	0	1	0.421	0	0	0
93	1	452	0	1	1	0.0500	0.2290	0	1	0.416	9	0	0
93	1	453	1	2	2	0.0500	0.2290	1	1	0.362	99	0	82
93	1	454	9	1	3	0.0500	0.2290	0	1	0.312	0	82	82
93	1	455	1	1	1	0.0500	0.2290	1	0	0.277	0	82	0
93	1	456	1	2	2	0.0500	0.2290	0	1	0.203	100	82	82
93	1	457	1	2	2	0.0500	0.2290	1	1	0.444	91	0	82
93	1	458	1	2	2	0.0500	0.2290	1	1	0.445	91	0	82
93	1	459	0	2	2	0.0500	0.2290	1	0	0.381	0	82	0
93	1	460	1	2	2	0.0500	0.2290	0	0	0.438	0	82	82
93	1	461	9	2	3	0.0500	0.2290	1	1	0.389	0	0	82
93	1	462	1	2	2	0.0500	0.2290	0	1	0.151	100	82	82
93	1	463	0	2	2	0.0500	0.2290	0	1	0.265	10	0	0
93	1	464	1	1	2	0.0500	0.2290	0	1	0.147	100	82	82
93	1	465	1	2	2	0.0500	0.2290	0	1	0.246	100	82	82
93	1	466	0	1	3	0.0500	0.2290	0	1	0.309	10	0	0
93	1	467	0	2	3	0.0500	0.2290	1	0	0.296	0	82	0
93	1	468	9	2	1	0.0500	0.2290	1	1	0.131	0	0	82
93	1	469	0	2	3	0.0500	0.2290	1	0	0.340	0	82	0
93	1	470	1	1	1	0.0500	0.2290	0	0	0.222	0	82	82
93	1	471	9	1	1	0.0500	0.2290	0	1	0.229	0	82	82
93	1	472	0	1	3	0.0500	0.2290	0	1	0.291	10	0	0
93	1	473	0	1	1	0.0500	0.2290	0	1	0.404	9	0	0
93	1	474	9	1	3	0.0500	0.2290	1	0	0.236	0	0	82
93	1	475	1	1	2	0.0500	0.2290	1	0	0.298	0	82	0
93	1	476	1	2	3	0.0500	0.2290	0	0	0.394	0	82	82
93	1	477	0	1	1	0.0500	0.2290	1	1	0.596	8	0	82
93	1	478	9	2	2	0.0500	0.2290	0	1	0.157	0	0	0
93	1	479	0	1	1	0.0500	0.2290	1	1	0.322	10	0	82
93	1	480	1	1	1	0.0500	0.2290	1	0	0.235	0	82	0
93	1	481	9	1	3	0.0500	0.2290	0	1	0.382	0	0	0
93	1	482	9	2	2	0.0500	0.2290	0	1	0.208	0	82	82
93	1	483	1	2	3	0.0500	0.2290	1	0	0.219	0	0	82
93	1	484	0	1	2	0.0500	0.2290	0	0	0.496	0	0	0
93	1	485	0	2	3	0.0500	0.2290	0	1	0.275	10	0	0
93	1	486	9	1	3	0.0500	0.2290	0	0	0.466	0	82	82
93	1	487	0	1	1	0.0500	0.2290	1	1	0.938	5	0	82
93	1	488	1	1	1	0.0500	0.2290	0	1	0.357	99	82	82
93	1	489	0	1	2	0.0500	0.2290	0	1	0.520	8	0	0
93	1	490	0	2	2	0.0500	0.2290	0	1	0.417	9	0	0
93	1	491	1	1	3	0.0500	0.2290	0	1	0.240	100	82	82
93	1	492	0	2	2	0.0500	0.2290	1	0	0.267	0	82	0
93	1	493	1	2	2	0.0500	0.2290	1	0	0.142	0	0	82
93	1	494	0	1	1	0.0500	0.2290	1	1	0.245	10	0	82
93	1	495	9	2	2	0.0500	0.2290	1	0	0.246	0	0	82
93	1	496	0	2	3	0.0500	0.2290	0	0	0.170	0	0	0
93	1	497	9	2	3	0.0500	0.2290	1	0	0.232	0	0	82
93	1	498	0	1	3	0.0500	0.2290	1	0	0.484	0	0	82
93	1	499	0	1	3	0.0500	0.2290	0	1	0.328	10	0	0
93	1	500	1	1	3	0.0500	0.2290	1	0	0.358	0	82	0
93	1	501	1	2	2	0.0500	0.2290	1	0	0.258	0	0	82
93	1	502	9	1	3	0.0500	0.2290	1	0	0.350	0	82	0
93	1	503	9	1	1	0.0500	0.2290	1	1	0.214	0	82	0
93	1	504	0	1	2	0.0500	0.2290	1	0	0.191	0	0	82
93	1	505	0	2	2	0.0500	0.2290	1	1	0.294	10	82	0
93	1	506	0	2	3	0.0500	0.2290	1	0	0.298	0	82	0
93	1	507	0	2	3	0.0500	0.2290	1	1	0.069	10	82	0
93	1	508	0	1	1	0.0500	0.2290	1	1	0.247	10	0	82
93	1	509	1	2	3	0.0500	0.2290	1	0	0.374	0	0	82
93	1	510	0	2	2	0.0500	0.2290	0	1	0.424	9	0	0
93	1	511	9	2	1	0.0500	0.2290	1	1	0.710	0	82	0
93	1	512	0	1	1	0.0500	0.2290	1	0	0.476	0	0	82
93	1	513	0	1	1	0.0500	0.2290	0	0	0.311	0	0	0
93	1	514	1	2	2	0.0500	0.2290	1	0	0.450	0	0	82
93	1	515	0	1	3	0.0500	0.2290	1	1	0.651	7	0	82
93	1	516	0	1	1	0.0500	0.2290	1	0	0.153	0	0	82
93	1	517	0	1	1	0.0500	0.2290	1	0	0.481	0	0	82
93	1	518	0	2	3	0.0500	0.2290	1	1	0.426	9	82	0
93	1	519	1	2	3	0.0500	0.2290	1	0	0.373	0	0	82
93	1	520	1	2	2	0.0500	0.2290	1	1	0.520	83	0	82
93	1	521	0	1	3	0.0500	0.2290	1	1	0.487	9	0	82
93	1	522	0	1	1	0.0500	0.2290	1	1	0.469	9	0	82
93	1	523	9	1	1	0.0500	0.2290	1	1	0.450	0	82	0
93	1	524	1	1	3	0.0500	0.2290	0	1	0.462	89	82	82
93	1	525	1	1	3	0.0500	0.2290	1	0	0.339	0	82	0
93	1	526	0	2	2	0.0500	0.2290	1	1	0.481	9	82	0
93	1	527	0	1	2	0.0500	0.2290	1	1	0.607	7	0	82
93	1	528	1	1	3	0.0500	0.2290	0	0	0.278	0	82	82
93	1	529	9	2	3	0.0500	0.2290	1	0	0.212	0	82	0
93	1	530	0	2	3	0.0500	0.2290	0	0	0.384	0	0	0
93	1	531	9	1	1	0.0500	0.2290	0	1	0.374	0	0	0
93	1	532	1	2	3	0.0500	0.2290	0	1	0.537	81	82	82
93	1	533	0	1	3	0.0500	0.2290	1	0	0.431	0	0	82
93	1	534	1	1	3	0.0500	0.2290	1	1	0.305	100	82	0
93	1	535	0	1	3	0.0500	0.2290	1	1	0.584	8	0	82
93	1	536	1	2	3	0.0500	0.2290	1	0	0.395	0	0	82
93	1	537	1	2	2	0.0500	0.2290	0	1	0.335	100	82	82
93	1	538	0	2	3	0.0500	0.2290	1	1	0.424	9	82	0
93	1	539	1	2	3	0.0500	0.2290	1	1	0.548	80	0	82
93	1	540	1	2	3	0.0500	0.2290	1	1	0.413	94	0	82
93	1	541	0	2	3	0.0500	0.2290	1	1	0.482	9	82	0
93	1	542	0	1	3	0.0500	0.2290	0	1	0.532	8	0	0
93	1	543	9	2	3	0.0500	0.2290	1	1	0.381	0	0	82
93	1	544	9	2	3	0.0500	0.2290	0	1	0.415	0	82	82
93	1	545	1	2	2	0.0500	0.2290	0	1	0.363	99	82	82
93	1	546	0	1	2	0.0500	0.2290	1	1	0.530	8	0	82
93	1	547	1	2	2	0.0500	0.2290	1	1	0.402	95	0	82
93	1	548	0	2	3	0.0500	0.2290	0	1	0.446	9	0	0
93	1	549	0	2	3	0.0500	0.2290	1	1	0.408	9	82	0
93	1	550	0	2	2	0.0500	0.2290	1	0	0.332	0	82	0
93	1	551	1	2	3	0.0500	0.2290	0	1	0.363	99	82	82
93	1	552	0	2	2	0.0500	0.2290	1	1	0.447	9	82	0
93	1	553	0	1	3	0.0500	0.2290	0	0	0.594	0	0	0
93	1	554	1	2	3	0.0500	0.2290	0	1	0.351	100	82	82
93	1	555	1	2	3	0.0500	0.2290	0	0	0.353	0	82	82
93	1	556	1	2	1	0.0500	0.2290	1	0	0.383	0	0	82
93	1	557	0	1	3	0.0500	0.2290	1	0	0.585	0	0	82
93	1	558	0	1	3	0.0500	0.2290	1	1	0.350	10	0	82
93	1	559	9	1	3	0.0500	0.2290	0	1	0.352	0	0	0
93	1	560	9	2	3	0.0500	0.2290	1	1	0.480	0	82	0
93	1	561	1	2	3	0.0500	0.2290	1	0	0.354	0	0	82
93	1	562	1	1	1	0.0500	0.2290	0	0	0.311	0	82	82
93	1	563	1	1	1	0.0500	0.2290	0	1	0.292	100	82	82
93	1	564	1	2	2	0.0500	0.2290	0	1	0.282	100	82	82
93	1	565	1	1	3	0.0500	0.2290	1	0	0.367	0	82	0
93	1	566	1	1	3	0.0500	0.2290	0	0	0.360	0	82	82
93	1	567	9	2	2	0.0500	0.2290	1	0	0.171	0	82	0
93	1	568	1	2	3	0.0500	0.2290	0	1	0.417	93	82	82
93	1	569	9	2	3	0.0500	0.2290	0	1	0.372	0	0	0
93	1	570	1	2	3	0.0500	0.2290	0	1	0.249	100	82	82
93	1	571	9	1	1	0.0500	0.2290	1	0	0.408	0	0	82
93	1	572	0	2	3	0.0500	0.2290	1	1	0.439	9	82	0
93	1	573	0	2	2	0.0500	0.2290	0	1	0.241	10	0	0
93	1	574	1	1	2	0.0500	0.2290	0	1	0.285	100	82	82
93	1	575	1	2	1	0.0500	0.2290	0	0	0.151	0	82	82
93	1	576	0	1	1	0.0500	0.2290	0	1	0.356	10	0	0
93	1	577	0	2	2	0.0500	0.2290	1	0	0.276	0	82	0
93	1	578	1	1	1	0.0500	0.2290	0	1	0.328	100	82	82
93	1	579	1	2	2	0.0500	0.2290	1	0	0.336	0	0	82
93	1	580	9	2	2	0.0500	0.2290	0	0	0.218	0	82	82
93	1	581	9	2	3	0.0500	0.2290	0	1	0.318	0	0	0
93	1	582	0	1	1	0.0500	0.2290	1	0	0.250	0	0	82
93	1	583	9	2	2	0.0500	0.2290	1	0	0.236	0	82	0
93	1	584	9	2	2	0.0500	0.2290	0	0	0.322	0	0	0
93	1	585	1	2	1	0.0500	0.2290	1	0	0.203	0	0	82
93	1	586	0	1	1	0.0500	0.2290	0	1	0.229	10	0	0
93	1	587	9	1	3	0.0500	0.2290	0	1	0.335	0	82	82
93	1	588	0	1	3	0.0500	0.2290	0	1	0.185	10	0	0
93	1	589	0	2	3	0.0500	0.2290	0	0	0.315	0	0	0
93	1	590	1	1	1	0.0500	0.2290	1	0	0.403	0	82	0
93	1	591	0	1	1	0.0500	0.2290	1	1	0.328	10	0	82
93	1	592	1	1	1	0.0500	0.2290	1	1	0.510	84	82	0
93	1	593	1	2	2	0.0500	0.2290	0	1	0.238	100	82	82
93	1	594	0	2	2	0.0500	0.2290	1	1	0.458	9	82	0
93	1	595	9	2	3	0.0500	0.2290	0	0	0.387	0	82	82
93	1	596	9	1	3	0.0500	0.2290	1	1	0.854	0	0	82
93	1	597	0	2	2	0.0500	0.2290	1	1	0.497	9	82	0
93	1	598	9	1	1	0.0500	0.2290	1	0	0.700	0	82	0
93	1	599	9	2	2	0.0500	0.2290	1	0	0.298	0	82	0
93	1	600	9	1	3	0.0500	0.2290	1	1	0.421	0	82	0
93	1	601	9	1	3	0.0500	0.2290	0	1	0.714	0	0	0
93	1	602	0	2	3	0.0500	0.2290	0	1	0.468	9	0	0
93	1	603	9	2	2	0.0500	0.2290	1	1	0.467	0	0	82
93	1	604	1	1	2	0.0500	0.2290	0	1	0.402	95	82	82
93	1	605	0	1	1	0.0500	0.2290	0	1	0.342	10	0	0
93	1	606	1	1	1	0.0500	0.2290	0	1	0.288	100	82	82
93	1	607	9	1	1	0.0500	0.2290	1	0	0.187	0	82	0
93	1	608	1	1	3	0.0500	0.2290	0	1	0.208	100	82	82
93	1	609	0	1	1	0.0500	0.2290	0	1	0.236	10	0	0
93	1	610	1	1	3	0.0500	0.2290	1	0	0.328	0	82	0
93	1	611	1	1	1	0.0500	0.2290	0	1	0.305	100	82	82
93	1	612	1	1	1	0.0500	0.2290	0	1	0.267	100	82	82
93	1	613	1	1	3	0.0500	0.2290	0	1	0.312	100	82	82
93	1	614	0	2	2	0.0500	0.2290	0	1	0.570	8	0	0
93	1	615	1	2	3	0.0500	0.2290	0	1	0.599	75	82	82
93	1	616	0	2	2	0.0500	0.2290	1	0	0.651	0	82	0
93	1	617	9	1	2	0.0500	0.2290	1	1	0.392	0	82	0
93	1	618	9	2	3	0.0500	0.2290	0	1	0.369	0	82	82
93	1	619	9	2	1	0.0500	0.2290	0	1	0.371	0	82	82
93	1	620	0	2	1	0.0500	0.2290	1	1	0.563	8	82	0
93	1	621	0	2	2	0.0500	0.2290	0	1	0.480	9	0	0
93	1	622	9	1	2	0.0500	0.2290	0	1	0.482	0	0	0
93	1	623	9	2	2	0.0500	0.2290	0	0	0.440	0	82	82
93	1	624	1	1	3	0.0500	0.2290	0	1	0.389	96	82	82
93	1	625	1	1	3	0.0500	0.2290	0	1	0.356	99	82	82
93	1	626	0	1	2	0.0500	0.2290	1	1	0.740	6	0	82
93	1	627	1	1	3	0.0500	0.2290	1	0	0.320	0	82	0
93	1	628	0	1	1	0.0500	0.2290	1	0	0.485	0	0	82
93	1	629	0	1	3	0.0500	0.2290	1	1	0.264	10	0	82
93	1	630	1	2	2	0.0500	0.2290	1	0	0.204	0	0	82
93	1	631	0	1	2	0.0500	0.2290	0	0	0.192	0	0	0
93	1	632	1	1	3	0.0500	0.2290	1	0	0.231	0	82	0
93	1	633	0	2	2	0.0500	0.2290	1	1	0.468	9	82	0
93	1	634	1	1	3	0.0500	0.2290	0	1	0.366	98	82	82
93	1	635	9	2	3	0.0500	0.2290	1	0	0.312	0	82	0
93	1	636	1	1	2	0.0500	0.2290	1	1	0.562	79	82	0
93	1	637	0	1	3	0.0500	0.2290	1	0	0.398	0	0	82
93	1	638	0	1	1	0.0500	0.2290	1	1	0.548	8	0	82
93	1	639	9	1	3	0.0500	0.2290	1	1	0.558	0	0	82
93	1	640	1	2	2	0.0500	0.2290	0	0	0.469	0	82	82
93	1	641	9	2	3	0.0500	0.2290	0	1	0.361	0	0	0
93	1	642	9	1	3	0.0500	0.2290	1	1	0.598	0	82	0
93	1	643	1	2	3	0.0500	0.2290	1	0	0.389	0	0	82
93	1	644	0	1	1	0.0500	0.2290	1	1	0.319	10	0	82
93	1	645	0	1	1	0.0500	0.2290	0	0	0.450	0	0	0
93	1	646	1	1	3	0.0500	0.2290	0	1	0.459	89	82	82
93	1	647	1	2	3	0.0500	0.2290	0	1	0.463	89	82	82
93	1	648	1	2	2	0.0500	0.2290	1	0	0.304	0	0	82
93	1	649	0	1	3	0.0500	0.2290	0	0	0.410	0	0	0
93	1	650	1	2	2	0.0500	0.2290	0	1	0.481	87	82	82
93	1	651	1	1	1	0.0500	0.2290	0	1	0.431	92	82	82
93	1	652	0	2	3	0.0500	0.2290	0	1	0.447	9	0	0
93	1	653	1	1	3	0.0500	0.2290	1	0	0.379	0	82	0
93	1	654	0	2	1	0.0500	0.2290	0	0	0.348	0	0	0
93	1	655	9	1	3	0.0500	0.2290	0	1	0.331	0	0	0
93	1	656	0	1	1	0.0500	0.2290	0	1	0.310	10	0	0
93	1	657	1	2	3	0.0500	0.2290	1	0	0.420	0	0	82
93	1	658	1	1	1	0.0500	0.2290	1	0	0.461	0	82	0
93	1	659	1	2	3	0.0500	0.2290	1	1	0.342	100	0	82
93	1	660	0	1	3	0.0500	0.2290	0	1	0.332	10	0	0
93	1	661	1	1	2	0.0500	0.2290	1	0	0.399	0	82	0
93	1	662	0	2	2	0.0500	0.2290	0	1	0.260	10	0	0
93	1	663	0	2	2	0.0500	0.2290	0	1	0.309	10	0	0
93	1	664	1	1	1	0.0500	0.2290	1	0	0.423	0	82	0
93	1	665	1	2	3	0.0500	0.2290	0	1	0.567	78	82	82
93	1	666	0	2	3	0.0500	0.2290	1	1	0.546	8	82	0
93	1	667	9	2	1	0.0500	0.2290	0	1	0.270	0	0	0
93	1	668	0	1	3	0.0500	0.2290	1	0	0.325	0	0	82
93	1	669	1	1	1	0.0500	0.2290	1	1	0.341	100	82	0
93	1	670	0	2	2	0.0500	0.2290	0	1	0.393	10	0	0
93	1	671	0	2	1	0.0500	0.2290	0	1	0.316	10	0	0
93	1	672	0	1	3	0.0500	0.2290	0	1	0.318	10	0	0
93	1	673	0	2	3	0.0500	0.2290	1	0	0.294	0	82	0
93	1	674	1	1	3	0.0500	0.2290	1	1	0.358	99	82	0
93	1	675	1	1	3	0.0500	0.2290	0	1	0.382	97	82	82
93	1	676	0	2	3	0.0500	0.2290	1	1	0.329	10	82	0
93	1	677	0	2	2	0.0500	0.2290	0	1	0.281	10	0	0
93	1	678	1	1	3	0.0500	0.2290	1	1	0.383	97	82	0
93	1	679	1	1	1	0.0500	0.2290	1	0	0.314	0	82	0
93	1	680	0	2	3	0.0500	0.2290	0	1	0.540	8	0	0
93	1	681	0	2	3	0.0500	0.2290	0	1	0.235	10	0	0
93	1	682	1	1	1	0.0500	0.2290	0	0	0.316	0	82	82
93	1	683	1	1	1	0.0500	0.2290	0	1	0.305	100	82	82
93	1	684	0	1	1	0.0500	0.2290	0	1	0.406	9	0	0
93	1	685	1	1	1	0.0500	0.2290	1	0	0.398	0	82	0
93	1	686	0	2	2	0.0500	0.2290	0	1	0.362	10	0	0
93	1	687	1	1	1	0.0500	0.2290	1	0	0.548	0	82	0
93	1	688	1	2	2	0.0500	0.2290	1	1	0.470	88	0	82
93	1	689	9	2	2	0.0500	0.2290	0	1	0.386	0	0	0
93	1	690	0	1	1	0.0500	0.2290	0	1	0.427	9	0	0
93	1	691	1	2	3	0.0500	0.2290	0	0	0.421	0	82	82
93	1	692	0	1	3	0.0500	0.2290	0	1	0.387	10	0	0
93	1	693	9	1	1	0.0500	0.2290	1	1	0.651	0	0	82
93	1	694	1	1	1	0.0500	0.2290	1	0	0.371	0	82	0
93	1	695	0	2	3	0.0500	0.2290	0	0	0.715	0	0	0
93	1	696	0	2	1	0.0500	0.2290	1	1	0.398	10	82	0
93	1	697	1	1	1	0.0500	0.2290	0	1	0.347	100	82	82
93	1	698	1	1	3	0.0500	0.2290	0	1	0.496	85	82	82
93	1	699	0	1	3	0.0500	0.2290	1	1	0.491	9	0	82
93	1	700	9	1	1	0.0500	0.2290	1	0	0.234	0	0	82
93	1	701	9	1	1	0.0500	0.2290	0	0	0.323	0	82	82
93	1	702	9	1	3	0.0500	0.2290	1	0	0.312	0	0	82
93	1	703	1	1	3	0.0500	0.2290	1	1	0.106	100	82	0
93	1	704	0	2	2	0.0500	0.2290	0	0	0.385	0	0	0
93	1	705	0	2	1	0.0500	0.2290	0	1	0.322	10	0	0
93	1	706	1	2	2	0.0500	0.2290	0	0	0.303	0	82	82
93	1	707	0	2	2	0.0500	0.2290	0	1	0.281	10	0	0
93	1	708	0	2	3	0.0500	0.2290	0	1	0.313	10	0	0
93	1	709	1	1	1	0.0500	0.2290	0	1	0.251	100	82	82
93	1	710	0	1	3	0.0500	0.2290	1	0	0.414	0	0	82
93	1	711	0	2	1	0.0500	0.2290	0	0	0.413	0	0	0
93	1	712	0	1	1	0.0500	0.2290	1	0	0.097	0	0	82
93	1	713	0	2	3	0.0500	0.2290	0	0	0.408	0	0	0
93	1	714	0	2	2	0.0500	0.2290	1	0	0.281	0	82	0
93	1	715	1	2	3	0.0500	0.2290	0	0	0.541	0	82	82
93	1	716	0	2	3	0.0500	0.2290	1	1	0.598	8	82	0
93	1	717	1	1	1	0.0500	0.2290	1	0	0.394	0	82	0
93	1	718	1	2	2	0.0500	0.2290	1	0	0.330	0	0	82
93	1	719	0	1	3	0.0500	0.2290	1	1	0.164	10	0	82
93	1	720	1	1	1	0.0500	0.2290	0	0	0.413	0	82	82
