sub	sess	t	rew	loc	cue	co1	co2	or	resp	rt	rew_tot	left_col	right_col
64	1	1	0	1	2	0.8265	0.6660	0	0	2.826	0	82	82
64	1	2	0	2	1	0.8265	0.6660	1	1	2.168	5	0	82
64	1	3	0	2	3	0.8265	0.6660	0	1	1.798	5	82	82
64	1	4	9	1	1	0.8265	0.6660	0	1	1.870	0	82	82
64	1	5	0	1	1	0.8265	0.6660	0	0	2.098	0	82	82
64	1	6	0	1	1	0.8265	0.6660	1	1	1.577	5	82	0
64	1	7	0	1	1	0.8265	0.6660	0	1	1.825	5	82	82
64	1	8	9	2	3	0.8265	0.6660	0	1	1.198	0	0	0
64	1	9	1	2	2	0.8265	0.6660	0	1	1.558	50	0	0
64	1	10	0	2	2	0.8265	0.6660	1	0	3.446	0	0	82
64	1	11	1	1	1	0.8265	0.6660	1	0	1.134	0	0	82
64	1	12	0	1	2	0.8265	0.6660	1	1	1.239	5	82	0
64	1	13	1	1	2	0.8265	0.6660	0	1	1.077	50	0	0
64	1	14	1	2	3	0.8265	0.6660	1	1	1.576	50	82	0
64	1	15	9	2	1	0.8265	0.6660	1	1	1.168	0	82	0
64	1	16	0	2	2	0.8265	0.6660	0	0	4.714	0	82	82
64	1	17	0	1	3	0.8265	0.6660	0	1	1.047	5	82	82
64	1	18	9	2	3	0.8265	0.6660	0	1	1.924	0	82	82
64	1	19	9	1	1	0.8265	0.6660	0	1	1.316	0	0	0
64	1	20	0	1	3	0.8265	0.6660	0	0	4.319	0	82	82
64	1	21	9	2	2	0.8265	0.6660	0	0	1.987	0	82	82
64	1	22	0	1	1	0.8265	0.6660	0	1	3.249	5	82	82
64	1	23	1	2	2	0.8265	0.6660	1	1	1.927	50	82	0
64	1	24	1	1	3	0.8265	0.6660	0	1	1.076	50	0	0
64	1	25	0	1	1	0.8265	0.6660	1	1	1.350	5	82	0
64	1	26	0	2	2	0.8265	0.6660	1	1	1.313	5	0	82
64	1	27	1	1	1	0.8265	0.6660	0	0	1.217	0	0	0
64	1	28	0	1	3	0.8265	0.6660	1	1	2.476	5	82	0
64	1	29	1	2	3	0.8265	0.6660	1	1	4.213	50	82	0
64	1	30	1	1	1	0.8265	0.6660	0	0	1.164	0	0	0
64	1	31	0	1	3	0.8265	0.6660	0	0	1.287	0	82	82
64	1	32	0	1	3	0.8265	0.6660	0	0	1.580	0	82	82
64	1	33	1	2	2	0.8265	0.6660	1	0	0.679	0	82	0
64	1	34	1	1	3	0.8265	0.6660	1	1	1.256	50	0	82
64	1	35	0	1	1	0.8265	0.6660	1	1	0.992	5	82	0
64	1	36	1	2	3	0.8265	0.6660	0	1	2.125	50	0	0
64	1	37	1	1	1	0.8265	0.6660	1	1	1.420	50	0	82
64	1	38	1	1	3	0.8265	0.6660	0	0	1.201	0	0	0
64	1	39	1	1	1	0.8265	0.6660	0	1	1.611	50	0	0
64	1	40	9	2	1	0.8265	0.6660	1	1	2.626	0	0	82
64	1	41	9	1	1	0.8265	0.6660	1	1	1.727	0	0	82
64	1	42	1	1	2	0.8265	0.6660	0	0	1.286	0	0	0
64	1	43	1	1	1	0.8265	0.6660	1	0	2.711	0	0	82
64	1	44	1	2	2	0.8265	0.6660	1	1	3.764	50	82	0
64	1	45	0	2	2	0.8265	0.6660	1	1	2.270	5	0	82
64	1	46	0	1	3	0.8265	0.6660	0	1	4.912	5	82	82
64	1	47	0	2	1	0.8265	0.6660	1	0	3.653	0	0	82
64	1	48	9	1	1	0.8265	0.6660	1	1	1.333	0	0	82
64	1	49	9	1	1	0.8265	0.6660	1	1	3.164	0	82	0
64	1	50	9	2	3	0.8265	0.6660	1	0	2.319	0	0	82
64	1	51	0	1	3	0.8265	0.6660	1	1	2.720	5	82	0
64	1	52	1	1	3	0.8265	0.6660	1	1	1.867	50	0	82
64	1	53	9	1	1	0.8265	0.6660	1	1	0.818	0	0	82
64	1	54	1	1	3	0.8265	0.6660	0	0	3.247	0	0	0
64	1	55	0	2	2	0.8265	0.6660	0	1	1.878	5	82	82
64	1	56	0	1	1	0.8265	0.6660	1	1	3.211	5	82	0
64	1	57	1	2	2	0.8265	0.6660	1	0	1.780	0	82	0
64	1	58	0	2	3	0.8265	0.6660	0	1	1.883	5	82	82
64	1	59	0	1	1	0.8265	0.6660	1	1	1.672	5	82	0
64	1	60	0	2	1	0.8265	0.6660	0	1	1.736	5	82	82
64	1	61	9	1	1	0.8265	0.6660	1	1	2.543	0	82	0
64	1	62	1	2	2	0.8265	0.6660	1	0	1.579	0	82	0
64	1	63	9	2	2	0.8265	0.6660	1	1	3.105	0	82	0
64	1	64	0	1	3	0.8265	0.6660	0	0	5.536	0	82	82
64	1	65	1	2	2	0.8265	0.6660	0	1	1.192	50	0	0
64	1	66	1	2	1	0.8265	0.6660	1	1	3.036	50	82	0
64	1	67	9	1	3	0.8265	0.6660	1	1	1.741	0	82	0
64	1	68	1	2	3	0.8265	0.6660	0	1	0.848	50	0	0
64	1	69	1	1	3	0.8265	0.6660	0	0	1.264	0	0	0
64	1	70	1	1	1	0.8265	0.6660	0	1	1.183	50	0	0
64	1	71	1	2	1	0.8265	0.6660	1	1	1.545	50	82	0
64	1	72	1	2	2	0.8265	0.6660	1	1	1.343	50	82	0
64	1	73	9	1	3	0.8265	0.6660	1	1	1.493	0	0	82
64	1	74	0	1	1	0.8265	0.6660	0	1	2.633	5	82	82
64	1	75	9	2	2	0.8265	0.6660	1	0	3.467	0	0	82
64	1	76	0	1	2	0.8265	0.6660	0	1	1.493	5	82	82
64	1	77	0	2	3	0.8265	0.6660	0	1	1.732	5	82	82
64	1	78	0	2	2	0.8265	0.6660	1	1	1.280	5	0	82
64	1	79	0	2	2	0.8265	0.6660	1	0	2.085	0	0	82
64	1	80	0	2	3	0.8265	0.6660	1	1	1.108	5	0	82
64	1	81	0	1	1	0.8265	0.6660	0	1	1.154	5	82	82
64	1	82	9	2	2	0.8265	0.6660	1	1	1.018	0	82	0
64	1	83	0	2	3	0.8265	0.6660	0	0	4.337	0	82	82
64	1	84	9	1	2	0.8265	0.6660	1	0	2.805	0	82	0
64	1	85	1	1	3	0.8265	0.6660	1	1	1.773	50	0	82
64	1	86	1	2	2	0.8265	0.6660	0	1	1.907	50	0	0
64	1	87	1	2	1	0.8265	0.6660	0	1	1.370	50	0	0
64	1	88	0	2	3	0.8265	0.6660	1	1	4.031	5	0	82
64	1	89	9	1	3	0.8265	0.6660	1	1	4.071	0	0	82
64	1	90	9	1	3	0.8265	0.6660	0	1	1.888	0	82	82
64	1	91	9	2	3	0.8265	0.6660	1	1	3.929	0	0	82
64	1	92	9	2	3	0.8265	0.6660	1	0	2.242	0	0	82
64	1	93	0	1	3	0.8265	0.6660	0	1	1.960	5	82	82
64	1	94	0	2	2	0.8265	0.6660	0	1	1.755	5	82	82
64	1	95	0	1	3	0.8265	0.6660	1	0	2.765	0	82	0
64	1	96	1	1	1	0.8265	0.6660	1	1	1.567	50	0	82
64	1	97	0	2	3	0.8265	0.6660	1	1	3.140	5	0	82
64	1	98	0	2	3	0.8265	0.6660	0	1	2.285	5	82	82
64	1	99	1	1	2	0.8265	0.6660	1	1	1.262	50	0	82
64	1	100	1	1	1	0.8265	0.6660	0	1	2.340	50	0	0
64	1	101	0	2	1	0.8265	0.6660	0	1	1.913	5	82	82
64	1	102	1	2	3	0.8265	0.6660	1	1	1.495	50	82	0
64	1	103	1	1	3	0.8265	0.6660	0	1	0.979	50	0	0
64	1	104	0	1	1	0.8265	0.6660	1	1	1.345	5	82	0
64	1	105	0	2	3	0.8265	0.6660	0	1	1.538	5	82	82
64	1	106	1	2	2	0.8265	0.6660	1	1	0.943	50	82	0
64	1	107	1	2	3	0.8265	0.6660	0	1	1.561	50	0	0
64	1	108	0	1	1	0.8265	0.6660	1	0	3.113	0	82	0
64	1	109	1	1	3	0.8265	0.6660	1	1	1.255	50	0	82
64	1	110	1	1	3	0.8265	0.6660	0	0	2.321	0	0	0
64	1	111	0	2	2	0.8265	0.6660	1	1	4.146	5	0	82
64	1	112	9	1	3	0.8265	0.6660	0	1	1.039	0	0	0
64	1	113	1	1	2	0.8265	0.6660	1	1	1.100	50	0	82
64	1	114	0	1	1	0.8265	0.6660	1	1	1.195	5	82	0
64	1	115	9	1	2	0.8265	0.6660	0	1	1.136	0	82	82
64	1	116	1	1	3	0.8265	0.6660	1	1	1.032	50	0	82
64	1	117	1	2	1	0.8265	0.6660	1	1	1.253	50	82	0
64	1	118	1	2	2	0.8265	0.6660	0	1	1.747	50	0	0
64	1	119	1	2	2	0.8265	0.6660	0	1	1.043	50	0	0
64	1	120	1	1	3	0.8265	0.6660	0	0	2.223	0	0	0
64	1	121	1	2	2	0.8265	0.6660	0	1	1.729	50	0	0
64	1	122	1	1	1	0.8265	0.6660	0	1	3.154	50	0	0
64	1	123	1	2	3	0.8265	0.6660	1	1	2.368	50	82	0
64	1	124	0	1	3	0.8265	0.6660	1	0	2.867	0	82	0
64	1	125	9	2	2	0.8265	0.6660	0	1	2.120	0	82	82
64	1	126	1	2	2	0.8265	0.6660	1	1	2.830	50	82	0
64	1	127	1	1	3	0.8265	0.6660	0	1	1.059	50	0	0
64	1	128	9	2	3	0.8265	0.6660	0	1	2.752	0	82	82
64	1	129	1	1	1	0.8265	0.6660	0	1	1.614	50	0	0
64	1	130	1	2	1	0.8265	0.6660	0	1	1.507	50	0	0
64	1	131	0	1	1	0.8265	0.6660	0	1	1.151	5	82	82
64	1	132	1	2	3	0.8265	0.6660	1	1	0.992	50	82	0
64	1	133	1	1	1	0.8265	0.6660	0	1	1.238	50	0	0
64	1	134	9	2	3	0.8265	0.6660	0	1	1.738	0	0	0
64	1	135	9	2	1	0.8265	0.6660	0	1	1.451	0	82	82
64	1	136	0	1	3	0.8265	0.6660	1	0	1.440	0	82	0
64	1	137	0	1	1	0.8265	0.6660	0	0	2.723	0	82	82
64	1	138	0	2	2	0.8265	0.6660	1	1	4.504	5	0	82
64	1	139	0	2	2	0.8265	0.6660	0	1	1.588	5	82	82
64	1	140	1	2	2	0.8265	0.6660	0	1	1.514	50	0	0
64	1	141	1	2	2	0.8265	0.6660	1	0	1.346	0	82	0
64	1	142	0	2	1	0.8265	0.6660	1	0	1.916	0	0	82
64	1	143	0	1	3	0.8265	0.6660	0	0	3.862	0	82	82
64	1	144	0	1	3	0.8265	0.6660	1	1	3.122	5	82	0
64	1	145	0	1	3	0.8265	0.6660	0	1	1.435	5	82	82
64	1	146	1	2	3	0.8265	0.6660	0	1	3.031	50	0	0
64	1	147	0	2	3	0.8265	0.6660	1	1	3.410	5	0	82
64	1	148	0	2	3	0.8265	0.6660	1	1	2.646	5	0	82
64	1	149	1	2	3	0.8265	0.6660	0	0	1.269	0	0	0
64	1	150	0	2	3	0.8265	0.6660	1	1	1.793	5	0	82
64	1	151	1	1	3	0.8265	0.6660	0	1	0.942	50	0	0
64	1	152	0	1	1	0.8265	0.6660	1	1	1.445	5	82	0
64	1	153	9	1	1	0.8265	0.6660	1	1	1.818	0	82	0
64	1	154	0	2	3	0.8265	0.6660	0	1	2.360	5	82	82
64	1	155	9	2	3	0.8265	0.6660	1	1	1.225	0	82	0
64	1	156	9	2	2	0.8265	0.6660	1	1	2.892	0	82	0
64	1	157	0	2	2	0.8265	0.6660	1	1	2.001	5	0	82
64	1	158	1	1	1	0.8265	0.6660	1	1	3.012	50	0	82
64	1	159	1	2	3	0.8265	0.6660	1	1	1.969	50	82	0
64	1	160	0	1	1	0.8265	0.6660	0	1	1.280	5	82	82
64	1	161	0	2	2	0.8265	0.6660	0	1	1.788	5	82	82
64	1	162	1	2	3	0.8265	0.6660	1	1	1.097	50	82	0
64	1	163	1	2	3	0.8265	0.6660	1	1	1.562	50	82	0
64	1	164	9	1	1	0.8265	0.6660	1	1	1.431	0	0	82
64	1	165	0	1	2	0.8265	0.6660	1	1	2.207	5	82	0
64	1	166	1	1	3	0.8265	0.6660	1	1	1.161	50	0	82
64	1	167	9	1	3	0.8265	0.6660	0	1	1.305	0	82	82
64	1	168	1	2	3	0.8265	0.6660	1	1	2.002	50	82	0
64	1	169	0	2	2	0.8265	0.6660	1	1	1.260	5	0	82
64	1	170	9	2	2	0.8265	0.6660	0	1	3.065	0	82	82
64	1	171	0	2	2	0.8265	0.6660	1	0	2.539	0	0	82
64	1	172	1	2	2	0.8265	0.6660	0	1	1.705	50	0	0
64	1	173	9	2	2	0.8265	0.6660	0	1	2.472	0	82	82
64	1	174	1	1	1	0.8265	0.6660	1	1	1.832	50	0	82
64	1	175	1	1	2	0.8265	0.6660	0	1	1.140	50	0	0
64	1	176	0	1	3	0.8265	0.6660	1	1	2.411	5	82	0
64	1	177	1	1	1	0.8265	0.6660	1	1	1.048	50	0	82
64	1	178	1	2	2	0.8265	0.6660	0	1	1.806	50	0	0
64	1	179	1	1	3	0.8265	0.6660	1	1	1.260	50	0	82
64	1	180	1	1	3	0.8265	0.6660	1	1	0.911	50	0	82
64	1	181	9	1	1	0.8265	0.6660	1	1	1.867	0	82	0
64	1	182	0	2	3	0.8265	0.6660	1	0	2.874	0	0	82
64	1	183	1	1	1	0.8265	0.6660	1	1	1.050	50	0	82
64	1	184	0	1	1	0.8265	0.6660	1	1	1.301	5	82	0
64	1	185	1	2	2	0.8265	0.6660	1	1	2.946	50	82	0
64	1	186	0	1	3	0.8265	0.6660	0	1	3.834	5	82	82
64	1	187	1	1	1	0.8265	0.6660	0	1	0.955	50	0	0
64	1	188	9	1	3	0.8265	0.6660	1	1	5.237	0	82	0
64	1	189	1	2	3	0.8265	0.6660	1	1	1.434	50	82	0
64	1	190	0	2	3	0.8265	0.6660	1	1	2.365	5	0	82
64	1	191	0	2	3	0.8265	0.6660	0	1	3.107	5	82	82
64	1	192	1	2	3	0.8265	0.6660	0	1	1.705	50	0	0
64	1	193	9	1	1	0.8265	0.6660	0	1	2.027	0	0	0
64	1	194	9	1	1	0.8265	0.6660	0	1	1.857	0	0	0
64	1	195	0	1	3	0.8265	0.6660	1	1	2.470	5	82	0
64	1	196	1	1	1	0.8265	0.6660	0	1	1.344	50	0	0
64	1	197	1	2	3	0.8265	0.6660	0	1	1.521	50	0	0
64	1	198	0	1	3	0.8265	0.6660	1	0	1.375	0	82	0
64	1	199	0	2	2	0.8265	0.6660	0	0	3.723	0	82	82
64	1	200	1	1	1	0.8265	0.6660	0	1	1.132	50	0	0
64	1	201	0	1	2	0.8265	0.6660	1	1	2.064	5	82	0
64	1	202	0	2	2	0.8265	0.6660	0	1	1.597	5	82	82
64	1	203	1	1	3	0.8265	0.6660	1	1	1.241	50	0	82
64	1	204	1	1	3	0.8265	0.6660	0	1	2.000	50	0	0
64	1	205	0	1	3	0.8265	0.6660	0	1	3.804	5	82	82
64	1	206	9	2	3	0.8265	0.6660	0	1	1.320	0	0	0
64	1	207	1	1	3	0.8265	0.6660	0	1	1.291	50	0	0
64	1	208	0	1	1	0.8265	0.6660	1	1	1.306	5	82	0
64	1	209	0	2	2	0.8265	0.6660	0	1	1.735	5	82	82
64	1	210	1	2	3	0.8265	0.6660	0	1	1.337	50	0	0
64	1	211	1	2	3	0.8265	0.6660	0	1	2.048	50	0	0
64	1	212	1	2	3	0.8265	0.6660	1	1	1.192	50	82	0
64	1	213	9	1	3	0.8265	0.6660	0	1	0.951	0	0	0
64	1	214	0	1	1	0.8265	0.6660	0	1	1.134	5	82	82
64	1	215	1	1	1	0.8265	0.6660	1	1	1.139	50	0	82
64	1	216	9	2	3	0.8265	0.6660	0	1	1.909	0	82	82
64	1	217	1	1	3	0.8265	0.6660	0	1	2.006	50	0	0
64	1	218	0	2	3	0.8265	0.6660	1	1	3.308	5	0	82
64	1	219	0	2	3	0.8265	0.6660	1	1	1.884	5	0	82
64	1	220	1	1	1	0.8265	0.6660	1	1	1.324	50	0	82
64	1	221	0	2	2	0.8265	0.6660	0	0	2.887	0	82	82
64	1	222	1	1	3	0.8265	0.6660	1	1	1.266	50	0	82
64	1	223	1	2	2	0.8265	0.6660	0	0	1.742	0	0	0
64	1	224	9	1	3	0.8265	0.6660	1	1	1.422	0	82	0
64	1	225	9	2	2	0.8265	0.6660	0	0	1.122	0	0	0
64	1	226	0	2	2	0.8265	0.6660	0	0	2.775	0	82	82
64	1	227	0	1	3	0.8265	0.6660	1	1	2.485	5	82	0
64	1	228	0	1	3	0.8265	0.6660	0	1	2.403	5	82	82
64	1	229	0	2	3	0.8265	0.6660	1	1	5.148	5	0	82
64	1	230	0	1	2	0.8265	0.6660	0	1	1.271	5	82	82
64	1	231	0	1	1	0.8265	0.6660	0	1	0.968	5	82	82
64	1	232	9	2	3	0.8265	0.6660	0	1	1.609	0	0	0
64	1	233	9	2	2	0.8265	0.6660	1	1	2.479	0	0	82
64	1	234	0	2	3	0.8265	0.6660	1	0	5.017	0	0	82
64	1	235	9	1	1	0.8265	0.6660	0	1	2.689	0	82	82
64	1	236	1	1	2	0.8265	0.6660	1	1	1.292	50	0	82
64	1	237	9	1	1	0.8265	0.6660	0	1	1.626	0	82	82
64	1	238	1	2	2	0.8265	0.6660	1	1	1.237	50	82	0
64	1	239	9	2	3	0.8265	0.6660	1	1	1.018	0	82	0
64	1	240	9	1	3	0.8265	0.6660	1	1	2.019	0	82	0
64	1	241	9	2	2	0.8265	0.6660	0	1	1.728	0	0	0
64	1	242	1	1	1	0.8265	0.6660	1	1	1.299	50	0	82
64	1	243	1	2	3	0.8265	0.6660	0	1	1.108	50	0	0
64	1	244	1	1	3	0.8265	0.6660	1	1	1.121	50	0	82
64	1	245	0	2	3	0.8265	0.6660	1	1	2.956	5	0	82
64	1	246	1	1	3	0.8265	0.6660	0	1	1.075	50	0	0
64	1	247	1	1	1	0.8265	0.6660	0	1	0.854	50	0	0
64	1	248	0	1	1	0.8265	0.6660	1	1	2.613	5	82	0
64	1	249	1	2	3	0.8265	0.6660	1	1	1.787	50	82	0
64	1	250	9	2	2	0.8265	0.6660	0	1	1.450	0	0	0
64	1	251	0	2	3	0.8265	0.6660	0	0	2.240	0	82	82
64	1	252	0	2	3	0.8265	0.6660	0	0	2.133	0	82	82
64	1	253	9	1	3	0.8265	0.6660	1	1	2.034	0	0	82
64	1	254	1	2	3	0.8265	0.6660	1	0	3.926	0	82	0
64	1	255	1	2	2	0.8265	0.6660	1	1	4.710	50	82	0
64	1	256	0	1	1	0.8265	0.6660	0	0	5.952	0	82	82
64	1	257	1	1	3	0.8265	0.6660	0	1	1.649	50	0	0
64	1	258	1	1	3	0.8265	0.6660	1	1	1.730	50	0	82
64	1	259	0	1	1	0.8265	0.6660	0	1	1.584	5	82	82
64	1	260	9	2	2	0.8265	0.6660	1	0	3.025	0	0	82
64	1	261	1	2	3	0.8265	0.6660	0	1	2.297	50	0	0
64	1	262	0	2	2	0.8265	0.6660	1	1	2.492	5	0	82
64	1	263	0	1	3	0.8265	0.6660	1	1	2.261	5	82	0
64	1	264	9	2	3	0.8265	0.6660	1	1	1.376	0	82	0
64	1	265	0	2	2	0.8265	0.6660	1	1	2.356	5	0	82
64	1	266	1	2	3	0.8265	0.6660	0	1	1.767	50	0	0
64	1	267	1	1	3	0.8265	0.6660	1	1	1.476	50	0	82
64	1	268	1	1	1	0.8265	0.6660	1	1	1.032	50	0	82
64	1	269	0	2	2	0.8265	0.6660	0	1	1.109	5	82	82
64	1	270	1	2	3	0.8265	0.6660	1	1	2.685	50	82	0
64	1	271	0	1	2	0.8265	0.6660	0	1	4.286	5	82	82
64	1	272	1	1	3	0.8265	0.6660	0	1	5.089	50	0	0
64	1	273	1	2	2	0.8265	0.6660	0	1	1.275	50	0	0
64	1	274	0	2	3	0.8265	0.6660	0	0	1.868	0	82	82
64	1	275	1	2	2	0.8265	0.6660	1	1	1.780	50	82	0
64	1	276	1	2	2	0.8265	0.6660	0	1	1.195	50	0	0
64	1	277	9	1	2	0.8265	0.6660	1	1	1.546	0	0	82
64	1	278	0	2	3	0.8265	0.6660	1	1	1.375	5	0	82
64	1	279	1	1	3	0.8265	0.6660	1	1	1.377	50	0	82
64	1	280	1	2	2	0.8265	0.6660	0	1	0.898	50	0	0
64	1	281	0	1	1	0.8265	0.6660	0	1	3.737	5	82	82
64	1	282	1	1	3	0.8265	0.6660	1	1	1.137	50	0	82
64	1	283	1	1	1	0.8265	0.6660	0	1	1.372	50	0	0
64	1	284	0	2	2	0.8265	0.6660	0	1	1.693	5	82	82
64	1	285	0	2	3	0.8265	0.6660	1	0	1.955	0	0	82
64	1	286	9	1	3	0.8265	0.6660	0	1	1.026	0	0	0
64	1	287	1	1	1	0.8265	0.6660	1	1	2.248	50	0	82
64	1	288	9	2	2	0.8265	0.6660	0	1	1.563	0	0	0
64	1	289	1	2	2	0.8265	0.6660	0	1	2.482	50	0	0
64	1	290	1	2	3	0.8265	0.6660	1	1	1.124	50	82	0
64	1	291	0	1	3	0.8265	0.6660	0	1	1.688	5	82	82
64	1	292	1	1	1	0.8265	0.6660	0	1	0.974	50	0	0
64	1	293	0	1	1	0.8265	0.6660	0	1	0.786	6	82	82
64	1	294	0	2	2	0.8265	0.6660	1	1	1.127	5	0	82
64	1	295	0	2	1	0.8265	0.6660	1	1	0.707	6	0	82
64	1	296	9	2	3	0.8265	0.6660	1	1	0.705	0	82	0
64	1	297	9	2	3	0.8265	0.6660	0	0	2.421	0	82	82
64	1	298	0	2	2	0.8265	0.6660	0	1	2.187	5	82	82
64	1	299	0	2	2	0.8265	0.6660	1	0	2.570	0	0	82
64	1	300	0	1	1	0.8265	0.6660	1	1	1.336	5	82	0
64	1	301	1	1	2	0.8265	0.6660	1	1	2.123	50	0	82
64	1	302	0	1	3	0.8265	0.6660	0	1	1.041	5	82	82
64	1	303	0	2	3	0.8265	0.6660	0	1	1.563	5	82	82
64	1	304	1	2	3	0.8265	0.6660	1	1	1.752	50	82	0
64	1	305	0	2	3	0.8265	0.6660	1	0	1.609	0	0	82
64	1	306	1	2	2	0.8265	0.6660	0	1	1.957	50	0	0
64	1	307	1	2	2	0.8265	0.6660	1	1	1.170	50	82	0
64	1	308	0	1	1	0.8265	0.6660	0	1	1.050	5	82	82
64	1	309	0	2	2	0.8265	0.6660	0	1	1.670	5	82	82
64	1	310	1	1	3	0.8265	0.6660	1	1	1.450	50	0	82
64	1	311	9	1	1	0.8265	0.6660	0	1	1.756	0	82	82
64	1	312	1	2	1	0.8265	0.6660	1	1	1.238	50	82	0
64	1	313	1	2	3	0.8265	0.6660	0	1	1.743	50	0	0
64	1	314	0	2	3	0.8265	0.6660	0	1	3.178	5	82	82
64	1	315	0	1	3	0.8265	0.6660	1	1	1.009	5	82	0
64	1	316	0	1	3	0.8265	0.6660	1	1	1.149	5	82	0
64	1	317	1	1	1	0.8265	0.6660	1	1	0.868	50	0	82
64	1	318	1	2	2	0.8265	0.6660	0	1	2.066	50	0	0
64	1	319	9	2	1	0.8265	0.6660	0	1	1.373	0	0	0
64	1	320	0	2	3	0.8265	0.6660	0	1	2.192	5	82	82
64	1	321	1	2	2	0.8265	0.6660	1	0	2.553	0	82	0
64	1	322	1	1	1	0.8265	0.6660	0	1	1.460	50	0	0
64	1	323	1	1	1	0.8265	0.6660	0	1	1.114	50	0	0
64	1	324	9	1	3	0.8265	0.6660	0	1	0.847	0	0	0
64	1	325	1	1	3	0.8265	0.6660	0	1	0.863	50	0	0
64	1	326	0	1	2	0.8265	0.6660	1	1	1.562	5	82	0
64	1	327	0	2	1	0.8265	0.6660	0	1	3.375	5	82	82
64	1	328	9	1	3	0.8265	0.6660	0	1	2.334	0	82	82
64	1	329	9	2	3	0.8265	0.6660	1	1	1.948	0	0	82
64	1	330	0	2	3	0.8265	0.6660	0	1	1.495	5	82	82
64	1	331	1	2	3	0.8265	0.6660	0	1	1.089	50	0	0
64	1	332	0	2	1	0.8265	0.6660	0	1	1.359	5	82	82
64	1	333	1	1	1	0.8265	0.6660	1	1	0.930	50	0	82
64	1	334	1	1	2	0.8265	0.6660	0	1	1.685	50	0	0
64	1	335	0	1	3	0.8265	0.6660	0	1	0.860	5	82	82
64	1	336	1	2	2	0.8265	0.6660	1	1	0.982	50	82	0
64	1	337	0	1	1	0.8265	0.6660	1	1	3.714	5	82	0
64	1	338	0	2	2	0.8265	0.6660	1	0	1.804	0	0	82
64	1	339	0	1	3	0.8265	0.6660	1	1	1.107	5	82	0
64	1	340	9	1	3	0.8265	0.6660	1	1	0.953	0	0	82
64	1	341	0	1	1	0.8265	0.6660	1	1	1.125	5	82	0
64	1	342	9	1	3	0.8265	0.6660	0	1	1.216	0	82	82
64	1	343	0	2	3	0.8265	0.6660	0	1	2.796	5	82	82
64	1	344	0	1	1	0.8265	0.6660	1	1	0.979	5	82	0
64	1	345	0	1	1	0.8265	0.6660	0	1	1.662	5	82	82
64	1	346	9	1	2	0.8265	0.6660	0	1	1.042	0	0	0
64	1	347	1	2	1	0.8265	0.6660	0	1	1.474	50	0	0
64	1	348	0	1	3	0.8265	0.6660	1	1	1.130	5	82	0
64	1	349	0	2	2	0.8265	0.6660	1	0	1.787	0	0	82
64	1	350	1	2	1	0.8265	0.6660	0	1	1.102	50	0	0
64	1	351	1	2	3	0.8265	0.6660	0	1	1.104	50	0	0
64	1	352	0	2	2	0.8265	0.6660	0	1	1.883	5	82	82
64	1	353	9	2	2	0.8265	0.6660	1	1	1.289	0	82	0
64	1	354	1	2	3	0.8265	0.6660	0	0	2.438	0	0	0
64	1	355	0	2	2	0.8265	0.6660	0	1	1.463	5	82	82
64	1	356	0	1	3	0.8265	0.6660	0	1	1.483	5	82	82
64	1	357	9	2	2	0.8265	0.6660	1	1	0.909	0	0	82
64	1	358	0	1	3	0.8265	0.6660	1	1	2.210	5	82	0
64	1	359	1	1	1	0.8265	0.6660	1	1	1.735	50	0	82
64	1	360	9	1	1	0.8265	0.6660	0	1	1.671	0	0	0
64	1	361	1	1	1	0.8265	0.6660	1	1	1.206	50	0	82
64	1	362	1	2	2	0.8265	0.6660	1	1	2.165	50	82	0
64	1	363	9	2	2	0.8265	0.6660	1	1	1.090	0	82	0
64	1	364	0	1	3	0.8265	0.6660	0	1	1.223	5	82	82
64	1	365	1	1	1	0.8265	0.6660	0	1	0.757	59	0	0
64	1	366	0	2	2	0.8265	0.6660	1	1	0.902	5	0	82
64	1	367	9	2	3	0.8265	0.6660	0	0	1.323	0	82	82
64	1	368	0	2	3	0.8265	0.6660	1	1	1.577	5	0	82
64	1	369	1	2	3	0.8265	0.6660	1	1	1.108	50	82	0
64	1	370	9	2	3	0.8265	0.6660	1	1	0.861	0	82	0
64	1	371	0	1	3	0.8265	0.6660	1	0	0.990	0	82	0
64	1	372	1	2	2	0.8265	0.6660	0	1	1.623	50	0	0
64	1	373	0	2	2	0.8265	0.6660	1	1	2.068	5	0	82
64	1	374	0	2	3	0.8265	0.6660	1	0	2.474	0	0	82
64	1	375	9	2	2	0.8265	0.6660	1	1	1.403	0	0	82
64	1	376	0	2	2	0.8265	0.6660	0	1	1.960	5	82	82
64	1	377	1	1	3	0.8265	0.6660	0	1	1.016	50	0	0
64	1	378	1	1	3	0.8265	0.6660	1	1	1.067	50	0	82
64	1	379	1	1	1	0.8265	0.6660	0	1	1.515	50	0	0
64	1	380	9	1	1	0.8265	0.6660	0	1	1.116	0	82	82
64	1	381	9	1	2	0.8265	0.6660	0	1	0.981	0	0	0
64	1	382	1	1	1	0.8265	0.6660	1	1	0.940	50	0	82
64	1	383	0	2	3	0.8265	0.6660	0	1	1.570	5	82	82
64	1	384	0	2	3	0.8265	0.6660	1	0	3.108	0	0	82
64	1	385	1	1	1	0.8265	0.6660	1	1	1.039	50	0	82
64	1	386	1	1	1	0.8265	0.6660	1	1	0.967	50	0	82
64	1	387	1	1	3	0.8265	0.6660	1	1	0.781	57	0	82
64	1	388	0	1	1	0.8265	0.6660	1	1	0.860	5	82	0
64	1	389	1	1	1	0.8265	0.6660	0	1	1.300	50	0	0
64	1	390	1	1	1	0.8265	0.6660	0	1	0.997	50	0	0
64	1	391	1	2	1	0.8265	0.6660	1	1	1.142	50	82	0
64	1	392	1	1	3	0.8265	0.6660	1	1	0.907	50	0	82
64	1	393	1	2	3	0.8265	0.6660	0	1	1.175	50	0	0
64	1	394	9	1	1	0.8265	0.6660	1	1	0.847	0	0	82
64	1	395	1	2	1	0.8265	0.6660	0	1	1.446	50	0	0
64	1	396	0	1	1	0.8265	0.6660	1	1	1.049	5	82	0
64	1	397	0	2	2	0.8265	0.6660	1	1	1.295	5	0	82
64	1	398	0	1	2	0.8265	0.6660	1	1	1.075	5	82	0
64	1	399	1	2	2	0.8265	0.6660	1	1	1.320	50	82	0
64	1	400	1	1	2	0.8265	0.6660	1	1	1.009	50	0	82
64	1	401	0	1	1	0.8265	0.6660	0	1	1.880	5	82	82
64	1	402	0	2	2	0.8265	0.6660	1	1	1.048	5	0	82
64	1	403	0	2	2	0.8265	0.6660	0	1	1.225	5	82	82
64	1	404	0	2	3	0.8265	0.6660	1	0	1.469	0	0	82
64	1	405	1	1	1	0.8265	0.6660	0	1	1.104	50	0	0
64	1	406	0	1	1	0.8265	0.6660	1	0	3.437	0	82	0
64	1	407	0	1	2	0.8265	0.6660	0	1	1.504	5	82	82
64	1	408	0	2	3	0.8265	0.6660	1	0	1.818	0	0	82
64	1	409	0	2	1	0.8265	0.6660	0	0	2.647	0	82	82
64	1	410	1	1	3	0.8265	0.6660	0	1	0.882	50	0	0
64	1	411	0	1	1	0.8265	0.6660	1	1	1.740	5	82	0
64	1	412	1	2	2	0.8265	0.6660	1	1	1.242	50	82	0
64	1	413	1	1	3	0.8265	0.6660	1	1	1.098	50	0	82
64	1	414	0	2	3	0.8265	0.6660	0	0	2.620	0	82	82
64	1	415	0	2	3	0.8265	0.6660	0	1	1.738	5	82	82
64	1	416	1	2	3	0.8265	0.6660	1	1	1.669	50	82	0
64	1	417	1	2	2	0.8265	0.6660	0	1	1.512	50	0	0
64	1	418	9	1	1	0.8265	0.6660	0	1	1.101	0	82	82
64	1	419	1	1	1	0.8265	0.6660	1	1	1.534	50	0	82
64	1	420	9	1	1	0.8265	0.6660	1	1	1.096	0	0	82
64	1	421	9	1	3	0.8265	0.6660	1	1	2.049	0	82	0
64	1	422	9	2	2	0.8265	0.6660	1	0	1.860	0	0	82
64	1	423	1	2	2	0.8265	0.6660	1	1	1.080	50	82	0
64	1	424	0	1	1	0.8265	0.6660	0	1	1.641	5	82	82
64	1	425	9	2	2	0.8265	0.6660	0	1	1.354	0	0	0
64	1	426	0	1	1	0.8265	0.6660	0	1	1.695	5	82	82
64	1	427	9	1	1	0.8265	0.6660	1	1	1.071	0	82	0
64	1	428	1	1	2	0.8265	0.6660	0	1	0.926	50	0	0
64	1	429	9	1	3	0.8265	0.6660	1	1	1.066	0	0	82
64	1	430	9	2	1	0.8265	0.6660	0	1	1.438	0	82	82
64	1	431	1	1	1	0.8265	0.6660	1	1	1.259	50	0	82
64	1	432	1	2	3	0.8265	0.6660	0	1	1.523	50	0	0
64	1	433	1	2	2	0.8265	0.6660	1	1	1.544	50	82	0
64	1	434	0	2	3	0.8265	0.6660	1	0	1.618	0	0	82
64	1	435	9	1	1	0.8265	0.6660	0	1	1.137	0	0	0
64	1	436	1	2	3	0.8265	0.6660	1	1	2.088	50	82	0
64	1	437	0	2	3	0.8265	0.6660	1	1	2.052	5	0	82
64	1	438	0	2	3	0.8265	0.6660	1	1	1.198	5	0	82
64	1	439	0	2	2	0.8265	0.6660	0	0	0.980	0	82	82
64	1	440	1	2	1	0.8265	0.6660	0	1	1.460	50	0	0
64	1	441	9	2	1	0.8265	0.6660	1	1	1.762	0	0	82
64	1	442	1	2	3	0.8265	0.6660	1	1	1.773	50	82	0
64	1	443	1	1	1	0.8265	0.6660	1	1	1.098	50	0	82
64	1	444	0	2	2	0.8265	0.6660	0	0	1.711	0	82	82
64	1	445	0	1	1	0.8265	0.6660	0	0	4.455	0	82	82
64	1	446	0	1	3	0.8265	0.6660	0	1	2.853	5	82	82
64	1	447	0	2	2	0.8265	0.6660	1	0	2.602	0	0	82
64	1	448	1	1	1	0.8265	0.6660	1	1	1.358	50	0	82
64	1	449	1	2	2	0.8265	0.6660	0	0	1.474	0	0	0
64	1	450	1	2	2	0.8265	0.6660	1	0	1.848	0	82	0
64	1	451	9	1	3	0.8265	0.6660	1	0	3.440	0	0	82
64	1	452	9	2	3	0.8265	0.6660	1	1	1.418	0	82	0
64	1	453	1	1	1	0.8265	0.6660	1	1	2.431	50	0	82
64	1	454	9	2	2	0.8265	0.6660	0	1	1.255	0	0	0
64	1	455	9	1	3	0.8265	0.6660	0	1	2.800	0	0	0
64	1	456	1	2	2	0.8265	0.6660	1	1	1.727	50	82	0
64	1	457	0	1	1	0.8265	0.6660	1	0	1.939	0	82	0
64	1	458	9	1	1	0.8265	0.6660	0	1	2.332	0	0	0
64	1	459	1	1	2	0.8265	0.6660	1	1	1.382	50	0	82
64	1	460	1	1	1	0.8265	0.6660	1	1	1.180	50	0	82
64	1	461	1	1	3	0.8265	0.6660	0	1	2.255	50	0	0
64	1	462	0	2	3	0.8265	0.6660	0	0	1.875	0	82	82
64	1	463	1	2	2	0.8265	0.6660	1	1	1.819	50	82	0
64	1	464	0	2	2	0.8265	0.6660	1	0	1.631	0	0	82
64	1	465	0	2	3	0.8265	0.6660	1	1	1.483	5	0	82
64	1	466	0	1	3	0.8265	0.6660	1	1	2.974	5	82	0
64	1	467	0	1	3	0.8265	0.6660	0	1	1.254	5	82	82
64	1	468	1	1	3	0.8265	0.6660	0	1	1.155	50	0	0
64	1	469	0	2	2	0.8265	0.6660	1	1	1.674	5	0	82
64	1	470	9	2	3	0.8265	0.6660	1	1	1.178	0	0	82
64	1	471	1	2	2	0.8265	0.6660	0	1	1.688	50	0	0
64	1	472	0	1	3	0.8265	0.6660	1	0	3.277	0	82	0
64	1	473	1	1	1	0.8265	0.6660	0	1	1.156	50	0	0
64	1	474	1	2	3	0.8265	0.6660	1	0	1.790	0	82	0
64	1	475	0	1	1	0.8265	0.6660	1	1	3.000	5	82	0
64	1	476	1	2	3	0.8265	0.6660	0	1	1.559	50	0	0
64	1	477	1	2	2	0.8265	0.6660	0	1	1.003	50	0	0
64	1	478	9	1	3	0.8265	0.6660	1	0	2.812	0	82	0
64	1	479	1	1	3	0.8265	0.6660	0	1	3.163	50	0	0
64	1	480	9	2	3	0.8265	0.6660	1	0	2.319	0	0	82
64	1	481	0	1	3	0.8265	0.6660	0	1	1.095	5	82	82
64	1	482	1	1	1	0.8265	0.6660	0	1	1.393	50	0	0
64	1	483	1	2	3	0.8265	0.6660	1	1	1.221	50	82	0
64	1	484	1	2	2	0.8265	0.6660	0	0	1.216	0	0	0
64	1	485	0	1	3	0.8265	0.6660	0	1	2.210	5	82	82
64	1	486	0	1	1	0.8265	0.6660	1	0	1.514	0	82	0
64	1	487	0	2	3	0.8265	0.6660	0	0	1.185	0	82	82
64	1	488	0	1	3	0.8265	0.6660	0	1	1.033	5	82	82
64	1	489	0	2	2	0.8265	0.6660	1	0	0.962	0	0	82
64	1	490	0	2	2	0.8265	0.6660	0	0	1.101	0	82	82
64	1	491	0	1	3	0.8265	0.6660	0	1	0.036	10	82	82
64	1	492	0	2	1	0.8265	0.6660	1	1	1.049	5	0	82
64	1	493	9	1	1	0.8265	0.6660	1	1	0.978	0	82	0
64	1	494	1	2	3	0.8265	0.6660	1	0	1.561	0	82	0
64	1	495	1	2	2	0.8265	0.6660	0	1	1.392	50	0	0
64	1	496	1	1	1	0.8265	0.6660	0	1	1.166	50	0	0
64	1	497	1	2	3	0.8265	0.6660	1	0	1.890	0	82	0
64	1	498	9	2	3	0.8265	0.6660	0	1	1.171	0	0	0
64	1	499	9	1	3	0.8265	0.6660	1	0	1.845	0	82	0
64	1	500	1	1	3	0.8265	0.6660	0	1	1.212	50	0	0
64	1	501	9	1	1	0.8265	0.6660	1	1	2.630	0	0	82
64	1	502	1	1	3	0.8265	0.6660	0	1	1.354	50	0	0
64	1	503	0	1	1	0.8265	0.6660	0	1	0.933	5	82	82
64	1	504	1	1	3	0.8265	0.6660	1	0	1.428	0	0	82
64	1	505	9	2	3	0.8265	0.6660	1	1	1.322	0	82	0
64	1	506	1	2	3	0.8265	0.6660	0	1	1.331	50	0	0
64	1	507	9	2	3	0.8265	0.6660	0	0	1.665	0	82	82
64	1	508	0	1	3	0.8265	0.6660	0	1	1.109	5	82	82
64	1	509	9	2	2	0.8265	0.6660	0	1	1.067	0	82	82
64	1	510	9	2	1	0.8265	0.6660	1	1	1.323	0	82	0
64	1	511	0	1	1	0.8265	0.6660	0	1	0.865	5	82	82
64	1	512	1	1	1	0.8265	0.6660	0	1	0.777	57	0	0
64	1	513	9	1	1	0.8265	0.6660	1	1	1.324	0	82	0
64	1	514	0	2	2	0.8265	0.6660	0	0	1.639	0	82	82
64	1	515	9	2	2	0.8265	0.6660	0	1	1.385	0	0	0
64	1	516	1	1	2	0.8265	0.6660	1	1	1.673	50	0	82
64	1	517	0	2	1	0.8265	0.6660	1	0	1.303	0	0	82
64	1	518	0	1	3	0.8265	0.6660	1	1	1.733	5	82	0
64	1	519	0	2	2	0.8265	0.6660	0	1	1.372	5	82	82
64	1	520	1	1	1	0.8265	0.6660	1	0	0.986	0	0	82
64	1	521	0	2	3	0.8265	0.6660	0	0	1.417	0	82	82
64	1	522	1	1	3	0.8265	0.6660	0	1	1.523	50	0	0
64	1	523	1	2	3	0.8265	0.6660	0	1	1.318	50	0	0
64	1	524	1	2	3	0.8265	0.6660	0	1	1.029	50	0	0
64	1	525	0	1	2	0.8265	0.6660	0	1	1.108	5	82	82
64	1	526	1	2	3	0.8265	0.6660	1	1	1.289	50	82	0
64	1	527	0	1	1	0.8265	0.6660	1	1	1.176	5	82	0
64	1	528	1	2	3	0.8265	0.6660	1	1	0.793	56	82	0
64	1	529	0	1	3	0.8265	0.6660	0	1	0.930	5	82	82
64	1	530	9	2	2	0.8265	0.6660	1	1	0.646	0	82	0
64	1	531	0	1	3	0.8265	0.6660	1	0	2.543	0	82	0
64	1	532	1	1	2	0.8265	0.6660	0	1	1.912	50	0	0
64	1	533	0	2	2	0.8265	0.6660	1	1	1.420	5	0	82
64	1	534	9	1	3	0.8265	0.6660	0	1	1.050	0	82	82
64	1	535	0	1	3	0.8265	0.6660	1	1	1.829	5	82	0
64	1	536	1	2	3	0.8265	0.6660	0	1	1.927	50	0	0
64	1	537	1	2	2	0.8265	0.6660	0	1	1.430	50	0	0
64	1	538	9	2	3	0.8265	0.6660	0	1	0.962	0	0	0
64	1	539	1	2	3	0.8265	0.6660	0	1	0.939	50	0	0
64	1	540	1	1	3	0.8265	0.6660	1	1	2.321	50	0	82
64	1	541	0	1	1	0.8265	0.6660	0	1	1.269	5	82	82
64	1	542	0	1	1	0.8265	0.6660	0	1	0.782	6	82	82
64	1	543	9	2	1	0.8265	0.6660	0	0	1.154	0	0	0
64	1	544	9	2	3	0.8265	0.6660	1	1	2.634	0	82	0
64	1	545	0	1	1	0.8265	0.6660	0	1	1.645	5	82	82
64	1	546	1	1	3	0.8265	0.6660	0	1	1.610	50	0	0
64	1	547	0	1	1	0.8265	0.6660	0	1	1.897	5	82	82
64	1	548	0	1	3	0.8265	0.6660	1	0	2.508	0	82	0
64	1	549	9	1	3	0.8265	0.6660	0	1	1.128	0	0	0
64	1	550	1	2	1	0.8265	0.6660	1	1	1.915	50	82	0
64	1	551	0	1	3	0.8265	0.6660	0	1	1.360	5	82	82
64	1	552	1	2	2	0.8265	0.6660	1	1	0.978	50	82	0
64	1	553	1	1	3	0.8265	0.6660	0	1	1.374	50	0	0
64	1	554	1	2	1	0.8265	0.6660	0	1	2.648	50	0	0
64	1	555	9	2	2	0.8265	0.6660	1	1	1.670	0	0	82
64	1	556	0	1	3	0.8265	0.6660	1	0	2.063	0	82	0
64	1	557	0	1	3	0.8265	0.6660	1	1	2.600	5	82	0
64	1	558	0	1	3	0.8265	0.6660	1	1	1.082	5	82	0
64	1	559	0	2	2	0.8265	0.6660	0	0	1.441	0	82	82
64	1	560	9	1	3	0.8265	0.6660	0	1	1.006	0	82	82
64	1	561	0	2	2	0.8265	0.6660	1	1	1.382	5	0	82
64	1	562	0	2	3	0.8265	0.6660	0	0	1.206	0	82	82
64	1	563	1	1	1	0.8265	0.6660	0	1	2.010	50	0	0
64	1	564	1	1	3	0.8265	0.6660	1	1	1.223	50	0	82
64	1	565	1	1	3	0.8265	0.6660	0	1	1.189	50	0	0
64	1	566	0	1	1	0.8265	0.6660	1	0	2.243	0	82	0
64	1	567	0	2	3	0.8265	0.6660	0	1	2.623	5	82	82
64	1	568	1	1	3	0.8265	0.6660	0	1	0.937	50	0	0
64	1	569	1	2	2	0.8265	0.6660	1	1	0.951	50	82	0
64	1	570	9	2	3	0.8265	0.6660	1	0	1.314	0	0	82
64	1	571	1	1	1	0.8265	0.6660	0	1	1.159	50	0	0
64	1	572	9	1	2	0.8265	0.6660	1	1	1.013	0	82	0
64	1	573	0	1	3	0.8265	0.6660	0	0	2.282	0	82	82
64	1	574	1	2	2	0.8265	0.6660	1	1	1.115	50	82	0
64	1	575	1	2	1	0.8265	0.6660	1	1	1.065	50	82	0
64	1	576	1	2	3	0.8265	0.6660	0	1	1.839	50	0	0
64	1	577	1	1	1	0.8265	0.6660	1	1	3.033	50	0	82
64	1	578	1	1	3	0.8265	0.6660	1	1	1.307	50	0	82
64	1	579	0	1	3	0.8265	0.6660	0	1	1.507	5	82	82
64	1	580	9	2	2	0.8265	0.6660	1	0	1.064	0	0	82
64	1	581	9	1	1	0.8265	0.6660	0	1	1.375	0	0	0
64	1	582	0	2	3	0.8265	0.6660	1	1	1.695	5	0	82
64	1	583	0	1	2	0.8265	0.6660	1	1	1.180	5	82	0
64	1	584	1	1	1	0.8265	0.6660	1	1	0.900	50	0	82
64	1	585	1	2	2	0.8265	0.6660	1	1	3.582	50	82	0
64	1	586	0	1	1	0.8265	0.6660	1	1	1.088	5	82	0
64	1	587	0	2	2	0.8265	0.6660	0	0	1.378	0	82	82
64	1	588	1	1	3	0.8265	0.6660	1	1	1.603	50	0	82
64	1	589	0	2	2	0.8265	0.6660	0	1	1.807	5	82	82
64	1	590	0	2	3	0.8265	0.6660	0	1	1.227	5	82	82
64	1	591	1	2	3	0.8265	0.6660	0	1	1.405	50	0	0
64	1	592	9	1	2	0.8265	0.6660	0	1	2.454	0	82	82
64	1	593	0	2	1	0.8265	0.6660	0	0	1.054	0	82	82
64	1	594	9	1	3	0.8265	0.6660	0	1	3.306	0	0	0
64	1	595	9	1	1	0.8265	0.6660	0	1	2.151	0	0	0
64	1	596	0	2	3	0.8265	0.6660	1	1	1.429	5	0	82
64	1	597	0	1	3	0.8265	0.6660	0	1	1.386	5	82	82
64	1	598	0	2	1	0.8265	0.6660	0	0	1.642	0	82	82
64	1	599	9	2	2	0.8265	0.6660	0	1	0.967	0	82	82
64	1	600	0	1	1	0.8265	0.6660	0	1	1.233	5	82	82
64	1	601	0	1	1	0.8265	0.6660	1	1	2.896	5	82	0
64	1	602	1	1	3	0.8265	0.6660	1	1	1.368	50	0	82
64	1	603	1	2	3	0.8265	0.6660	1	1	1.272	50	82	0
64	1	604	9	1	1	0.8265	0.6660	1	1	1.179	0	0	82
64	1	605	0	2	1	0.8265	0.6660	0	1	1.019	5	82	82
64	1	606	0	1	3	0.8265	0.6660	1	1	1.192	5	82	0
64	1	607	9	1	3	0.8265	0.6660	1	1	1.054	0	0	82
64	1	608	1	1	1	0.8265	0.6660	0	1	1.239	50	0	0
64	1	609	1	2	3	0.8265	0.6660	1	1	0.998	50	82	0
64	1	610	1	2	2	0.8265	0.6660	0	1	1.669	50	0	0
64	1	611	9	1	3	0.8265	0.6660	0	1	1.195	0	82	82
64	1	612	0	1	1	0.8265	0.6660	0	1	1.140	5	82	82
64	1	613	1	2	3	0.8265	0.6660	0	0	1.350	0	0	0
64	1	614	1	2	3	0.8265	0.6660	0	1	2.018	50	0	0
64	1	615	0	2	2	0.8265	0.6660	1	1	1.567	5	0	82
64	1	616	9	2	3	0.8265	0.6660	0	1	1.390	0	0	0
64	1	617	1	2	2	0.8265	0.6660	0	1	1.083	50	0	0
64	1	618	1	1	1	0.8265	0.6660	1	1	1.658	50	0	82
64	1	619	9	1	1	0.8265	0.6660	0	0	3.171	0	82	82
64	1	620	1	2	2	0.8265	0.6660	1	1	2.199	50	82	0
64	1	621	1	1	3	0.8265	0.6660	1	1	1.620	50	0	82
64	1	622	1	2	3	0.8265	0.6660	0	1	1.612	50	0	0
64	1	623	0	2	2	0.8265	0.6660	0	1	1.573	5	82	82
64	1	624	1	2	2	0.8265	0.6660	1	1	1.649	50	82	0
64	1	625	0	2	3	0.8265	0.6660	1	1	1.236	5	0	82
64	1	626	1	2	1	0.8265	0.6660	0	1	1.032	50	0	0
64	1	627	0	1	1	0.8265	0.6660	0	0	2.111	0	82	82
64	1	628	0	2	1	0.8265	0.6660	1	0	1.192	0	0	82
64	1	629	0	1	1	0.8265	0.6660	1	1	1.359	5	82	0
64	1	630	1	2	2	0.8265	0.6660	1	1	1.452	50	82	0
64	1	631	0	1	1	0.8265	0.6660	1	1	2.364	5	82	0
64	1	632	9	1	3	0.8265	0.6660	0	1	1.082	0	0	0
64	1	633	1	2	2	0.8265	0.6660	0	1	1.384	50	0	0
64	1	634	0	2	2	0.8265	0.6660	0	1	1.853	5	82	82
64	1	635	0	1	1	0.8265	0.6660	0	1	1.353	5	82	82
64	1	636	1	1	1	0.8265	0.6660	1	0	1.890	0	0	82
64	1	637	1	1	2	0.8265	0.6660	0	1	2.300	50	0	0
64	1	638	0	2	3	0.8265	0.6660	1	0	1.340	0	0	82
64	1	639	0	1	3	0.8265	0.6660	0	0	2.026	0	82	82
64	1	640	1	1	3	0.8265	0.6660	1	1	1.716	50	0	82
64	1	641	9	2	2	0.8265	0.6660	0	1	1.992	0	82	82
64	1	642	1	2	3	0.8265	0.6660	0	1	1.128	50	0	0
64	1	643	0	2	2	0.8265	0.6660	1	1	1.230	5	0	82
64	1	644	1	2	3	0.8265	0.6660	0	1	1.367	50	0	0
64	1	645	1	1	3	0.8265	0.6660	0	1	2.447	50	0	0
64	1	646	0	2	2	0.8265	0.6660	0	1	1.256	5	82	82
64	1	647	9	1	3	0.8265	0.6660	0	1	0.890	0	82	82
64	1	648	0	2	2	0.8265	0.6660	0	0	1.252	0	82	82
64	1	649	0	2	3	0.8265	0.6660	0	1	0.953	5	82	82
64	1	650	1	1	2	0.8265	0.6660	0	1	1.140	50	0	0
64	1	651	1	2	3	0.8265	0.6660	1	1	1.160	50	82	0
64	1	652	1	2	2	0.8265	0.6660	1	1	1.123	50	82	0
64	1	653	0	2	2	0.8265	0.6660	1	0	2.208	0	0	82
64	1	654	1	2	2	0.8265	0.6660	0	1	1.383	50	0	0
64	1	655	9	2	3	0.8265	0.6660	0	0	1.152	0	82	82
64	1	656	9	1	1	0.8265	0.6660	1	1	1.347	0	82	0
64	1	657	0	2	3	0.8265	0.6660	0	1	0.969	5	82	82
64	1	658	1	1	3	0.8265	0.6660	1	1	1.321	50	0	82
64	1	659	1	2	3	0.8265	0.6660	1	0	1.220	0	82	0
64	1	660	0	1	1	0.8265	0.6660	1	0	2.215	0	82	0
64	1	661	0	2	3	0.8265	0.6660	1	1	1.403	5	0	82
64	1	662	0	2	3	0.8265	0.6660	0	1	1.970	5	82	82
64	1	663	1	1	3	0.8265	0.6660	1	1	2.003	50	0	82
64	1	664	9	1	2	0.8265	0.6660	1	1	1.009	0	0	82
64	1	665	1	2	2	0.8265	0.6660	0	1	1.386	50	0	0
64	1	666	0	2	3	0.8265	0.6660	0	0	1.439	0	82	82
64	1	667	0	2	3	0.8265	0.6660	1	0	0.973	0	0	82
64	1	668	0	1	1	0.8265	0.6660	0	0	0.879	0	82	82
64	1	669	0	2	3	0.8265	0.6660	0	0	1.469	0	82	82
64	1	670	1	1	3	0.8265	0.6660	0	1	1.955	50	0	0
64	1	671	9	1	1	0.8265	0.6660	0	1	2.090	0	82	82
64	1	672	0	2	2	0.8265	0.6660	1	0	1.408	0	0	82
64	1	673	1	1	2	0.8265	0.6660	1	1	2.090	50	0	82
64	1	674	1	2	3	0.8265	0.6660	1	1	1.576	50	82	0
64	1	675	9	1	3	0.8265	0.6660	1	1	1.497	0	0	82
64	1	676	9	2	2	0.8265	0.6660	0	1	1.769	0	82	82
64	1	677	9	2	2	0.8265	0.6660	0	1	1.429	0	0	0
64	1	678	1	2	3	0.8265	0.6660	1	1	1.334	50	82	0
64	1	679	1	1	1	0.8265	0.6660	0	1	1.203	50	0	0
64	1	680	9	2	3	0.8265	0.6660	0	0	1.018	0	82	82
64	1	681	0	1	3	0.8265	0.6660	1	1	2.635	5	82	0
64	1	682	1	1	1	0.8265	0.6660	1	1	1.730	50	0	82
64	1	683	1	2	1	0.8265	0.6660	1	1	1.519	50	82	0
64	1	684	0	1	1	0.8265	0.6660	1	1	1.039	5	82	0
64	1	685	0	2	2	0.8265	0.6660	0	1	1.168	5	82	82
64	1	686	0	1	1	0.8265	0.6660	0	1	0.881	5	82	82
64	1	687	0	2	2	0.8265	0.6660	0	1	0.793	6	82	82
64	1	688	0	1	3	0.8265	0.6660	0	1	0.996	5	82	82
64	1	689	9	2	3	0.8265	0.6660	0	1	1.419	0	0	0
64	1	690	0	1	3	0.8265	0.6660	1	0	1.340	0	82	0
64	1	691	1	2	2	0.8265	0.6660	0	1	1.591	50	0	0
64	1	692	0	1	3	0.8265	0.6660	1	1	1.388	5	82	0
64	1	693	0	1	3	0.8265	0.6660	1	1	0.895	5	82	0
64	1	694	0	2	3	0.8265	0.6660	1	1	0.875	5	0	82
64	1	695	1	2	2	0.8265	0.6660	0	1	1.360	50	0	0
64	1	696	0	1	3	0.8265	0.6660	1	0	1.171	0	82	0
64	1	697	1	1	1	0.8265	0.6660	0	1	1.397	50	0	0
64	1	698	1	1	1	0.8265	0.6660	0	1	1.091	50	0	0
64	1	699	1	1	1	0.8265	0.6660	0	1	0.800	55	0	0
64	1	700	9	2	3	0.8265	0.6660	1	1	2.703	0	0	82
64	1	701	1	1	3	0.8265	0.6660	1	0	2.403	0	0	82
64	1	702	0	2	2	0.8265	0.6660	1	1	1.134	5	0	82
64	1	703	0	1	3	0.8265	0.6660	0	0	2.110	0	82	82
64	1	704	9	2	2	0.8265	0.6660	1	1	1.364	0	82	0
64	1	705	9	2	2	0.8265	0.6660	1	1	0.979	0	82	0
64	1	706	0	1	2	0.8265	0.6660	0	1	1.162	5	82	82
64	1	707	9	1	3	0.8265	0.6660	1	0	1.831	0	82	0
64	1	708	0	2	2	0.8265	0.6660	1	1	0.877	5	0	82
64	1	709	0	1	1	0.8265	0.6660	1	1	1.232	5	82	0
64	1	710	0	1	2	0.8265	0.6660	1	1	1.004	5	82	0
64	1	711	0	1	2	0.8265	0.6660	1	1	0.965	5	82	0
64	1	712	1	1	3	0.8265	0.6660	0	1	1.472	50	0	0
64	1	713	1	2	3	0.8265	0.6660	0	1	1.882	50	0	0
64	1	714	1	1	3	0.8265	0.6660	1	1	1.422	50	0	82
64	1	715	1	2	2	0.8265	0.6660	0	1	1.170	50	0	0
64	1	716	1	1	3	0.8265	0.6660	0	1	1.375	50	0	0
64	1	717	0	1	2	0.8265	0.6660	0	0	1.967	0	82	82
64	1	718	0	2	1	0.8265	0.6660	1	0	1.393	0	0	82
64	1	719	0	2	3	0.8265	0.6660	0	0	1.000	0	82	82
64	1	720	0	2	3	0.8265	0.6660	0	0	1.528	0	82	82
