sub	sess	t	rew	loc	cue	co1	co2	or	resp	rt	rew_tot	left_col	right_col
15	1	1	1	2	1	0.0931	0.1213	0	1	0.692	66	82	82
15	1	2	9	1	3	0.0931	0.1213	0	1	0.638	0	0	0
15	1	3	1	2	2	0.0931	0.1213	0	1	0.714	64	82	82
15	1	4	0	1	3	0.0931	0.1213	0	1	0.640	7	0	0
15	1	5	0	2	2	0.0931	0.1213	0	1	0.550	8	0	0
15	1	6	0	1	3	0.0931	0.1213	1	1	0.655	7	0	82
15	1	7	0	2	2	0.0931	0.1213	1	1	0.670	7	82	0
15	1	8	9	2	2	0.0931	0.1213	0	1	0.670	0	0	0
15	1	9	1	2	3	0.0931	0.1213	1	1	0.503	85	0	82
15	1	10	0	1	1	0.0931	0.1213	1	1	0.646	7	0	82
15	1	11	0	1	3	0.0931	0.1213	1	1	0.564	8	0	82
15	1	12	1	1	3	0.0931	0.1213	1	1	0.427	92	82	0
15	1	13	0	1	1	0.0931	0.1213	1	1	0.384	10	0	82
15	1	14	0	2	2	0.0931	0.1213	1	1	0.630	7	82	0
15	1	15	0	1	2	0.0931	0.1213	1	1	0.603	7	0	82
15	1	16	9	2	2	0.0931	0.1213	1	1	0.428	0	82	0
15	1	17	1	2	2	0.0931	0.1213	1	1	0.458	89	0	82
15	1	18	9	2	2	0.0931	0.1213	1	1	0.370	0	82	0
15	1	19	0	1	3	0.0931	0.1213	1	1	0.683	7	0	82
15	1	20	1	2	2	0.0931	0.1213	0	1	0.456	89	82	82
15	1	21	0	2	3	0.0931	0.1213	0	1	0.470	9	0	0
15	1	22	0	2	2	0.0931	0.1213	1	1	0.400	9	82	0
15	1	23	9	2	2	0.0931	0.1213	1	1	0.415	0	0	82
15	1	24	1	1	3	0.0931	0.1213	1	0	0.682	0	82	0
15	1	25	0	1	3	0.0931	0.1213	0	1	0.885	5	0	0
15	1	26	0	2	2	0.0931	0.1213	0	0	0.568	0	0	0
15	1	27	1	1	1	0.0931	0.1213	0	1	1.257	50	82	82
15	1	28	0	2	2	0.0931	0.1213	1	1	0.618	7	82	0
15	1	29	0	1	3	0.0931	0.1213	0	1	0.895	5	0	0
15	1	30	9	1	3	0.0931	0.1213	1	1	0.802	0	82	0
15	1	31	0	2	3	0.0931	0.1213	0	1	0.588	8	0	0
15	1	32	0	2	2	0.0931	0.1213	0	1	1.016	5	0	0
15	1	33	1	1	3	0.0931	0.1213	1	1	0.750	60	82	0
15	1	34	1	2	2	0.0931	0.1213	0	1	0.747	60	82	82
15	1	35	1	2	2	0.0931	0.1213	1	1	0.595	76	0	82
15	1	36	1	1	2	0.0931	0.1213	0	1	0.652	70	82	82
15	1	37	9	2	3	0.0931	0.1213	1	0	1.052	0	82	0
15	1	38	1	2	3	0.0931	0.1213	1	1	0.953	50	0	82
15	1	39	1	2	3	0.0931	0.1213	0	1	0.626	72	82	82
15	1	40	0	2	2	0.0931	0.1213	1	1	0.523	8	82	0
15	1	41	1	2	3	0.0931	0.1213	0	1	0.497	85	82	82
15	1	42	1	1	1	0.0931	0.1213	0	1	0.693	66	82	82
15	1	43	0	1	1	0.0931	0.1213	0	1	0.524	8	0	0
15	1	44	9	1	3	0.0931	0.1213	1	1	0.584	0	0	82
15	1	45	0	2	3	0.0931	0.1213	0	1	0.533	8	0	0
15	1	46	1	1	3	0.0931	0.1213	0	1	0.419	93	82	82
15	1	47	0	1	3	0.0931	0.1213	0	1	0.513	8	0	0
15	1	48	1	2	3	0.0931	0.1213	0	0	0.769	0	82	82
15	1	49	1	1	1	0.0931	0.1213	0	1	0.778	57	82	82
15	1	50	1	2	3	0.0931	0.1213	1	1	0.595	75	0	82
15	1	51	1	2	1	0.0931	0.1213	0	1	0.493	86	82	82
15	1	52	1	1	3	0.0931	0.1213	0	1	0.673	68	82	82
15	1	53	0	2	1	0.0931	0.1213	0	1	0.643	7	0	0
15	1	54	9	2	1	0.0931	0.1213	0	1	0.864	0	82	82
15	1	55	0	1	1	0.0931	0.1213	1	1	0.744	6	0	82
15	1	56	1	2	1	0.0931	0.1213	1	1	0.586	76	0	82
15	1	57	9	2	2	0.0931	0.1213	0	1	0.581	0	0	0
15	1	58	1	2	1	0.0931	0.1213	1	1	0.548	80	0	82
15	1	59	0	1	1	0.0931	0.1213	0	1	0.543	8	0	0
15	1	60	1	2	1	0.0931	0.1213	0	1	0.454	90	82	82
15	1	61	0	2	3	0.0931	0.1213	1	1	0.488	9	82	0
15	1	62	0	1	2	0.0931	0.1213	1	0	0.792	0	0	82
15	1	63	9	2	1	0.0931	0.1213	1	1	0.719	0	82	0
15	1	64	9	2	3	0.0931	0.1213	1	1	0.572	0	82	0
15	1	65	1	2	3	0.0931	0.1213	0	1	0.488	86	82	82
15	1	66	1	2	2	0.0931	0.1213	1	1	0.541	81	0	82
15	1	67	1	2	3	0.0931	0.1213	0	1	0.472	88	82	82
15	1	68	0	2	3	0.0931	0.1213	1	1	0.550	8	82	0
15	1	69	0	2	3	0.0931	0.1213	1	1	0.688	7	82	0
15	1	70	0	1	1	0.0931	0.1213	0	1	0.574	8	0	0
15	1	71	0	1	3	0.0931	0.1213	1	1	0.795	6	0	82
15	1	72	1	1	1	0.0931	0.1213	1	1	0.473	88	82	0
15	1	73	1	1	3	0.0931	0.1213	1	1	0.391	96	82	0
15	1	74	1	1	1	0.0931	0.1213	0	1	0.556	79	82	82
15	1	75	0	1	1	0.0931	0.1213	1	1	0.644	7	0	82
15	1	76	1	2	2	0.0931	0.1213	1	1	0.647	70	0	82
15	1	77	1	1	2	0.0931	0.1213	1	1	0.645	70	82	0
15	1	78	9	2	2	0.0931	0.1213	1	1	0.589	0	82	0
15	1	79	0	1	1	0.0931	0.1213	1	1	0.641	7	0	82
15	1	80	1	2	3	0.0931	0.1213	1	1	0.438	91	0	82
15	1	81	1	1	1	0.0931	0.1213	0	1	0.614	74	82	82
15	1	82	9	2	3	0.0931	0.1213	0	1	0.662	0	0	0
15	1	83	9	1	3	0.0931	0.1213	1	1	0.665	0	0	82
15	1	84	0	2	1	0.0931	0.1213	1	1	0.850	5	82	0
15	1	85	0	2	3	0.0931	0.1213	1	1	0.681	7	82	0
15	1	86	0	2	2	0.0931	0.1213	1	1	0.613	7	82	0
15	1	87	0	2	2	0.0931	0.1213	0	1	0.513	8	0	0
15	1	88	1	2	2	0.0931	0.1213	1	1	0.367	98	0	82
15	1	89	1	2	2	0.0931	0.1213	0	1	0.667	68	82	82
15	1	90	9	1	3	0.0931	0.1213	0	1	0.798	0	82	82
15	1	91	1	1	1	0.0931	0.1213	1	1	0.699	65	82	0
15	1	92	1	2	2	0.0931	0.1213	0	1	0.458	89	82	82
15	1	93	1	2	3	0.0931	0.1213	0	1	0.456	89	82	82
15	1	94	0	1	2	0.0931	0.1213	1	1	0.470	9	0	82
15	1	95	1	2	3	0.0931	0.1213	0	1	0.453	90	82	82
15	1	96	1	1	3	0.0931	0.1213	1	1	0.425	93	82	0
15	1	97	1	2	2	0.0931	0.1213	1	1	0.381	97	0	82
15	1	98	9	1	3	0.0931	0.1213	1	1	0.385	0	82	0
15	1	99	1	1	1	0.0931	0.1213	1	1	0.391	96	82	0
15	1	100	9	2	3	0.0931	0.1213	0	1	0.415	0	82	82
15	1	101	9	1	3	0.0931	0.1213	0	1	0.531	0	0	0
15	1	102	1	2	1	0.0931	0.1213	1	1	0.320	100	0	82
15	1	103	0	1	1	0.0931	0.1213	1	1	0.838	5	0	82
15	1	104	0	1	1	0.0931	0.1213	0	1	0.477	9	0	0
15	1	105	0	2	2	0.0931	0.1213	0	1	0.483	9	0	0
15	1	106	1	2	2	0.0931	0.1213	0	1	0.408	94	82	82
15	1	107	0	2	2	0.0931	0.1213	1	1	0.529	8	82	0
15	1	108	0	1	3	0.0931	0.1213	1	1	0.739	6	0	82
15	1	109	1	1	3	0.0931	0.1213	1	1	0.424	93	82	0
15	1	110	1	2	2	0.0931	0.1213	0	1	0.406	94	82	82
15	1	111	1	1	3	0.0931	0.1213	0	1	0.373	98	82	82
15	1	112	9	1	1	0.0931	0.1213	0	1	0.595	0	82	82
15	1	113	0	1	3	0.0931	0.1213	0	1	0.566	8	0	0
15	1	114	1	1	3	0.0931	0.1213	1	1	0.440	91	82	0
15	1	115	0	1	3	0.0931	0.1213	0	0	0.483	0	0	0
15	1	116	9	1	1	0.0931	0.1213	1	1	0.756	0	0	82
15	1	117	0	2	1	0.0931	0.1213	0	1	0.492	9	0	0
15	1	118	1	1	3	0.0931	0.1213	0	1	0.622	73	82	82
15	1	119	9	1	3	0.0931	0.1213	0	1	0.666	0	0	0
15	1	120	9	1	1	0.0931	0.1213	0	1	0.457	0	0	0
15	1	121	1	1	3	0.0931	0.1213	0	1	0.572	78	82	82
15	1	122	0	2	3	0.0931	0.1213	0	1	0.670	7	0	0
15	1	123	9	1	1	0.0931	0.1213	1	1	0.393	0	82	0
15	1	124	1	2	3	0.0931	0.1213	1	1	0.382	97	0	82
15	1	125	0	1	2	0.0931	0.1213	0	1	0.642	7	0	0
15	1	126	9	1	1	0.0931	0.1213	1	1	0.495	0	0	82
15	1	127	0	2	3	0.0931	0.1213	0	1	0.513	8	0	0
15	1	128	9	2	2	0.0931	0.1213	0	1	0.394	0	0	0
15	1	129	0	1	1	0.0931	0.1213	1	0	0.632	0	0	82
15	1	130	0	1	1	0.0931	0.1213	0	1	0.603	7	0	0
15	1	131	0	1	1	0.0931	0.1213	0	1	0.724	6	0	0
15	1	132	0	1	2	0.0931	0.1213	1	0	0.433	0	0	82
15	1	133	0	1	1	0.0931	0.1213	0	1	0.468	9	0	0
15	1	134	0	2	2	0.0931	0.1213	1	1	0.830	5	82	0
15	1	135	0	2	3	0.0931	0.1213	0	0	0.630	0	0	0
15	1	136	1	1	3	0.0931	0.1213	0	1	0.827	52	82	82
15	1	137	9	2	2	0.0931	0.1213	0	0	0.551	0	82	82
15	1	138	0	1	3	0.0931	0.1213	0	1	0.572	8	0	0
15	1	139	1	2	2	0.0931	0.1213	1	1	0.362	99	0	82
15	1	140	9	2	3	0.0931	0.1213	0	1	0.603	0	82	82
15	1	141	9	1	1	0.0931	0.1213	0	0	0.540	0	82	82
15	1	142	0	2	2	0.0931	0.1213	1	1	0.587	8	82	0
15	1	143	9	2	2	0.0931	0.1213	0	1	0.572	0	82	82
15	1	144	1	2	2	0.0931	0.1213	0	1	0.456	89	82	82
15	1	145	0	1	1	0.0931	0.1213	0	1	0.537	8	0	0
15	1	146	1	2	3	0.0931	0.1213	0	1	0.536	81	82	82
15	1	147	0	1	3	0.0931	0.1213	1	0	0.781	0	0	82
15	1	148	1	2	2	0.0931	0.1213	0	1	0.425	92	82	82
15	1	149	9	1	1	0.0931	0.1213	1	1	0.560	0	0	82
15	1	150	1	2	2	0.0931	0.1213	0	1	0.442	91	82	82
15	1	151	9	1	3	0.0931	0.1213	0	1	0.586	0	0	0
15	1	152	9	1	3	0.0931	0.1213	1	1	0.797	0	0	82
15	1	153	0	2	3	0.0931	0.1213	0	1	0.489	9	0	0
15	1	154	1	2	3	0.0931	0.1213	1	1	0.424	93	0	82
15	1	155	1	1	1	0.0931	0.1213	0	1	0.534	82	82	82
15	1	156	0	2	2	0.0931	0.1213	1	1	0.492	9	82	0
15	1	157	0	1	1	0.0931	0.1213	1	1	0.477	9	0	82
15	1	158	1	2	2	0.0931	0.1213	0	1	0.404	95	82	82
15	1	159	0	2	3	0.0931	0.1213	1	1	0.472	9	82	0
15	1	160	1	2	1	0.0931	0.1213	1	1	0.409	94	0	82
15	1	161	1	1	2	0.0931	0.1213	1	1	0.568	78	82	0
15	1	162	1	2	3	0.0931	0.1213	1	1	0.423	93	0	82
15	1	163	1	1	3	0.0931	0.1213	0	1	0.537	81	82	82
15	1	164	9	1	2	0.0931	0.1213	0	1	0.623	0	82	82
15	1	165	1	2	2	0.0931	0.1213	0	1	0.486	86	82	82
15	1	166	1	2	2	0.0931	0.1213	1	1	0.422	93	0	82
15	1	167	1	1	3	0.0931	0.1213	1	0	0.559	0	82	0
15	1	168	0	1	3	0.0931	0.1213	1	1	0.599	8	0	82
15	1	169	9	1	3	0.0931	0.1213	1	1	0.576	0	0	82
15	1	170	1	1	3	0.0931	0.1213	0	1	0.973	50	82	82
15	1	171	1	1	1	0.0931	0.1213	1	1	0.654	70	82	0
15	1	172	9	2	2	0.0931	0.1213	0	1	0.541	0	82	82
15	1	173	0	2	1	0.0931	0.1213	1	1	0.538	8	82	0
15	1	174	9	1	2	0.0931	0.1213	1	1	0.560	0	0	82
15	1	175	0	2	2	0.0931	0.1213	0	1	0.413	9	0	0
15	1	176	1	2	1	0.0931	0.1213	0	1	0.415	94	82	82
15	1	177	1	2	3	0.0931	0.1213	0	1	0.487	86	82	82
15	1	178	1	1	1	0.0931	0.1213	0	0	0.464	0	82	82
15	1	179	9	1	1	0.0931	0.1213	0	1	0.528	0	0	0
15	1	180	0	1	1	0.0931	0.1213	1	1	0.572	8	0	82
15	1	181	0	2	3	0.0931	0.1213	1	1	0.607	7	82	0
15	1	182	0	2	3	0.0931	0.1213	1	1	0.398	10	82	0
15	1	183	9	2	3	0.0931	0.1213	1	1	0.336	0	0	82
15	1	184	1	1	1	0.0931	0.1213	1	1	0.345	100	82	0
15	1	185	0	2	3	0.0931	0.1213	0	1	0.525	8	0	0
15	1	186	0	1	3	0.0931	0.1213	0	1	0.590	8	0	0
15	1	187	9	2	3	0.0931	0.1213	0	1	0.402	0	0	0
15	1	188	0	2	2	0.0931	0.1213	0	1	0.397	10	0	0
15	1	189	9	2	2	0.0931	0.1213	1	1	0.340	0	0	82
15	1	190	9	2	3	0.0931	0.1213	1	1	0.274	0	0	82
15	1	191	0	1	1	0.0931	0.1213	0	0	0.331	0	0	0
15	1	192	0	1	3	0.0931	0.1213	0	1	0.359	10	0	0
15	1	193	0	1	1	0.0931	0.1213	1	0	0.378	0	0	82
15	1	194	0	2	2	0.0931	0.1213	0	1	0.335	10	0	0
15	1	195	0	1	1	0.0931	0.1213	0	1	0.447	9	0	0
15	1	196	1	2	3	0.0931	0.1213	0	1	0.425	92	82	82
15	1	197	0	2	1	0.0931	0.1213	1	1	0.439	9	82	0
15	1	198	1	1	1	0.0931	0.1213	1	1	0.518	83	82	0
15	1	199	0	2	2	0.0931	0.1213	0	1	0.376	10	0	0
15	1	200	0	2	1	0.0931	0.1213	1	1	0.332	10	82	0
15	1	201	0	1	2	0.0931	0.1213	0	1	0.448	9	0	0
15	1	202	1	1	3	0.0931	0.1213	1	1	0.486	86	82	0
15	1	203	0	2	3	0.0931	0.1213	1	1	0.425	9	82	0
15	1	204	1	1	3	0.0931	0.1213	0	1	0.596	75	82	82
15	1	205	0	1	1	0.0931	0.1213	0	1	0.491	9	0	0
15	1	206	1	2	3	0.0931	0.1213	1	1	0.384	97	0	82
15	1	207	1	1	3	0.0931	0.1213	0	1	0.487	86	82	82
15	1	208	0	2	3	0.0931	0.1213	1	1	0.510	8	82	0
15	1	209	9	1	3	0.0931	0.1213	1	1	0.538	0	82	0
15	1	210	0	2	2	0.0931	0.1213	0	1	0.461	9	0	0
15	1	211	1	2	2	0.0931	0.1213	0	1	0.454	90	82	82
15	1	212	0	2	2	0.0931	0.1213	0	1	0.340	10	0	0
15	1	213	1	2	2	0.0931	0.1213	1	1	0.376	97	0	82
15	1	214	1	2	3	0.0931	0.1213	1	1	0.368	98	0	82
15	1	215	0	2	3	0.0931	0.1213	0	1	0.390	10	0	0
15	1	216	0	2	3	0.0931	0.1213	0	1	0.364	10	0	0
15	1	217	9	2	2	0.0931	0.1213	0	1	0.409	0	82	82
15	1	218	1	1	1	0.0931	0.1213	0	1	0.575	78	82	82
15	1	219	1	1	1	0.0931	0.1213	1	1	0.587	76	82	0
15	1	220	1	1	3	0.0931	0.1213	1	1	0.482	87	82	0
15	1	221	9	1	3	0.0931	0.1213	0	0	0.533	0	82	82
15	1	222	9	2	3	0.0931	0.1213	0	1	0.420	0	82	82
15	1	223	0	2	3	0.0931	0.1213	0	1	0.342	10	0	0
15	1	224	9	2	2	0.0931	0.1213	1	1	0.284	0	0	82
15	1	225	0	2	3	0.0931	0.1213	0	1	0.333	10	0	0
15	1	226	0	2	2	0.0931	0.1213	0	1	0.387	10	0	0
15	1	227	1	1	3	0.0931	0.1213	0	1	0.410	94	82	82
15	1	228	9	2	3	0.0931	0.1213	1	1	0.407	0	82	0
15	1	229	0	2	2	0.0931	0.1213	0	1	0.363	10	0	0
15	1	230	9	2	1	0.0931	0.1213	1	1	0.380	0	0	82
15	1	231	0	1	3	0.0931	0.1213	0	1	0.438	9	0	0
15	1	232	0	1	1	0.0931	0.1213	0	1	0.442	9	0	0
15	1	233	0	1	1	0.0931	0.1213	1	0	0.342	0	0	82
15	1	234	9	1	3	0.0931	0.1213	0	1	0.633	0	82	82
15	1	235	0	2	2	0.0931	0.1213	1	1	0.437	9	82	0
15	1	236	0	1	3	0.0931	0.1213	1	1	0.707	6	0	82
15	1	237	1	1	3	0.0931	0.1213	0	1	0.571	78	82	82
15	1	238	1	1	1	0.0931	0.1213	1	1	0.540	81	82	0
15	1	239	1	2	2	0.0931	0.1213	1	1	0.394	96	0	82
15	1	240	1	1	1	0.0931	0.1213	1	1	0.468	88	82	0
15	1	241	0	2	3	0.0931	0.1213	0	1	0.420	9	0	0
15	1	242	0	1	1	0.0931	0.1213	1	1	0.441	9	0	82
15	1	243	0	1	1	0.0931	0.1213	0	0	0.476	0	0	0
15	1	244	9	1	1	0.0931	0.1213	0	1	0.532	0	0	0
15	1	245	1	1	2	0.0931	0.1213	1	1	0.541	81	82	0
15	1	246	1	1	3	0.0931	0.1213	1	1	0.442	91	82	0
15	1	247	0	1	3	0.0931	0.1213	1	1	0.780	6	0	82
15	1	248	0	1	1	0.0931	0.1213	1	1	0.487	9	0	82
15	1	249	1	1	1	0.0931	0.1213	0	1	0.549	80	82	82
15	1	250	0	1	3	0.0931	0.1213	1	1	0.588	8	0	82
15	1	251	0	1	3	0.0931	0.1213	0	1	0.502	8	0	0
15	1	252	1	1	1	0.0931	0.1213	0	1	0.443	91	82	82
15	1	253	0	2	2	0.0931	0.1213	1	1	0.469	9	82	0
15	1	254	0	1	3	0.0931	0.1213	1	1	0.586	8	0	82
15	1	255	1	1	1	0.0931	0.1213	1	1	0.348	100	82	0
15	1	256	0	2	3	0.0931	0.1213	1	0	0.849	0	82	0
15	1	257	0	2	3	0.0931	0.1213	1	1	0.670	7	82	0
15	1	258	1	1	1	0.0931	0.1213	0	0	0.655	0	82	82
15	1	259	1	1	3	0.0931	0.1213	0	1	0.765	59	82	82
15	1	260	9	2	1	0.0931	0.1213	0	1	0.469	0	0	0
15	1	261	0	1	3	0.0931	0.1213	0	1	0.522	8	0	0
15	1	262	0	2	2	0.0931	0.1213	1	1	0.460	9	82	0
15	1	263	9	1	1	0.0931	0.1213	0	1	0.530	0	82	82
15	1	264	1	2	3	0.0931	0.1213	1	1	0.365	98	0	82
15	1	265	0	1	3	0.0931	0.1213	0	1	0.492	9	0	0
15	1	266	1	1	2	0.0931	0.1213	1	0	0.455	0	82	0
15	1	267	1	1	3	0.0931	0.1213	0	1	0.523	83	82	82
15	1	268	1	1	1	0.0931	0.1213	0	1	0.604	75	82	82
15	1	269	1	2	2	0.0931	0.1213	1	1	0.353	100	0	82
15	1	270	9	1	1	0.0931	0.1213	1	1	0.499	0	82	0
15	1	271	1	1	1	0.0931	0.1213	0	0	0.502	0	82	82
15	1	272	1	1	2	0.0931	0.1213	0	1	0.444	91	82	82
15	1	273	0	1	3	0.0931	0.1213	1	1	0.553	8	0	82
15	1	274	9	2	3	0.0931	0.1213	1	1	0.378	0	0	82
15	1	275	9	1	3	0.0931	0.1213	0	1	0.500	0	82	82
15	1	276	0	2	2	0.0931	0.1213	1	1	0.852	5	82	0
15	1	277	1	2	2	0.0931	0.1213	1	1	0.305	100	0	82
15	1	278	0	1	1	0.0931	0.1213	0	1	0.587	8	0	0
15	1	279	0	2	2	0.0931	0.1213	1	1	0.603	7	82	0
15	1	280	9	1	1	0.0931	0.1213	1	1	0.498	0	82	0
15	1	281	0	1	3	0.0931	0.1213	0	1	0.449	9	0	0
15	1	282	1	1	1	0.0931	0.1213	0	1	0.521	83	82	82
15	1	283	1	2	3	0.0931	0.1213	0	1	0.453	90	82	82
15	1	284	1	2	3	0.0931	0.1213	0	1	0.393	96	82	82
15	1	285	1	1	3	0.0931	0.1213	1	1	0.346	100	82	0
15	1	286	0	2	3	0.0931	0.1213	0	1	0.405	9	0	0
15	1	287	1	2	3	0.0931	0.1213	0	1	0.313	100	82	82
15	1	288	1	2	3	0.0931	0.1213	1	1	0.385	97	0	82
15	1	289	0	2	3	0.0931	0.1213	0	1	0.392	10	0	0
15	1	290	1	1	1	0.0931	0.1213	0	1	0.394	96	82	82
15	1	291	0	1	1	0.0931	0.1213	1	0	0.636	0	0	82
15	1	292	0	1	1	0.0931	0.1213	0	1	0.628	7	0	0
15	1	293	0	1	2	0.0931	0.1213	0	1	0.522	8	0	0
15	1	294	0	2	3	0.0931	0.1213	1	1	0.419	9	82	0
15	1	295	9	2	3	0.0931	0.1213	1	1	0.337	0	0	82
15	1	296	1	1	3	0.0931	0.1213	1	1	0.311	100	82	0
15	1	297	9	1	2	0.0931	0.1213	0	1	0.460	0	0	0
15	1	298	9	1	1	0.0931	0.1213	1	1	0.279	0	0	82
15	1	299	1	2	2	0.0931	0.1213	1	1	0.323	100	0	82
15	1	300	1	1	1	0.0931	0.1213	1	1	0.315	100	82	0
15	1	301	1	2	3	0.0931	0.1213	1	1	0.331	100	0	82
15	1	302	1	1	2	0.0931	0.1213	0	1	0.738	61	82	82
15	1	303	1	2	2	0.0931	0.1213	1	1	0.313	100	0	82
15	1	304	1	2	2	0.0931	0.1213	1	1	0.310	100	0	82
15	1	305	1	1	2	0.0931	0.1213	0	1	0.427	92	82	82
15	1	306	1	2	3	0.0931	0.1213	1	1	0.340	100	0	82
15	1	307	0	2	3	0.0931	0.1213	1	1	0.283	10	82	0
15	1	308	9	2	3	0.0931	0.1213	1	1	0.307	0	82	0
15	1	309	0	1	3	0.0931	0.1213	1	1	0.469	9	0	82
15	1	310	1	1	3	0.0931	0.1213	1	1	0.417	93	82	0
15	1	311	1	2	3	0.0931	0.1213	1	1	0.317	100	0	82
15	1	312	9	2	2	0.0931	0.1213	1	1	0.377	0	0	82
15	1	313	1	2	3	0.0931	0.1213	1	1	0.250	100	0	82
15	1	314	0	2	2	0.0931	0.1213	1	1	0.303	10	82	0
15	1	315	1	2	2	0.0931	0.1213	0	1	0.388	96	82	82
15	1	316	1	2	3	0.0931	0.1213	0	1	0.329	100	82	82
15	1	317	1	1	1	0.0931	0.1213	0	0	0.625	0	82	82
15	1	318	1	1	3	0.0931	0.1213	1	1	0.664	69	82	0
15	1	319	9	2	3	0.0931	0.1213	0	1	0.377	0	0	0
15	1	320	9	1	1	0.0931	0.1213	0	0	0.481	0	0	0
15	1	321	1	2	3	0.0931	0.1213	0	1	0.396	95	82	82
15	1	322	0	1	1	0.0931	0.1213	1	1	0.775	6	0	82
15	1	323	9	2	3	0.0931	0.1213	0	1	0.386	0	0	0
15	1	324	9	2	3	0.0931	0.1213	0	1	0.308	0	82	82
15	1	325	1	2	3	0.0931	0.1213	0	1	0.343	100	82	82
15	1	326	1	1	1	0.0931	0.1213	1	1	0.555	79	82	0
15	1	327	0	1	3	0.0931	0.1213	0	1	0.653	7	0	0
15	1	328	1	2	2	0.0931	0.1213	1	1	0.353	100	0	82
15	1	329	9	1	3	0.0931	0.1213	1	1	0.405	0	82	0
15	1	330	0	2	3	0.0931	0.1213	0	1	0.346	10	0	0
15	1	331	9	1	1	0.0931	0.1213	0	1	0.705	0	82	82
15	1	332	1	1	3	0.0931	0.1213	1	1	0.496	85	82	0
15	1	333	0	2	2	0.0931	0.1213	0	1	0.346	10	0	0
15	1	334	9	2	2	0.0931	0.1213	1	1	0.487	0	82	0
15	1	335	1	1	1	0.0931	0.1213	1	1	0.453	90	82	0
15	1	336	0	1	3	0.0931	0.1213	1	0	0.631	0	0	82
15	1	337	9	2	2	0.0931	0.1213	0	1	0.440	0	0	0
15	1	338	1	2	2	0.0931	0.1213	0	1	0.387	96	82	82
15	1	339	0	1	3	0.0931	0.1213	0	1	0.596	8	0	0
15	1	340	1	1	1	0.0931	0.1213	1	1	0.447	90	82	0
15	1	341	0	2	1	0.0931	0.1213	0	1	0.409	9	0	0
15	1	342	0	2	2	0.0931	0.1213	0	1	0.370	10	0	0
15	1	343	0	2	3	0.0931	0.1213	1	1	0.609	7	82	0
15	1	344	0	2	3	0.0931	0.1213	1	1	0.484	9	82	0
15	1	345	0	2	1	0.0931	0.1213	0	1	0.433	9	0	0
15	1	346	9	1	2	0.0931	0.1213	1	1	0.636	0	82	0
15	1	347	0	1	3	0.0931	0.1213	1	1	0.609	7	0	82
15	1	348	0	2	2	0.0931	0.1213	0	0	0.476	0	0	0
15	1	349	1	1	3	0.0931	0.1213	0	0	0.927	0	82	82
15	1	350	9	1	1	0.0931	0.1213	1	1	0.679	0	82	0
15	1	351	0	2	3	0.0931	0.1213	1	1	0.584	8	82	0
15	1	352	1	2	3	0.0931	0.1213	1	1	0.342	100	0	82
15	1	353	1	1	1	0.0931	0.1213	1	1	0.705	65	82	0
15	1	354	1	1	1	0.0931	0.1213	1	1	0.346	100	82	0
15	1	355	0	1	2	0.0931	0.1213	0	1	0.400	10	0	0
15	1	356	0	1	3	0.0931	0.1213	1	1	0.670	7	0	82
15	1	357	1	2	2	0.0931	0.1213	0	1	0.442	91	82	82
15	1	358	0	1	1	0.0931	0.1213	1	1	0.438	9	0	82
15	1	359	1	1	3	0.0931	0.1213	0	1	0.509	84	82	82
15	1	360	0	1	1	0.0931	0.1213	0	1	0.370	10	0	0
15	1	361	1	2	3	0.0931	0.1213	1	1	0.416	93	0	82
15	1	362	1	2	3	0.0931	0.1213	0	1	0.385	96	82	82
15	1	363	1	1	1	0.0931	0.1213	1	0	0.467	0	82	0
15	1	364	1	1	1	0.0931	0.1213	1	1	0.677	67	82	0
15	1	365	9	2	2	0.0931	0.1213	0	1	0.455	0	0	0
15	1	366	0	2	3	0.0931	0.1213	0	1	0.405	9	0	0
15	1	367	0	2	2	0.0931	0.1213	0	1	0.388	10	0	0
15	1	368	9	2	3	0.0931	0.1213	0	1	0.385	0	82	82
15	1	369	1	1	1	0.0931	0.1213	0	0	0.389	0	82	82
15	1	370	9	1	3	0.0931	0.1213	0	1	0.581	0	0	0
15	1	371	1	1	3	0.0931	0.1213	0	1	0.412	94	82	82
15	1	372	1	1	1	0.0931	0.1213	0	1	0.467	88	82	82
15	1	373	0	2	3	0.0931	0.1213	0	1	0.492	9	0	0
15	1	374	0	1	1	0.0931	0.1213	1	1	0.864	5	0	82
15	1	375	0	1	1	0.0931	0.1213	1	1	0.412	9	0	82
15	1	376	1	1	3	0.0931	0.1213	0	0	0.452	0	82	82
15	1	377	0	2	3	0.0931	0.1213	1	1	0.521	8	82	0
15	1	378	9	1	3	0.0931	0.1213	0	1	0.589	0	82	82
15	1	379	0	1	3	0.0931	0.1213	0	1	0.580	8	0	0
15	1	380	0	1	3	0.0931	0.1213	0	1	0.459	9	0	0
15	1	381	0	2	2	0.0931	0.1213	1	1	0.454	9	82	0
15	1	382	0	2	3	0.0931	0.1213	0	1	0.432	9	0	0
15	1	383	0	1	1	0.0931	0.1213	0	1	0.509	8	0	0
15	1	384	9	2	1	0.0931	0.1213	0	1	0.413	0	82	82
15	1	385	0	1	3	0.0931	0.1213	1	0	0.407	0	0	82
15	1	386	1	2	1	0.0931	0.1213	0	1	0.422	93	82	82
15	1	387	9	2	3	0.0931	0.1213	0	1	0.571	0	0	0
15	1	388	9	1	3	0.0931	0.1213	0	0	0.643	0	82	82
15	1	389	0	1	2	0.0931	0.1213	0	0	0.698	0	0	0
15	1	390	1	2	1	0.0931	0.1213	1	1	0.382	97	0	82
15	1	391	1	1	1	0.0931	0.1213	0	1	0.563	79	82	82
15	1	392	1	1	1	0.0931	0.1213	0	1	0.593	76	82	82
15	1	393	0	1	3	0.0931	0.1213	0	1	0.525	8	0	0
15	1	394	9	1	1	0.0931	0.1213	0	1	0.427	0	0	0
15	1	395	9	1	2	0.0931	0.1213	1	1	0.727	0	0	82
15	1	396	1	1	3	0.0931	0.1213	0	0	0.499	0	82	82
15	1	397	9	2	2	0.0931	0.1213	0	1	0.404	0	82	82
15	1	398	9	1	1	0.0931	0.1213	0	0	0.527	0	82	82
15	1	399	1	1	1	0.0931	0.1213	1	1	0.310	100	82	0
15	1	400	1	1	3	0.0931	0.1213	1	1	0.411	94	82	0
15	1	401	9	1	3	0.0931	0.1213	1	1	0.283	0	82	0
15	1	402	0	1	1	0.0931	0.1213	0	1	0.361	10	0	0
15	1	403	0	2	2	0.0931	0.1213	1	1	0.474	9	82	0
15	1	404	0	1	3	0.0931	0.1213	1	0	0.428	0	0	82
15	1	405	0	2	3	0.0931	0.1213	0	1	0.700	7	0	0
15	1	406	9	2	2	0.0931	0.1213	1	1	0.542	0	82	0
15	1	407	9	1	3	0.0931	0.1213	1	1	0.599	0	0	82
15	1	408	9	2	3	0.0931	0.1213	1	1	0.412	0	0	82
15	1	409	0	2	3	0.0931	0.1213	1	1	0.363	10	82	0
15	1	410	0	2	3	0.0931	0.1213	0	1	0.431	9	0	0
15	1	411	0	2	1	0.0931	0.1213	0	1	0.453	9	0	0
15	1	412	1	2	3	0.0931	0.1213	1	1	0.373	98	0	82
15	1	413	1	2	3	0.0931	0.1213	1	1	0.337	100	0	82
15	1	414	0	2	3	0.0931	0.1213	1	1	0.358	10	82	0
15	1	415	0	2	3	0.0931	0.1213	0	1	0.375	10	0	0
15	1	416	0	1	1	0.0931	0.1213	0	1	0.600	7	0	0
15	1	417	0	1	1	0.0931	0.1213	0	1	0.487	9	0	0
15	1	418	0	2	3	0.0931	0.1213	0	1	0.451	9	0	0
15	1	419	0	2	3	0.0931	0.1213	1	0	0.403	0	82	0
15	1	420	1	1	1	0.0931	0.1213	1	1	0.306	100	82	0
15	1	421	0	1	1	0.0931	0.1213	1	0	0.421	0	0	82
15	1	422	1	2	3	0.0931	0.1213	0	1	0.431	92	82	82
15	1	423	1	1	1	0.0931	0.1213	0	1	0.604	75	82	82
15	1	424	0	1	1	0.0931	0.1213	1	1	0.638	7	0	82
15	1	425	9	1	3	0.0931	0.1213	0	0	0.647	0	82	82
15	1	426	0	1	1	0.0931	0.1213	1	1	0.633	7	0	82
15	1	427	1	2	2	0.0931	0.1213	0	1	0.398	95	82	82
15	1	428	9	2	2	0.0931	0.1213	0	1	0.454	0	82	82
15	1	429	1	1	3	0.0931	0.1213	1	1	0.358	99	82	0
15	1	430	9	2	3	0.0931	0.1213	1	1	0.402	0	0	82
15	1	431	9	1	1	0.0931	0.1213	1	1	0.286	0	82	0
15	1	432	0	2	2	0.0931	0.1213	1	1	0.441	9	82	0
15	1	433	0	1	2	0.0931	0.1213	0	1	0.719	6	0	0
15	1	434	0	2	2	0.0931	0.1213	0	1	0.485	9	0	0
15	1	435	9	2	2	0.0931	0.1213	1	1	0.381	0	0	82
15	1	436	0	2	3	0.0931	0.1213	1	1	0.577	8	82	0
15	1	437	1	1	1	0.0931	0.1213	1	1	0.357	99	82	0
15	1	438	9	2	2	0.0931	0.1213	0	1	0.409	0	82	82
15	1	439	0	1	3	0.0931	0.1213	1	1	0.499	9	0	82
15	1	440	0	2	3	0.0931	0.1213	1	1	0.572	8	82	0
15	1	441	0	2	3	0.0931	0.1213	1	1	0.421	9	82	0
15	1	442	0	2	2	0.0931	0.1213	1	1	0.342	10	82	0
15	1	443	1	1	3	0.0931	0.1213	0	1	0.536	81	82	82
15	1	444	0	2	3	0.0931	0.1213	1	1	0.568	8	82	0
15	1	445	0	2	1	0.0931	0.1213	1	1	0.727	6	82	0
15	1	446	0	2	2	0.0931	0.1213	0	1	0.458	9	0	0
15	1	447	1	1	3	0.0931	0.1213	0	1	0.608	74	82	82
15	1	448	9	2	1	0.0931	0.1213	1	1	0.422	0	0	82
15	1	449	1	1	1	0.0931	0.1213	0	1	0.502	85	82	82
15	1	450	0	2	1	0.0931	0.1213	0	1	0.384	10	0	0
15	1	451	1	1	3	0.0931	0.1213	0	1	0.523	83	82	82
15	1	452	1	2	2	0.0931	0.1213	1	1	0.298	100	0	82
15	1	453	0	1	3	0.0931	0.1213	0	1	0.375	10	0	0
15	1	454	1	2	3	0.0931	0.1213	0	1	0.388	96	82	82
15	1	455	0	1	1	0.0931	0.1213	0	1	0.466	9	0	0
15	1	456	9	2	2	0.0931	0.1213	1	1	0.276	0	0	82
15	1	457	0	1	1	0.0931	0.1213	0	1	0.551	8	0	0
15	1	458	0	2	2	0.0931	0.1213	1	0	0.533	0	82	0
15	1	459	9	1	3	0.0931	0.1213	1	0	0.386	0	0	82
15	1	460	1	1	3	0.0931	0.1213	1	1	0.435	91	82	0
15	1	461	0	2	3	0.0931	0.1213	1	1	0.322	10	82	0
15	1	462	9	1	1	0.0931	0.1213	1	1	0.386	0	82	0
15	1	463	9	1	1	0.0931	0.1213	0	1	0.427	0	82	82
15	1	464	1	1	1	0.0931	0.1213	0	1	0.419	93	82	82
15	1	465	0	2	3	0.0931	0.1213	1	1	0.420	9	82	0
15	1	466	0	1	1	0.0931	0.1213	1	1	0.676	7	0	82
15	1	467	0	2	3	0.0931	0.1213	1	1	0.564	8	82	0
15	1	468	9	1	3	0.0931	0.1213	1	1	0.618	0	0	82
15	1	469	1	1	2	0.0931	0.1213	1	0	0.601	0	82	0
15	1	470	1	1	3	0.0931	0.1213	1	1	0.451	90	82	0
15	1	471	0	2	2	0.0931	0.1213	0	1	0.365	10	0	0
15	1	472	9	1	1	0.0931	0.1213	1	1	0.265	0	82	0
15	1	473	1	1	1	0.0931	0.1213	0	0	0.464	0	82	82
15	1	474	1	1	1	0.0931	0.1213	0	1	0.751	60	82	82
15	1	475	9	2	3	0.0931	0.1213	0	1	0.476	0	0	0
15	1	476	1	2	3	0.0931	0.1213	0	1	0.379	97	82	82
15	1	477	1	1	3	0.0931	0.1213	1	1	0.396	95	82	0
15	1	478	0	2	2	0.0931	0.1213	1	1	0.620	7	82	0
15	1	479	1	2	2	0.0931	0.1213	1	1	0.448	90	0	82
15	1	480	1	2	2	0.0931	0.1213	0	1	0.453	90	82	82
15	1	481	0	1	3	0.0931	0.1213	1	1	0.474	9	0	82
15	1	482	0	2	1	0.0931	0.1213	0	1	0.446	9	0	0
15	1	483	0	2	3	0.0931	0.1213	0	1	0.394	10	0	0
15	1	484	0	2	3	0.0931	0.1213	0	1	0.329	10	0	0
15	1	485	0	1	1	0.0931	0.1213	0	0	0.623	0	0	0
15	1	486	0	1	3	0.0931	0.1213	0	1	0.386	10	0	0
15	1	487	9	1	2	0.0931	0.1213	0	1	0.400	0	82	82
15	1	488	9	2	2	0.0931	0.1213	0	1	0.429	0	0	0
15	1	489	9	2	3	0.0931	0.1213	1	1	0.442	0	82	0
15	1	490	0	2	3	0.0931	0.1213	0	1	0.322	10	0	0
15	1	491	0	2	2	0.0931	0.1213	0	1	0.290	10	0	0
15	1	492	1	2	2	0.0931	0.1213	0	1	0.464	89	82	82
15	1	493	1	2	2	0.0931	0.1213	0	1	0.304	100	82	82
15	1	494	1	1	3	0.0931	0.1213	0	0	0.605	0	82	82
15	1	495	0	1	3	0.0931	0.1213	0	1	0.420	9	0	0
15	1	496	0	1	3	0.0931	0.1213	0	1	0.463	9	0	0
15	1	497	0	2	2	0.0931	0.1213	0	1	0.362	10	0	0
15	1	498	1	2	2	0.0931	0.1213	1	1	0.362	99	0	82
15	1	499	0	2	2	0.0931	0.1213	1	0	0.416	0	82	0
15	1	500	1	1	3	0.0931	0.1213	0	1	0.887	50	82	82
15	1	501	0	1	3	0.0931	0.1213	1	1	0.624	7	0	82
15	1	502	0	2	1	0.0931	0.1213	0	1	0.395	10	0	0
15	1	503	1	2	2	0.0931	0.1213	0	1	0.490	86	82	82
15	1	504	1	1	3	0.0931	0.1213	0	1	0.720	63	82	82
15	1	505	0	1	1	0.0931	0.1213	0	1	0.488	9	0	0
15	1	506	1	1	3	0.0931	0.1213	0	1	0.484	87	82	82
15	1	507	1	1	1	0.0931	0.1213	0	1	0.571	78	82	82
15	1	508	0	2	2	0.0931	0.1213	0	1	0.446	9	0	0
15	1	509	0	2	3	0.0931	0.1213	1	1	0.471	9	82	0
15	1	510	9	2	3	0.0931	0.1213	0	1	0.343	0	0	0
15	1	511	1	2	2	0.0931	0.1213	1	1	0.408	94	0	82
15	1	512	0	1	2	0.0931	0.1213	1	1	0.268	10	0	82
15	1	513	1	2	2	0.0931	0.1213	1	1	0.323	100	0	82
15	1	514	1	1	1	0.0931	0.1213	1	1	0.501	85	82	0
15	1	515	1	2	3	0.0931	0.1213	0	1	0.415	93	82	82
15	1	516	1	2	3	0.0931	0.1213	0	0	0.363	0	82	82
15	1	517	0	1	2	0.0931	0.1213	0	1	0.717	6	0	0
15	1	518	9	2	2	0.0931	0.1213	1	1	0.572	0	82	0
15	1	519	0	1	3	0.0931	0.1213	0	0	0.575	0	0	0
15	1	520	1	2	2	0.0931	0.1213	0	1	0.315	100	82	82
15	1	521	1	2	1	0.0931	0.1213	0	1	0.308	100	82	82
15	1	522	1	2	2	0.0931	0.1213	1	1	0.424	93	0	82
15	1	523	0	2	2	0.0931	0.1213	1	1	0.893	5	82	0
15	1	524	9	1	2	0.0931	0.1213	0	0	0.624	0	0	0
15	1	525	0	1	1	0.0931	0.1213	1	1	0.587	8	0	82
15	1	526	0	1	1	0.0931	0.1213	0	1	0.540	8	0	0
15	1	527	1	2	3	0.0931	0.1213	1	1	0.362	99	0	82
15	1	528	1	2	2	0.0931	0.1213	1	1	0.342	100	0	82
15	1	529	1	2	3	0.0931	0.1213	1	1	0.413	94	0	82
15	1	530	9	1	3	0.0931	0.1213	0	1	0.542	0	0	0
15	1	531	9	1	1	0.0931	0.1213	1	1	0.504	0	0	82
15	1	532	9	2	3	0.0931	0.1213	1	1	0.519	0	82	0
15	1	533	0	2	3	0.0931	0.1213	1	1	0.425	9	82	0
15	1	534	1	2	3	0.0931	0.1213	0	1	0.443	91	82	82
15	1	535	0	2	2	0.0931	0.1213	1	1	0.477	9	82	0
15	1	536	9	2	3	0.0931	0.1213	1	1	0.334	0	82	0
15	1	537	0	1	3	0.0931	0.1213	0	1	0.517	8	0	0
15	1	538	1	1	3	0.0931	0.1213	0	1	0.408	94	82	82
15	1	539	1	2	3	0.0931	0.1213	1	1	0.566	78	0	82
15	1	540	0	1	1	0.0931	0.1213	1	1	0.404	9	0	82
15	1	541	9	2	3	0.0931	0.1213	0	1	0.421	0	82	82
15	1	542	1	1	1	0.0931	0.1213	1	1	0.340	100	82	0
15	1	543	1	1	1	0.0931	0.1213	1	1	0.303	100	82	0
15	1	544	1	1	1	0.0931	0.1213	0	1	0.421	93	82	82
15	1	545	1	2	3	0.0931	0.1213	0	1	0.354	100	82	82
15	1	546	0	1	1	0.0931	0.1213	0	0	0.468	0	0	0
15	1	547	0	1	3	0.0931	0.1213	1	0	0.604	0	0	82
15	1	548	0	1	1	0.0931	0.1213	1	1	0.548	8	0	82
15	1	549	0	2	2	0.0931	0.1213	0	1	0.437	9	0	0
15	1	550	0	2	2	0.0931	0.1213	0	1	0.394	10	0	0
15	1	551	1	2	3	0.0931	0.1213	0	0	0.543	0	82	82
15	1	552	1	2	2	0.0931	0.1213	1	1	0.456	89	0	82
15	1	553	1	1	1	0.0931	0.1213	0	1	0.558	79	82	82
15	1	554	1	2	2	0.0931	0.1213	0	1	0.414	94	82	82
15	1	555	0	2	2	0.0931	0.1213	0	1	0.387	10	0	0
15	1	556	0	1	2	0.0931	0.1213	0	1	0.620	7	0	0
15	1	557	1	2	3	0.0931	0.1213	0	1	0.412	94	82	82
15	1	558	0	2	2	0.0931	0.1213	0	1	0.330	10	0	0
15	1	559	9	1	3	0.0931	0.1213	0	1	0.594	0	0	0
15	1	560	0	2	3	0.0931	0.1213	0	0	0.418	0	0	0
15	1	561	1	2	2	0.0931	0.1213	0	1	0.476	87	82	82
15	1	562	9	2	3	0.0931	0.1213	1	1	0.379	0	0	82
15	1	563	9	1	3	0.0931	0.1213	1	1	0.356	0	82	0
15	1	564	1	2	2	0.0931	0.1213	0	1	0.365	98	82	82
15	1	565	1	1	1	0.0931	0.1213	1	1	0.375	97	82	0
15	1	566	1	1	2	0.0931	0.1213	1	1	0.333	100	82	0
15	1	567	1	2	3	0.0931	0.1213	0	1	0.384	97	82	82
15	1	568	1	1	2	0.0931	0.1213	0	1	0.600	75	82	82
15	1	569	0	2	2	0.0931	0.1213	1	1	0.504	8	82	0
15	1	570	1	1	2	0.0931	0.1213	0	1	0.341	100	82	82
15	1	571	1	1	1	0.0931	0.1213	0	1	0.560	79	82	82
15	1	572	9	1	1	0.0931	0.1213	1	1	0.511	0	0	82
15	1	573	9	2	1	0.0931	0.1213	0	1	0.575	0	0	0
15	1	574	1	1	3	0.0931	0.1213	1	1	0.332	100	82	0
15	1	575	0	1	1	0.0931	0.1213	1	0	0.376	0	0	82
15	1	576	1	1	2	0.0931	0.1213	1	1	0.296	100	82	0
15	1	577	0	2	3	0.0931	0.1213	0	1	0.414	9	0	0
15	1	578	1	2	2	0.0931	0.1213	0	1	0.391	96	82	82
15	1	579	1	2	3	0.0931	0.1213	1	1	0.440	91	0	82
15	1	580	0	2	1	0.0931	0.1213	1	1	0.504	8	82	0
15	1	581	1	2	3	0.0931	0.1213	0	1	0.354	100	82	82
15	1	582	1	1	3	0.0931	0.1213	1	1	0.508	84	82	0
15	1	583	9	2	2	0.0931	0.1213	1	1	0.408	0	0	82
15	1	584	1	2	2	0.0931	0.1213	1	1	0.310	100	0	82
15	1	585	0	1	1	0.0931	0.1213	0	1	0.553	8	0	0
15	1	586	1	2	3	0.0931	0.1213	0	1	0.421	93	82	82
15	1	587	1	2	2	0.0931	0.1213	1	1	0.364	99	0	82
15	1	588	0	2	1	0.0931	0.1213	1	0	0.676	0	82	0
15	1	589	9	1	3	0.0931	0.1213	1	1	0.349	0	82	0
15	1	590	1	1	3	0.0931	0.1213	1	1	0.313	100	82	0
15	1	591	0	1	3	0.0931	0.1213	1	1	0.664	7	0	82
15	1	592	1	2	3	0.0931	0.1213	0	1	0.436	91	82	82
15	1	593	1	1	2	0.0931	0.1213	1	1	0.362	99	82	0
15	1	594	9	2	2	0.0931	0.1213	0	1	0.545	0	0	0
15	1	595	1	1	3	0.0931	0.1213	0	1	0.513	84	82	82
15	1	596	0	2	3	0.0931	0.1213	0	1	0.518	8	0	0
15	1	597	1	2	2	0.0931	0.1213	0	1	0.333	100	82	82
15	1	598	9	1	1	0.0931	0.1213	0	1	0.485	0	0	0
15	1	599	1	2	3	0.0931	0.1213	1	1	0.401	95	0	82
15	1	600	0	2	3	0.0931	0.1213	1	0	0.513	0	82	0
15	1	601	1	1	1	0.0931	0.1213	1	1	0.626	72	82	0
15	1	602	0	2	3	0.0931	0.1213	0	1	0.407	9	0	0
15	1	603	9	2	3	0.0931	0.1213	0	1	0.388	0	82	82
15	1	604	0	1	3	0.0931	0.1213	0	0	0.494	0	0	0
15	1	605	9	1	3	0.0931	0.1213	1	1	0.414	0	82	0
15	1	606	1	1	1	0.0931	0.1213	1	1	0.327	100	82	0
15	1	607	1	1	3	0.0931	0.1213	1	1	0.331	100	82	0
15	1	608	0	1	1	0.0931	0.1213	0	1	0.348	10	0	0
15	1	609	0	2	2	0.0931	0.1213	0	1	0.574	8	0	0
15	1	610	9	2	2	0.0931	0.1213	0	1	0.674	0	82	82
15	1	611	9	2	3	0.0931	0.1213	0	1	0.327	0	82	82
15	1	612	9	1	3	0.0931	0.1213	0	0	0.508	0	0	0
15	1	613	1	1	1	0.0931	0.1213	1	1	0.454	90	82	0
15	1	614	0	2	3	0.0931	0.1213	0	1	0.430	9	0	0
15	1	615	9	1	1	0.0931	0.1213	1	1	0.702	0	0	82
15	1	616	0	1	3	0.0931	0.1213	0	1	0.645	7	0	0
15	1	617	0	1	3	0.0931	0.1213	1	0	0.690	0	0	82
15	1	618	1	1	3	0.0931	0.1213	0	1	1.117	50	82	82
15	1	619	1	2	2	0.0931	0.1213	0	1	0.481	87	82	82
15	1	620	1	1	3	0.0931	0.1213	1	1	0.469	88	82	0
15	1	621	0	2	3	0.0931	0.1213	1	1	0.634	7	82	0
15	1	622	1	1	1	0.0931	0.1213	1	1	0.368	98	82	0
15	1	623	0	1	3	0.0931	0.1213	1	1	0.773	6	0	82
15	1	624	1	2	2	0.0931	0.1213	1	1	0.391	96	0	82
15	1	625	9	2	3	0.0931	0.1213	1	1	0.298	0	0	82
15	1	626	1	2	2	0.0931	0.1213	0	1	0.383	97	82	82
15	1	627	9	1	1	0.0931	0.1213	0	1	0.555	0	0	0
15	1	628	0	1	1	0.0931	0.1213	1	1	0.659	7	0	82
15	1	629	0	1	3	0.0931	0.1213	1	1	0.780	6	0	82
15	1	630	1	2	3	0.0931	0.1213	1	0	0.726	0	0	82
15	1	631	1	2	3	0.0931	0.1213	1	1	0.305	100	0	82
15	1	632	1	1	3	0.0931	0.1213	1	1	0.345	100	82	0
15	1	633	9	1	3	0.0931	0.1213	0	1	0.612	0	82	82
15	1	634	9	2	2	0.0931	0.1213	1	0	0.492	0	82	0
15	1	635	0	1	3	0.0931	0.1213	1	1	0.713	6	0	82
15	1	636	1	2	1	0.0931	0.1213	0	1	0.317	100	82	82
15	1	637	0	1	3	0.0931	0.1213	0	1	0.464	9	0	0
15	1	638	0	1	1	0.0931	0.1213	1	1	0.530	8	0	82
15	1	639	9	1	1	0.0931	0.1213	1	0	0.490	0	0	82
15	1	640	0	1	1	0.0931	0.1213	1	1	0.612	7	0	82
15	1	641	0	1	3	0.0931	0.1213	1	1	0.460	9	0	82
15	1	642	9	2	2	0.0931	0.1213	0	1	0.425	0	0	0
15	1	643	1	1	3	0.0931	0.1213	1	1	0.270	100	82	0
15	1	644	1	2	2	0.0931	0.1213	0	1	0.449	90	82	82
15	1	645	1	2	1	0.0931	0.1213	1	1	0.397	95	0	82
15	1	646	1	1	1	0.0931	0.1213	0	1	0.437	91	82	82
15	1	647	1	2	3	0.0931	0.1213	1	1	0.410	94	0	82
15	1	648	1	2	3	0.0931	0.1213	0	1	0.435	91	82	82
15	1	649	0	2	2	0.0931	0.1213	0	1	0.338	10	0	0
15	1	650	9	2	3	0.0931	0.1213	0	1	0.452	0	0	0
15	1	651	9	2	2	0.0931	0.1213	1	1	0.434	0	0	82
15	1	652	1	1	1	0.0931	0.1213	1	1	0.315	100	82	0
15	1	653	0	1	1	0.0931	0.1213	1	0	0.499	0	0	82
15	1	654	9	1	1	0.0931	0.1213	1	1	0.345	0	82	0
15	1	655	0	2	1	0.0931	0.1213	1	1	0.720	6	82	0
15	1	656	1	1	1	0.0931	0.1213	0	1	0.561	79	82	82
15	1	657	1	2	3	0.0931	0.1213	1	1	0.455	89	0	82
15	1	658	1	2	2	0.0931	0.1213	0	1	0.449	90	82	82
15	1	659	1	2	3	0.0931	0.1213	1	1	0.407	94	0	82
15	1	660	1	2	2	0.0931	0.1213	1	1	0.399	95	0	82
15	1	661	1	2	3	0.0931	0.1213	0	1	0.386	96	82	82
15	1	662	1	2	2	0.0931	0.1213	1	1	0.374	98	0	82
15	1	663	0	2	3	0.0931	0.1213	0	1	0.363	10	0	0
15	1	664	0	1	1	0.0931	0.1213	0	1	0.574	8	0	0
15	1	665	9	1	1	0.0931	0.1213	0	1	0.446	0	0	0
15	1	666	1	2	1	0.0931	0.1213	0	1	0.431	92	82	82
15	1	667	1	1	1	0.0931	0.1213	1	1	0.404	95	82	0
15	1	668	0	2	2	0.0931	0.1213	1	1	0.589	8	82	0
15	1	669	0	1	3	0.0931	0.1213	1	1	0.518	8	0	82
15	1	670	0	1	1	0.0931	0.1213	0	1	0.512	8	0	0
15	1	671	1	2	3	0.0931	0.1213	1	1	0.382	97	0	82
15	1	672	1	1	3	0.0931	0.1213	0	1	0.402	95	82	82
15	1	673	9	1	1	0.0931	0.1213	0	1	0.418	0	82	82
15	1	674	0	2	3	0.0931	0.1213	1	1	0.544	8	82	0
15	1	675	0	1	2	0.0931	0.1213	1	1	0.616	7	0	82
15	1	676	1	2	2	0.0931	0.1213	0	1	0.537	81	82	82
15	1	677	0	2	2	0.0931	0.1213	0	1	0.481	9	0	0
15	1	678	0	1	1	0.0931	0.1213	1	0	0.610	0	0	82
15	1	679	1	1	1	0.0931	0.1213	1	1	0.369	98	82	0
15	1	680	1	1	1	0.0931	0.1213	0	0	0.663	0	82	82
15	1	681	0	2	2	0.0931	0.1213	0	1	0.478	9	0	0
15	1	682	1	2	2	0.0931	0.1213	1	1	0.422	93	0	82
15	1	683	1	1	3	0.0931	0.1213	1	1	0.341	100	82	0
15	1	684	0	1	3	0.0931	0.1213	0	1	0.416	9	0	0
15	1	685	0	1	3	0.0931	0.1213	1	0	0.537	0	0	82
15	1	686	0	1	3	0.0931	0.1213	0	1	0.636	7	0	0
15	1	687	1	2	2	0.0931	0.1213	1	1	0.423	93	0	82
15	1	688	0	1	3	0.0931	0.1213	0	1	0.520	8	0	0
15	1	689	1	2	2	0.0931	0.1213	1	1	0.338	100	0	82
15	1	690	1	1	3	0.0931	0.1213	1	1	0.337	100	82	0
15	1	691	9	1	1	0.0931	0.1213	0	1	0.381	0	82	82
15	1	692	9	2	3	0.0931	0.1213	1	0	0.244	0	82	0
15	1	693	0	1	1	0.0931	0.1213	1	1	0.668	7	0	82
15	1	694	1	2	1	0.0931	0.1213	1	1	0.342	100	0	82
15	1	695	0	1	1	0.0931	0.1213	0	0	0.578	0	0	0
15	1	696	0	1	3	0.0931	0.1213	1	1	0.617	7	0	82
15	1	697	1	1	3	0.0931	0.1213	0	1	0.468	88	82	82
15	1	698	1	2	3	0.0931	0.1213	1	1	0.289	100	0	82
15	1	699	1	1	2	0.0931	0.1213	0	1	0.492	86	82	82
15	1	700	0	1	3	0.0931	0.1213	1	0	0.605	0	0	82
15	1	701	9	2	1	0.0931	0.1213	1	1	0.454	0	82	0
15	1	702	0	2	2	0.0931	0.1213	1	1	0.528	8	82	0
15	1	703	0	2	2	0.0931	0.1213	1	1	0.423	9	82	0
15	1	704	0	2	2	0.0931	0.1213	0	1	0.601	7	0	0
15	1	705	9	2	2	0.0931	0.1213	1	1	0.562	0	82	0
15	1	706	0	1	2	0.0931	0.1213	1	0	0.501	0	0	82
15	1	707	9	1	3	0.0931	0.1213	1	1	0.623	0	0	82
15	1	708	0	1	2	0.0931	0.1213	1	0	0.650	0	0	82
15	1	709	0	1	3	0.0931	0.1213	0	1	0.655	7	0	0
15	1	710	1	1	3	0.0931	0.1213	1	1	0.287	100	82	0
15	1	711	0	2	2	0.0931	0.1213	1	1	0.477	9	82	0
15	1	712	1	2	3	0.0931	0.1213	1	1	0.389	96	0	82
15	1	713	0	1	1	0.0931	0.1213	0	1	0.457	9	0	0
15	1	714	0	2	2	0.0931	0.1213	1	1	0.318	10	82	0
15	1	715	9	1	2	0.0931	0.1213	1	1	0.502	0	82	0
15	1	716	1	1	3	0.0931	0.1213	1	1	0.360	99	82	0
15	1	717	1	1	2	0.0931	0.1213	0	1	0.453	90	82	82
15	1	718	1	2	1	0.0931	0.1213	1	1	0.445	91	0	82
15	1	719	1	1	3	0.0931	0.1213	0	1	0.470	88	82	82
15	1	720	0	2	2	0.0931	0.1213	1	1	0.433	9	82	0
