sub	sess	t	rew	loc	cue	co1	co2	or	resp	rt	rew_tot	left_col	right_col
82	1	1	1	2	3	0.0861	0.0500	0	1	0.640	71	0	0
82	1	2	1	1	1	0.0861	0.0500	1	1	0.623	73	0	82
82	1	3	0	2	3	0.0861	0.0500	1	1	1.476	5	0	82
82	1	4	0	2	3	0.0861	0.0500	0	1	0.863	5	82	82
82	1	5	1	2	2	0.0861	0.0500	1	1	0.652	70	82	0
82	1	6	0	1	3	0.0861	0.0500	1	1	0.972	5	82	0
82	1	7	0	2	3	0.0861	0.0500	0	1	0.826	5	82	82
82	1	8	0	1	1	0.0861	0.0500	0	1	0.605	7	82	82
82	1	9	1	2	3	0.0861	0.0500	1	1	0.742	61	82	0
82	1	10	1	1	2	0.0861	0.0500	0	1	0.908	50	0	0
82	1	11	0	2	3	0.0861	0.0500	1	0	0.516	0	0	82
82	1	12	1	2	3	0.0861	0.0500	1	1	0.810	54	82	0
82	1	13	1	2	2	0.0861	0.0500	0	1	0.602	75	0	0
82	1	14	1	1	1	0.0861	0.0500	0	1	0.459	89	0	0
82	1	15	1	1	3	0.0861	0.0500	1	1	0.586	76	0	82
82	1	16	0	2	2	0.0861	0.0500	0	1	0.665	7	82	82
82	1	17	0	2	3	0.0861	0.0500	0	1	0.702	6	82	82
82	1	18	0	1	1	0.0861	0.0500	0	1	0.514	8	82	82
82	1	19	9	1	3	0.0861	0.0500	0	1	0.538	0	82	82
82	1	20	9	2	2	0.0861	0.0500	1	0	0.968	0	0	82
82	1	21	0	2	2	0.0861	0.0500	1	1	0.950	5	0	82
82	1	22	0	1	3	0.0861	0.0500	0	1	0.782	6	82	82
82	1	23	9	1	1	0.0861	0.0500	1	1	1.074	0	82	0
82	1	24	0	2	2	0.0861	0.0500	1	1	0.881	5	0	82
82	1	25	9	1	3	0.0861	0.0500	1	1	0.761	0	0	82
82	1	26	1	2	2	0.0861	0.0500	0	1	0.807	54	0	0
82	1	27	9	1	3	0.0861	0.0500	0	1	0.664	0	0	0
82	1	28	1	1	1	0.0861	0.0500	0	1	0.576	77	0	0
82	1	29	1	2	3	0.0861	0.0500	0	1	0.964	50	0	0
82	1	30	9	2	1	0.0861	0.0500	1	1	0.874	0	82	0
82	1	31	1	2	1	0.0861	0.0500	1	0	1.621	0	82	0
82	1	32	0	2	3	0.0861	0.0500	0	1	0.685	7	82	82
82	1	33	0	1	2	0.0861	0.0500	1	1	1.402	5	82	0
82	1	34	1	2	2	0.0861	0.0500	0	1	1.465	50	0	0
82	1	35	0	2	3	0.0861	0.0500	1	0	0.624	0	0	82
82	1	36	0	1	1	0.0861	0.0500	0	1	0.604	7	82	82
82	1	37	0	1	3	0.0861	0.0500	0	1	0.828	5	82	82
82	1	38	1	1	3	0.0861	0.0500	0	1	0.580	77	0	0
82	1	39	9	1	3	0.0861	0.0500	1	1	0.653	0	0	82
82	1	40	1	1	2	0.0861	0.0500	1	1	0.877	50	0	82
82	1	41	0	1	3	0.0861	0.0500	0	1	1.005	5	82	82
82	1	42	1	1	1	0.0861	0.0500	0	1	0.482	87	0	0
82	1	43	0	1	2	0.0861	0.0500	0	1	0.768	6	82	82
82	1	44	9	1	1	0.0861	0.0500	0	1	0.492	0	0	0
82	1	45	9	2	2	0.0861	0.0500	0	0	0.722	0	82	82
82	1	46	0	1	3	0.0861	0.0500	1	1	1.807	5	82	0
82	1	47	1	2	2	0.0861	0.0500	1	1	0.516	83	82	0
82	1	48	0	1	3	0.0861	0.0500	0	1	0.724	6	82	82
82	1	49	1	1	3	0.0861	0.0500	1	1	0.657	69	0	82
82	1	50	0	2	1	0.0861	0.0500	1	0	1.538	0	0	82
82	1	51	0	2	2	0.0861	0.0500	1	1	0.971	5	0	82
82	1	52	0	2	3	0.0861	0.0500	0	1	0.814	5	82	82
82	1	53	1	1	1	0.0861	0.0500	0	1	0.578	77	0	0
82	1	54	1	2	3	0.0861	0.0500	1	0	0.561	0	82	0
82	1	55	1	1	1	0.0861	0.0500	0	1	0.627	72	0	0
82	1	56	1	2	2	0.0861	0.0500	1	1	0.462	89	82	0
82	1	57	9	1	3	0.0861	0.0500	0	1	0.548	0	82	82
82	1	58	9	2	2	0.0861	0.0500	0	0	0.697	0	0	0
82	1	59	1	1	3	0.0861	0.0500	0	1	0.800	55	0	0
82	1	60	9	2	2	0.0861	0.0500	0	1	0.975	0	82	82
82	1	61	0	2	2	0.0861	0.0500	1	1	1.374	5	0	82
82	1	62	9	2	2	0.0861	0.0500	0	1	0.525	0	0	0
82	1	63	0	1	1	0.0861	0.0500	0	1	0.552	8	82	82
82	1	64	1	1	3	0.0861	0.0500	1	1	0.761	59	0	82
82	1	65	0	2	2	0.0861	0.0500	1	1	0.895	5	0	82
82	1	66	1	1	1	0.0861	0.0500	0	1	0.475	88	0	0
82	1	67	1	1	1	0.0861	0.0500	1	1	0.532	82	0	82
82	1	68	0	2	2	0.0861	0.0500	0	1	0.549	8	82	82
82	1	69	1	2	1	0.0861	0.0500	0	1	1.603	50	0	0
82	1	70	9	2	2	0.0861	0.0500	1	1	0.623	0	82	0
82	1	71	0	1	1	0.0861	0.0500	1	1	0.604	7	82	0
82	1	72	1	2	3	0.0861	0.0500	0	1	0.636	71	0	0
82	1	73	1	1	1	0.0861	0.0500	0	1	0.496	85	0	0
82	1	74	9	1	1	0.0861	0.0500	1	1	0.785	0	82	0
82	1	75	1	1	3	0.0861	0.0500	0	1	0.638	71	0	0
82	1	76	9	2	3	0.0861	0.0500	0	1	0.601	0	82	82
82	1	77	9	2	1	0.0861	0.0500	1	1	1.377	0	0	82
82	1	78	1	1	1	0.0861	0.0500	1	1	0.594	76	0	82
82	1	79	1	1	1	0.0861	0.0500	1	1	0.437	91	0	82
82	1	80	1	1	3	0.0861	0.0500	1	1	0.705	65	0	82
82	1	81	0	2	2	0.0861	0.0500	0	1	0.596	8	82	82
82	1	82	1	2	2	0.0861	0.0500	0	1	0.506	84	0	0
82	1	83	0	2	2	0.0861	0.0500	1	1	1.000	5	0	82
82	1	84	1	2	2	0.0861	0.0500	0	1	0.589	76	0	0
82	1	85	1	1	1	0.0861	0.0500	1	1	0.535	81	0	82
82	1	86	0	2	3	0.0861	0.0500	1	1	1.367	5	0	82
82	1	87	1	2	3	0.0861	0.0500	1	1	0.867	50	82	0
82	1	88	9	1	1	0.0861	0.0500	0	1	0.570	0	0	0
82	1	89	9	1	1	0.0861	0.0500	0	1	0.458	0	82	82
82	1	90	1	2	1	0.0861	0.0500	1	1	1.177	50	82	0
82	1	91	0	2	3	0.0861	0.0500	1	1	1.136	5	0	82
82	1	92	1	2	3	0.0861	0.0500	0	1	0.638	71	0	0
82	1	93	0	2	2	0.0861	0.0500	1	1	1.035	5	0	82
82	1	94	0	1	3	0.0861	0.0500	0	1	0.886	5	82	82
82	1	95	1	1	3	0.0861	0.0500	0	1	0.653	70	0	0
82	1	96	0	2	3	0.0861	0.0500	0	1	0.824	5	82	82
82	1	97	0	1	3	0.0861	0.0500	0	1	0.534	8	82	82
82	1	98	0	1	3	0.0861	0.0500	1	1	0.664	7	82	0
82	1	99	0	1	3	0.0861	0.0500	0	1	1.018	5	82	82
82	1	100	1	1	1	0.0861	0.0500	1	1	0.657	69	0	82
82	1	101	1	2	3	0.0861	0.0500	1	1	0.564	79	82	0
82	1	102	1	1	1	0.0861	0.0500	1	1	0.494	86	0	82
82	1	103	0	1	2	0.0861	0.0500	1	0	0.692	0	82	0
82	1	104	9	1	3	0.0861	0.0500	0	0	0.784	0	82	82
82	1	105	9	1	2	0.0861	0.0500	1	1	1.106	0	0	82
82	1	106	1	2	3	0.0861	0.0500	1	1	0.693	66	82	0
82	1	107	1	1	3	0.0861	0.0500	1	1	0.500	85	0	82
82	1	108	0	2	2	0.0861	0.0500	1	1	1.094	5	0	82
82	1	109	1	1	3	0.0861	0.0500	1	1	0.719	63	0	82
82	1	110	9	2	3	0.0861	0.0500	1	1	0.592	0	82	0
82	1	111	0	2	2	0.0861	0.0500	0	1	1.207	5	82	82
82	1	112	0	1	1	0.0861	0.0500	1	1	1.240	5	82	0
82	1	113	1	2	3	0.0861	0.0500	0	1	0.841	51	0	0
82	1	114	1	2	3	0.0861	0.0500	1	1	0.594	76	82	0
82	1	115	1	1	2	0.0861	0.0500	0	1	0.737	61	0	0
82	1	116	1	1	2	0.0861	0.0500	0	0	0.746	0	0	0
82	1	117	1	2	3	0.0861	0.0500	0	1	0.633	72	0	0
82	1	118	0	1	3	0.0861	0.0500	0	0	0.844	0	82	82
82	1	119	1	2	2	0.0861	0.0500	0	1	0.666	68	0	0
82	1	120	9	2	1	0.0861	0.0500	0	1	0.673	0	82	82
82	1	121	0	1	1	0.0861	0.0500	1	1	0.736	6	82	0
82	1	122	1	2	2	0.0861	0.0500	1	1	0.699	65	82	0
82	1	123	0	2	1	0.0861	0.0500	1	0	0.710	0	0	82
82	1	124	9	1	1	0.0861	0.0500	0	1	0.475	0	0	0
82	1	125	0	2	2	0.0861	0.0500	1	1	0.964	5	0	82
82	1	126	0	1	1	0.0861	0.0500	0	1	0.529	8	82	82
82	1	127	1	2	2	0.0861	0.0500	0	1	0.769	58	0	0
82	1	128	9	2	2	0.0861	0.0500	0	1	0.445	0	0	0
82	1	129	0	1	1	0.0861	0.0500	1	1	0.637	7	82	0
82	1	130	0	2	2	0.0861	0.0500	0	1	0.511	8	82	82
82	1	131	1	1	1	0.0861	0.0500	0	1	0.611	74	0	0
82	1	132	1	2	2	0.0861	0.0500	1	1	0.643	71	82	0
82	1	133	9	2	2	0.0861	0.0500	1	1	0.960	0	0	82
82	1	134	1	1	2	0.0861	0.0500	0	0	0.636	0	0	0
82	1	135	1	2	2	0.0861	0.0500	1	1	0.563	79	82	0
82	1	136	1	2	2	0.0861	0.0500	0	0	0.669	0	0	0
82	1	137	1	1	3	0.0861	0.0500	0	1	0.703	65	0	0
82	1	138	1	2	2	0.0861	0.0500	1	1	0.605	74	82	0
82	1	139	1	2	3	0.0861	0.0500	0	1	0.557	79	0	0
82	1	140	0	1	1	0.0861	0.0500	1	1	1.345	5	82	0
82	1	141	0	1	3	0.0861	0.0500	1	1	0.964	5	82	0
82	1	142	1	2	1	0.0861	0.0500	1	1	0.641	71	82	0
82	1	143	9	1	1	0.0861	0.0500	1	1	0.468	0	0	82
82	1	144	1	1	1	0.0861	0.0500	0	1	0.534	82	0	0
82	1	145	9	2	2	0.0861	0.0500	0	1	0.558	0	82	82
82	1	146	9	1	1	0.0861	0.0500	1	1	0.512	0	0	82
82	1	147	0	1	3	0.0861	0.0500	0	1	0.641	7	82	82
82	1	148	1	1	3	0.0861	0.0500	1	1	0.649	70	0	82
82	1	149	9	1	1	0.0861	0.0500	0	1	0.428	0	82	82
82	1	150	1	1	3	0.0861	0.0500	1	0	0.607	0	0	82
82	1	151	9	2	1	0.0861	0.0500	0	0	1.189	0	0	0
82	1	152	0	1	1	0.0861	0.0500	1	1	0.922	5	82	0
82	1	153	1	1	1	0.0861	0.0500	0	1	0.771	58	0	0
82	1	154	9	2	2	0.0861	0.0500	1	1	1.191	0	0	82
82	1	155	0	1	2	0.0861	0.0500	0	1	0.709	6	82	82
82	1	156	9	1	1	0.0861	0.0500	1	0	0.821	0	82	0
82	1	157	0	2	3	0.0861	0.0500	0	1	0.615	7	82	82
82	1	158	0	1	1	0.0861	0.0500	1	1	0.688	7	82	0
82	1	159	1	2	2	0.0861	0.0500	0	1	0.608	74	0	0
82	1	160	0	2	3	0.0861	0.0500	1	0	0.743	0	0	82
82	1	161	1	1	2	0.0861	0.0500	1	1	0.560	79	0	82
82	1	162	1	2	2	0.0861	0.0500	0	1	0.473	88	0	0
82	1	163	0	2	3	0.0861	0.0500	0	1	0.558	8	82	82
82	1	164	9	1	2	0.0861	0.0500	0	1	0.554	0	82	82
82	1	165	1	1	3	0.0861	0.0500	1	1	0.485	86	0	82
82	1	166	0	1	3	0.0861	0.0500	0	0	0.765	0	82	82
82	1	167	0	2	3	0.0861	0.0500	1	1	0.905	5	0	82
82	1	168	0	2	2	0.0861	0.0500	1	1	0.857	5	0	82
82	1	169	0	2	3	0.0861	0.0500	1	1	1.089	5	0	82
82	1	170	0	1	2	0.0861	0.0500	0	1	1.075	5	82	82
82	1	171	1	2	3	0.0861	0.0500	0	0	1.178	0	0	0
82	1	172	1	1	3	0.0861	0.0500	0	1	0.820	53	0	0
82	1	173	1	2	2	0.0861	0.0500	1	1	0.603	75	82	0
82	1	174	0	1	1	0.0861	0.0500	0	1	0.398	10	82	82
82	1	175	0	1	3	0.0861	0.0500	1	1	0.366	10	82	0
82	1	176	1	2	3	0.0861	0.0500	0	1	0.745	61	0	0
82	1	177	0	2	2	0.0861	0.0500	1	0	0.613	0	0	82
82	1	178	0	2	3	0.0861	0.0500	0	1	0.844	5	82	82
82	1	179	1	1	1	0.0861	0.0500	1	1	0.488	86	0	82
82	1	180	0	1	1	0.0861	0.0500	0	1	0.484	9	82	82
82	1	181	0	1	3	0.0861	0.0500	1	1	0.604	7	82	0
82	1	182	9	2	3	0.0861	0.0500	0	0	0.921	0	0	0
82	1	183	0	2	2	0.0861	0.0500	0	1	0.499	9	82	82
82	1	184	0	2	2	0.0861	0.0500	1	0	1.610	0	0	82
82	1	185	1	1	3	0.0861	0.0500	1	1	0.551	80	0	82
82	1	186	9	1	3	0.0861	0.0500	1	0	0.468	0	82	0
82	1	187	9	2	3	0.0861	0.0500	1	1	0.530	0	82	0
82	1	188	0	2	2	0.0861	0.0500	0	1	0.574	8	82	82
82	1	189	9	2	3	0.0861	0.0500	1	1	1.287	0	0	82
82	1	190	0	2	2	0.0861	0.0500	0	1	0.516	8	82	82
82	1	191	0	2	2	0.0861	0.0500	0	1	0.428	9	82	82
82	1	192	1	1	1	0.0861	0.0500	0	1	0.455	89	0	0
82	1	193	1	2	3	0.0861	0.0500	0	1	0.797	55	0	0
82	1	194	1	1	3	0.0861	0.0500	1	1	0.693	66	0	82
82	1	195	0	1	1	0.0861	0.0500	0	1	0.468	9	82	82
82	1	196	1	1	3	0.0861	0.0500	1	1	0.584	77	0	82
82	1	197	1	2	3	0.0861	0.0500	1	1	0.786	56	82	0
82	1	198	0	2	3	0.0861	0.0500	0	0	0.851	0	82	82
82	1	199	1	2	3	0.0861	0.0500	1	1	0.601	75	82	0
82	1	200	0	2	3	0.0861	0.0500	1	0	1.160	0	0	82
82	1	201	0	1	3	0.0861	0.0500	1	1	1.233	5	82	0
82	1	202	1	2	3	0.0861	0.0500	1	1	0.591	76	82	0
82	1	203	1	1	1	0.0861	0.0500	1	1	0.446	90	0	82
82	1	204	0	2	3	0.0861	0.0500	0	1	0.578	8	82	82
82	1	205	9	2	3	0.0861	0.0500	1	0	0.696	0	0	82
82	1	206	0	1	3	0.0861	0.0500	1	0	1.097	0	82	0
82	1	207	9	2	3	0.0861	0.0500	1	1	0.576	0	82	0
82	1	208	1	2	3	0.0861	0.0500	0	1	0.594	76	0	0
82	1	209	9	1	1	0.0861	0.0500	1	1	1.084	0	82	0
82	1	210	0	1	1	0.0861	0.0500	1	1	0.829	5	82	0
82	1	211	0	2	1	0.0861	0.0500	0	1	0.596	8	82	82
82	1	212	9	2	3	0.0861	0.0500	0	0	0.964	0	0	0
82	1	213	1	1	1	0.0861	0.0500	1	1	0.503	85	0	82
82	1	214	0	2	2	0.0861	0.0500	0	1	0.869	5	82	82
82	1	215	0	1	3	0.0861	0.0500	1	0	0.821	0	82	0
82	1	216	0	1	2	0.0861	0.0500	1	0	0.536	0	82	0
82	1	217	1	1	1	0.0861	0.0500	1	1	0.493	86	0	82
82	1	218	1	2	2	0.0861	0.0500	0	1	0.490	86	0	0
82	1	219	9	1	1	0.0861	0.0500	0	1	0.482	0	82	82
82	1	220	1	2	2	0.0861	0.0500	0	1	0.494	86	0	0
82	1	221	0	2	3	0.0861	0.0500	1	0	0.573	0	0	82
82	1	222	1	2	2	0.0861	0.0500	0	1	0.450	90	0	0
82	1	223	9	2	2	0.0861	0.0500	1	1	0.474	0	82	0
82	1	224	9	1	2	0.0861	0.0500	0	1	0.928	0	0	0
82	1	225	1	2	3	0.0861	0.0500	0	1	0.557	79	0	0
82	1	226	9	2	2	0.0861	0.0500	1	1	0.485	0	82	0
82	1	227	1	1	1	0.0861	0.0500	0	1	0.614	74	0	0
82	1	228	1	2	2	0.0861	0.0500	0	1	0.526	82	0	0
82	1	229	1	1	1	0.0861	0.0500	1	1	0.577	77	0	82
82	1	230	0	1	1	0.0861	0.0500	1	1	0.983	5	82	0
82	1	231	0	1	1	0.0861	0.0500	1	1	0.515	8	82	0
82	1	232	1	1	3	0.0861	0.0500	1	1	0.612	74	0	82
82	1	233	1	2	2	0.0861	0.0500	0	0	1.749	0	0	0
82	1	234	9	1	1	0.0861	0.0500	0	1	0.548	0	0	0
82	1	235	1	2	2	0.0861	0.0500	1	1	0.516	83	82	0
82	1	236	1	1	3	0.0861	0.0500	0	1	0.519	83	0	0
82	1	237	0	1	3	0.0861	0.0500	0	1	0.515	8	82	82
82	1	238	1	1	1	0.0861	0.0500	0	1	0.362	99	0	0
82	1	239	0	1	3	0.0861	0.0500	0	1	0.462	9	82	82
82	1	240	9	1	3	0.0861	0.0500	1	0	1.171	0	82	0
82	1	241	1	2	1	0.0861	0.0500	0	1	0.840	51	0	0
82	1	242	1	1	3	0.0861	0.0500	0	1	0.502	85	0	0
82	1	243	1	2	3	0.0861	0.0500	0	1	0.854	50	0	0
82	1	244	0	2	3	0.0861	0.0500	0	1	0.543	8	82	82
82	1	245	1	2	1	0.0861	0.0500	0	1	0.631	72	0	0
82	1	246	1	2	3	0.0861	0.0500	1	1	0.726	62	82	0
82	1	247	0	2	3	0.0861	0.0500	0	1	0.597	8	82	82
82	1	248	0	2	1	0.0861	0.0500	1	1	0.482	9	0	82
82	1	249	0	2	2	0.0861	0.0500	0	1	0.580	8	82	82
82	1	250	1	2	3	0.0861	0.0500	0	1	0.483	87	0	0
82	1	251	1	2	3	0.0861	0.0500	1	1	0.466	88	82	0
82	1	252	0	2	1	0.0861	0.0500	0	1	0.559	8	82	82
82	1	253	1	2	3	0.0861	0.0500	1	0	0.457	0	82	0
82	1	254	1	1	1	0.0861	0.0500	1	1	0.555	80	0	82
82	1	255	0	1	1	0.0861	0.0500	0	1	0.861	5	82	82
82	1	256	0	2	3	0.0861	0.0500	0	1	1.710	5	82	82
82	1	257	9	1	3	0.0861	0.0500	1	1	0.559	0	0	82
82	1	258	9	1	3	0.0861	0.0500	0	1	0.460	0	0	0
82	1	259	9	2	3	0.0861	0.0500	1	0	0.588	0	0	82
82	1	260	0	2	3	0.0861	0.0500	1	0	0.497	0	0	82
82	1	261	0	1	1	0.0861	0.0500	0	1	0.572	8	82	82
82	1	262	0	1	3	0.0861	0.0500	1	0	0.587	0	82	0
82	1	263	0	2	2	0.0861	0.0500	1	1	0.931	5	0	82
82	1	264	0	1	3	0.0861	0.0500	0	1	0.483	9	82	82
82	1	265	9	1	3	0.0861	0.0500	1	1	0.657	0	0	82
82	1	266	9	1	3	0.0861	0.0500	1	0	0.701	0	82	0
82	1	267	0	1	3	0.0861	0.0500	1	1	0.463	9	82	0
82	1	268	1	1	1	0.0861	0.0500	0	1	0.489	86	0	0
82	1	269	0	2	2	0.0861	0.0500	0	1	0.541	8	82	82
82	1	270	0	1	3	0.0861	0.0500	0	1	0.478	9	82	82
82	1	271	0	1	1	0.0861	0.0500	1	1	0.763	6	82	0
82	1	272	1	2	2	0.0861	0.0500	1	1	0.578	77	82	0
82	1	273	0	1	1	0.0861	0.0500	1	1	1.114	5	82	0
82	1	274	1	2	2	0.0861	0.0500	1	1	0.492	86	82	0
82	1	275	0	2	3	0.0861	0.0500	1	1	0.942	5	0	82
82	1	276	9	2	2	0.0861	0.0500	0	1	0.524	0	0	0
82	1	277	9	2	3	0.0861	0.0500	0	1	0.720	0	0	0
82	1	278	0	1	1	0.0861	0.0500	0	1	0.509	8	82	82
82	1	279	0	2	3	0.0861	0.0500	1	1	1.420	5	0	82
82	1	280	1	1	1	0.0861	0.0500	1	1	0.537	81	0	82
82	1	281	0	1	1	0.0861	0.0500	1	1	0.697	7	82	0
82	1	282	0	1	1	0.0861	0.0500	1	1	0.529	8	82	0
82	1	283	0	1	2	0.0861	0.0500	1	1	1.066	5	82	0
82	1	284	1	1	3	0.0861	0.0500	0	1	0.614	74	0	0
82	1	285	9	2	3	0.0861	0.0500	1	0	0.910	0	82	0
82	1	286	1	2	2	0.0861	0.0500	1	1	0.514	84	82	0
82	1	287	9	2	3	0.0861	0.0500	0	1	0.530	0	0	0
82	1	288	1	2	3	0.0861	0.0500	1	1	0.409	94	82	0
82	1	289	0	1	1	0.0861	0.0500	0	0	0.770	0	82	82
82	1	290	1	1	3	0.0861	0.0500	0	1	0.497	85	0	0
82	1	291	9	1	3	0.0861	0.0500	0	1	0.428	0	0	0
82	1	292	1	2	2	0.0861	0.0500	1	1	0.492	86	82	0
82	1	293	9	2	2	0.0861	0.0500	1	1	0.760	0	0	82
82	1	294	1	1	1	0.0861	0.0500	1	1	0.574	78	0	82
82	1	295	0	2	2	0.0861	0.0500	0	1	0.643	7	82	82
82	1	296	1	1	1	0.0861	0.0500	0	1	0.437	91	0	0
82	1	297	9	1	1	0.0861	0.0500	1	1	0.530	0	0	82
82	1	298	0	1	3	0.0861	0.0500	1	0	0.903	0	82	0
82	1	299	0	2	2	0.0861	0.0500	1	0	1.041	0	0	82
82	1	300	9	1	1	0.0861	0.0500	1	1	0.501	0	0	82
82	1	301	9	1	3	0.0861	0.0500	1	1	1.127	0	82	0
82	1	302	0	2	2	0.0861	0.0500	0	1	0.523	8	82	82
82	1	303	9	2	3	0.0861	0.0500	1	1	0.973	0	0	82
82	1	304	1	1	1	0.0861	0.0500	0	1	0.411	94	0	0
82	1	305	0	1	1	0.0861	0.0500	0	1	0.433	9	82	82
82	1	306	1	2	3	0.0861	0.0500	1	1	0.435	91	82	0
82	1	307	9	1	2	0.0861	0.0500	1	1	1.410	0	82	0
82	1	308	9	1	1	0.0861	0.0500	0	1	0.445	0	82	82
82	1	309	0	1	1	0.0861	0.0500	0	0	1.714	0	82	82
82	1	310	0	1	1	0.0861	0.0500	0	1	0.423	9	82	82
82	1	311	1	1	1	0.0861	0.0500	1	1	0.641	71	0	82
82	1	312	1	2	3	0.0861	0.0500	0	1	0.425	93	0	0
82	1	313	1	1	3	0.0861	0.0500	0	1	1.609	50	0	0
82	1	314	0	1	1	0.0861	0.0500	1	0	1.777	0	82	0
82	1	315	0	2	3	0.0861	0.0500	0	1	0.819	5	82	82
82	1	316	9	2	2	0.0861	0.0500	0	1	0.506	0	82	82
82	1	317	0	1	3	0.0861	0.0500	1	1	1.110	5	82	0
82	1	318	0	2	2	0.0861	0.0500	1	0	0.898	0	0	82
82	1	319	9	2	3	0.0861	0.0500	0	1	0.625	0	82	82
82	1	320	1	2	2	0.0861	0.0500	1	1	0.554	80	82	0
82	1	321	1	1	3	0.0861	0.0500	0	1	0.441	91	0	0
82	1	322	1	2	3	0.0861	0.0500	1	1	0.383	97	82	0
82	1	323	0	2	3	0.0861	0.0500	1	1	1.145	5	0	82
82	1	324	0	2	3	0.0861	0.0500	1	0	0.423	0	0	82
82	1	325	1	1	3	0.0861	0.0500	0	1	0.435	92	0	0
82	1	326	1	1	3	0.0861	0.0500	0	1	0.486	86	0	0
82	1	327	0	1	3	0.0861	0.0500	1	1	0.586	8	82	0
82	1	328	0	2	3	0.0861	0.0500	0	1	0.772	6	82	82
82	1	329	0	1	1	0.0861	0.0500	1	1	1.218	5	82	0
82	1	330	0	1	2	0.0861	0.0500	0	1	0.911	5	82	82
82	1	331	0	2	2	0.0861	0.0500	0	0	0.747	0	82	82
82	1	332	0	1	1	0.0861	0.0500	0	1	0.472	9	82	82
82	1	333	1	2	1	0.0861	0.0500	0	1	0.759	59	0	0
82	1	334	0	2	1	0.0861	0.0500	0	1	1.002	5	82	82
82	1	335	1	1	2	0.0861	0.0500	1	1	0.608	74	0	82
82	1	336	1	1	3	0.0861	0.0500	1	1	0.503	85	0	82
82	1	337	0	2	2	0.0861	0.0500	1	1	1.095	5	0	82
82	1	338	0	1	3	0.0861	0.0500	1	1	0.639	7	82	0
82	1	339	9	1	3	0.0861	0.0500	0	0	0.692	0	0	0
82	1	340	0	2	1	0.0861	0.0500	1	1	0.852	5	0	82
82	1	341	1	2	3	0.0861	0.0500	0	1	0.649	70	0	0
82	1	342	9	2	3	0.0861	0.0500	0	1	0.534	0	82	82
82	1	343	1	1	3	0.0861	0.0500	1	1	0.407	94	0	82
82	1	344	1	2	1	0.0861	0.0500	1	1	0.555	80	82	0
82	1	345	0	1	3	0.0861	0.0500	1	1	1.228	5	82	0
82	1	346	0	2	2	0.0861	0.0500	0	1	0.617	7	82	82
82	1	347	1	1	3	0.0861	0.0500	0	0	0.639	0	0	0
82	1	348	1	2	2	0.0861	0.0500	1	1	0.565	79	82	0
82	1	349	1	2	2	0.0861	0.0500	1	1	0.448	90	82	0
82	1	350	1	1	3	0.0861	0.0500	0	1	0.668	68	0	0
82	1	351	1	2	2	0.0861	0.0500	0	1	0.459	89	0	0
82	1	352	0	2	3	0.0861	0.0500	1	1	0.828	5	0	82
82	1	353	0	1	3	0.0861	0.0500	0	1	0.919	5	82	82
82	1	354	9	2	2	0.0861	0.0500	1	1	0.437	0	82	0
82	1	355	0	2	1	0.0861	0.0500	0	0	0.685	0	82	82
82	1	356	1	1	3	0.0861	0.0500	1	1	0.593	76	0	82
82	1	357	1	1	2	0.0861	0.0500	1	1	0.559	79	0	82
82	1	358	9	1	3	0.0861	0.0500	0	1	0.916	0	82	82
82	1	359	9	2	3	0.0861	0.0500	0	1	0.985	0	82	82
82	1	360	0	1	3	0.0861	0.0500	0	0	0.947	0	82	82
82	1	361	1	1	1	0.0861	0.0500	0	1	0.391	96	0	0
82	1	362	1	1	1	0.0861	0.0500	1	1	0.440	91	0	82
82	1	363	9	1	3	0.0861	0.0500	1	1	0.447	0	0	82
82	1	364	1	2	2	0.0861	0.0500	1	1	0.438	91	82	0
82	1	365	0	2	2	0.0861	0.0500	1	1	0.630	7	0	82
82	1	366	1	2	1	0.0861	0.0500	0	1	0.730	62	0	0
82	1	367	1	2	2	0.0861	0.0500	1	1	0.463	89	82	0
82	1	368	9	1	2	0.0861	0.0500	1	1	0.538	0	0	82
82	1	369	1	1	1	0.0861	0.0500	0	1	0.462	89	0	0
82	1	370	0	1	1	0.0861	0.0500	0	1	0.574	8	82	82
82	1	371	0	2	3	0.0861	0.0500	0	1	0.688	7	82	82
82	1	372	1	2	3	0.0861	0.0500	0	1	0.545	81	0	0
82	1	373	0	1	1	0.0861	0.0500	1	1	0.656	7	82	0
82	1	374	1	2	3	0.0861	0.0500	0	1	0.558	79	0	0
82	1	375	1	1	3	0.0861	0.0500	0	1	0.439	91	0	0
82	1	376	1	1	2	0.0861	0.0500	1	1	0.589	76	0	82
82	1	377	9	1	1	0.0861	0.0500	1	1	0.386	0	0	82
82	1	378	1	1	3	0.0861	0.0500	1	1	0.396	95	0	82
82	1	379	0	2	2	0.0861	0.0500	1	0	0.811	0	0	82
82	1	380	1	1	3	0.0861	0.0500	0	1	0.559	79	0	0
82	1	381	0	1	3	0.0861	0.0500	0	1	0.675	7	82	82
82	1	382	1	2	1	0.0861	0.0500	1	0	1.062	0	82	0
82	1	383	1	1	3	0.0861	0.0500	1	1	0.625	72	0	82
82	1	384	1	2	3	0.0861	0.0500	0	0	0.715	0	0	0
82	1	385	9	1	1	0.0861	0.0500	0	1	0.472	0	82	82
82	1	386	1	1	3	0.0861	0.0500	1	1	0.870	50	0	82
82	1	387	0	1	1	0.0861	0.0500	0	1	0.463	9	82	82
82	1	388	0	1	1	0.0861	0.0500	0	1	0.430	9	82	82
82	1	389	9	1	2	0.0861	0.0500	0	1	0.546	0	0	0
82	1	390	1	1	2	0.0861	0.0500	0	1	0.485	87	0	0
82	1	391	9	1	3	0.0861	0.0500	1	1	0.572	0	0	82
82	1	392	1	2	3	0.0861	0.0500	0	1	0.572	78	0	0
82	1	393	1	2	1	0.0861	0.0500	0	1	0.545	81	0	0
82	1	394	1	1	2	0.0861	0.0500	1	1	0.669	68	0	82
82	1	395	0	2	3	0.0861	0.0500	1	1	0.668	7	0	82
82	1	396	0	2	2	0.0861	0.0500	0	1	0.898	5	82	82
82	1	397	1	2	1	0.0861	0.0500	0	1	0.492	86	0	0
82	1	398	1	2	3	0.0861	0.0500	1	0	0.583	0	82	0
82	1	399	1	1	3	0.0861	0.0500	0	0	0.671	0	0	0
82	1	400	0	1	1	0.0861	0.0500	1	1	1.280	5	82	0
82	1	401	0	2	3	0.0861	0.0500	0	1	0.502	8	82	82
82	1	402	9	2	2	0.0861	0.0500	0	1	0.490	0	0	0
82	1	403	1	1	1	0.0861	0.0500	0	1	0.385	96	0	0
82	1	404	1	2	2	0.0861	0.0500	0	1	0.454	90	0	0
82	1	405	0	2	2	0.0861	0.0500	0	1	0.416	9	82	82
82	1	406	0	1	3	0.0861	0.0500	0	0	0.603	0	82	82
82	1	407	1	2	2	0.0861	0.0500	1	1	0.520	83	82	0
82	1	408	1	1	1	0.0861	0.0500	1	1	0.478	87	0	82
82	1	409	0	2	3	0.0861	0.0500	0	1	0.539	8	82	82
82	1	410	1	2	3	0.0861	0.0500	1	1	0.568	78	82	0
82	1	411	0	1	1	0.0861	0.0500	1	1	0.457	9	82	0
82	1	412	0	2	2	0.0861	0.0500	1	1	1.021	5	0	82
82	1	413	9	1	3	0.0861	0.0500	1	1	0.553	0	0	82
82	1	414	1	1	3	0.0861	0.0500	0	0	0.639	0	0	0
82	1	415	0	1	3	0.0861	0.0500	0	1	0.568	8	82	82
82	1	416	0	1	3	0.0861	0.0500	1	1	0.565	8	82	0
82	1	417	9	1	1	0.0861	0.0500	0	1	0.694	0	82	82
82	1	418	1	2	2	0.0861	0.0500	1	1	0.551	80	82	0
82	1	419	1	1	1	0.0861	0.0500	0	1	0.546	80	0	0
82	1	420	0	1	1	0.0861	0.0500	1	1	0.528	8	82	0
82	1	421	9	1	1	0.0861	0.0500	1	1	0.524	0	0	82
82	1	422	9	2	2	0.0861	0.0500	0	1	0.534	0	82	82
82	1	423	1	1	3	0.0861	0.0500	0	0	0.509	0	0	0
82	1	424	1	2	2	0.0861	0.0500	0	1	0.557	79	0	0
82	1	425	1	1	1	0.0861	0.0500	0	1	0.413	94	0	0
82	1	426	0	1	1	0.0861	0.0500	1	1	0.488	9	82	0
82	1	427	9	1	3	0.0861	0.0500	1	1	0.685	0	82	0
82	1	428	0	2	3	0.0861	0.0500	0	1	0.508	8	82	82
82	1	429	0	1	2	0.0861	0.0500	1	1	0.505	8	82	0
82	1	430	1	1	3	0.0861	0.0500	1	1	0.514	84	0	82
82	1	431	1	1	1	0.0861	0.0500	1	1	0.431	92	0	82
82	1	432	9	2	1	0.0861	0.0500	1	1	0.573	0	82	0
82	1	433	0	1	1	0.0861	0.0500	0	1	1.075	5	82	82
82	1	434	1	2	3	0.0861	0.0500	0	1	0.635	71	0	0
82	1	435	1	2	2	0.0861	0.0500	0	1	0.480	87	0	0
82	1	436	9	2	2	0.0861	0.0500	0	1	0.430	0	0	0
82	1	437	0	1	1	0.0861	0.0500	0	1	0.391	10	82	82
82	1	438	1	1	1	0.0861	0.0500	0	1	0.418	93	0	0
82	1	439	1	1	1	0.0861	0.0500	0	1	0.397	95	0	0
82	1	440	1	2	3	0.0861	0.0500	0	1	0.404	95	0	0
82	1	441	9	2	2	0.0861	0.0500	0	1	0.438	0	0	0
82	1	442	9	2	3	0.0861	0.0500	1	1	0.961	0	0	82
82	1	443	1	2	3	0.0861	0.0500	1	1	0.537	81	82	0
82	1	444	0	1	1	0.0861	0.0500	0	1	0.883	5	82	82
82	1	445	1	2	3	0.0861	0.0500	1	1	0.440	91	82	0
82	1	446	0	1	2	0.0861	0.0500	1	1	0.368	10	82	0
82	1	447	0	2	1	0.0861	0.0500	1	0	0.376	0	0	82
82	1	448	1	1	1	0.0861	0.0500	0	1	0.411	94	0	0
82	1	449	0	1	1	0.0861	0.0500	0	1	0.680	7	82	82
82	1	450	0	1	1	0.0861	0.0500	0	1	0.352	10	82	82
82	1	451	0	1	1	0.0861	0.0500	1	0	0.404	0	82	0
82	1	452	1	1	2	0.0861	0.0500	0	0	0.364	0	0	0
82	1	453	0	2	2	0.0861	0.0500	0	1	2.001	5	82	82
82	1	454	0	2	2	0.0861	0.0500	1	0	0.625	0	0	82
82	1	455	1	2	3	0.0861	0.0500	1	1	0.497	85	82	0
82	1	456	9	2	3	0.0861	0.0500	0	1	0.560	0	82	82
82	1	457	0	2	2	0.0861	0.0500	1	1	1.355	5	0	82
82	1	458	0	1	1	0.0861	0.0500	1	1	0.702	6	82	0
82	1	459	0	2	2	0.0861	0.0500	1	1	0.616	7	0	82
82	1	460	0	2	1	0.0861	0.0500	0	0	0.673	0	82	82
82	1	461	0	2	3	0.0861	0.0500	1	1	0.722	6	0	82
82	1	462	1	2	2	0.0861	0.0500	0	1	0.464	89	0	0
82	1	463	0	1	1	0.0861	0.0500	0	1	0.463	9	82	82
82	1	464	1	2	3	0.0861	0.0500	1	0	0.504	0	82	0
82	1	465	1	2	3	0.0861	0.0500	1	1	0.477	87	82	0
82	1	466	1	2	3	0.0861	0.0500	1	1	0.487	86	82	0
82	1	467	1	1	3	0.0861	0.0500	0	0	0.805	0	0	0
82	1	468	1	2	3	0.0861	0.0500	1	1	0.487	86	82	0
82	1	469	0	1	3	0.0861	0.0500	0	1	0.767	6	82	82
82	1	470	0	2	3	0.0861	0.0500	1	1	1.041	5	0	82
82	1	471	1	2	2	0.0861	0.0500	1	1	0.456	89	82	0
82	1	472	0	2	2	0.0861	0.0500	1	0	0.495	0	0	82
82	1	473	9	1	3	0.0861	0.0500	0	0	0.819	0	0	0
82	1	474	0	1	1	0.0861	0.0500	0	1	1.167	5	82	82
82	1	475	9	2	3	0.0861	0.0500	0	1	0.496	0	82	82
82	1	476	0	1	1	0.0861	0.0500	0	1	0.645	7	82	82
82	1	477	0	2	2	0.0861	0.0500	1	1	1.123	5	0	82
82	1	478	1	1	1	0.0861	0.0500	0	1	0.500	85	0	0
82	1	479	0	2	1	0.0861	0.0500	0	1	0.528	8	82	82
82	1	480	1	2	3	0.0861	0.0500	0	1	1.480	50	0	0
82	1	481	1	1	3	0.0861	0.0500	1	1	0.455	89	0	82
82	1	482	1	1	1	0.0861	0.0500	1	1	0.425	92	0	82
82	1	483	0	2	3	0.0861	0.0500	0	1	0.446	9	82	82
82	1	484	1	2	3	0.0861	0.0500	0	1	0.499	85	0	0
82	1	485	0	2	3	0.0861	0.0500	0	1	0.434	9	82	82
82	1	486	1	1	2	0.0861	0.0500	1	1	0.411	94	0	82
82	1	487	1	2	3	0.0861	0.0500	0	1	0.384	97	0	0
82	1	488	9	2	1	0.0861	0.0500	0	1	0.510	0	0	0
82	1	489	0	2	2	0.0861	0.0500	0	1	0.553	8	82	82
82	1	490	0	2	3	0.0861	0.0500	0	1	0.668	7	82	82
82	1	491	9	1	1	0.0861	0.0500	0	1	0.418	0	82	82
82	1	492	1	1	1	0.0861	0.0500	1	0	0.575	0	0	82
82	1	493	0	2	3	0.0861	0.0500	1	1	0.903	5	0	82
82	1	494	0	2	2	0.0861	0.0500	0	1	0.860	5	82	82
82	1	495	9	2	1	0.0861	0.0500	1	0	0.713	0	0	82
82	1	496	1	1	3	0.0861	0.0500	1	1	0.631	72	0	82
82	1	497	1	1	3	0.0861	0.0500	1	1	0.576	77	0	82
82	1	498	1	2	2	0.0861	0.0500	1	1	0.555	80	82	0
82	1	499	0	1	3	0.0861	0.0500	1	1	0.544	8	82	0
82	1	500	0	2	3	0.0861	0.0500	1	1	0.571	8	0	82
82	1	501	0	1	2	0.0861	0.0500	0	0	0.546	0	82	82
82	1	502	9	2	3	0.0861	0.0500	1	1	0.575	0	82	0
82	1	503	0	2	2	0.0861	0.0500	0	0	0.528	0	82	82
82	1	504	1	2	3	0.0861	0.0500	0	0	0.689	0	0	0
82	1	505	0	1	3	0.0861	0.0500	1	1	0.541	8	82	0
82	1	506	9	1	3	0.0861	0.0500	1	1	0.844	0	82	0
82	1	507	1	1	1	0.0861	0.0500	1	1	0.438	91	0	82
82	1	508	1	1	3	0.0861	0.0500	1	0	1.172	0	0	82
82	1	509	0	1	3	0.0861	0.0500	0	0	0.753	0	82	82
82	1	510	1	1	1	0.0861	0.0500	1	1	0.520	83	0	82
82	1	511	0	2	2	0.0861	0.0500	0	1	0.530	8	82	82
82	1	512	9	1	3	0.0861	0.0500	1	0	0.631	0	82	0
82	1	513	1	1	3	0.0861	0.0500	1	1	0.490	86	0	82
82	1	514	9	2	3	0.0861	0.0500	0	1	0.468	0	0	0
82	1	515	0	2	3	0.0861	0.0500	1	1	0.762	6	0	82
82	1	516	0	1	3	0.0861	0.0500	1	1	0.875	5	82	0
82	1	517	0	2	2	0.0861	0.0500	1	1	0.652	7	0	82
82	1	518	9	1	3	0.0861	0.0500	0	1	0.741	0	0	0
82	1	519	0	2	2	0.0861	0.0500	1	1	1.500	5	0	82
82	1	520	1	2	2	0.0861	0.0500	0	1	1.956	50	0	0
82	1	521	0	1	3	0.0861	0.0500	1	1	0.590	8	82	0
82	1	522	0	1	3	0.0861	0.0500	0	1	0.752	6	82	82
82	1	523	0	2	1	0.0861	0.0500	1	0	0.483	0	0	82
82	1	524	9	2	3	0.0861	0.0500	1	1	0.635	0	82	0
82	1	525	0	1	1	0.0861	0.0500	1	1	0.599	8	82	0
82	1	526	1	2	2	0.0861	0.0500	0	1	0.582	77	0	0
82	1	527	1	2	1	0.0861	0.0500	1	0	0.995	0	82	0
82	1	528	9	1	3	0.0861	0.0500	0	0	1.599	0	0	0
82	1	529	1	1	3	0.0861	0.0500	0	0	1.143	0	0	0
82	1	530	0	1	3	0.0861	0.0500	1	1	0.583	8	82	0
82	1	531	0	2	2	0.0861	0.0500	0	1	1.626	5	82	82
82	1	532	0	2	2	0.0861	0.0500	0	1	0.597	8	82	82
82	1	533	9	2	2	0.0861	0.0500	1	1	0.968	0	0	82
82	1	534	1	1	1	0.0861	0.0500	1	1	0.576	77	0	82
82	1	535	9	1	1	0.0861	0.0500	1	0	0.910	0	0	82
82	1	536	0	1	2	0.0861	0.0500	0	1	0.897	5	82	82
82	1	537	0	1	3	0.0861	0.0500	0	1	0.585	8	82	82
82	1	538	1	1	3	0.0861	0.0500	1	1	0.675	68	0	82
82	1	539	9	2	3	0.0861	0.0500	1	1	0.687	0	82	0
82	1	540	0	2	2	0.0861	0.0500	1	1	0.837	5	0	82
82	1	541	1	1	1	0.0861	0.0500	1	1	0.536	81	0	82
82	1	542	1	2	2	0.0861	0.0500	0	1	0.468	88	0	0
82	1	543	1	1	1	0.0861	0.0500	0	1	0.474	88	0	0
82	1	544	1	1	1	0.0861	0.0500	1	1	0.502	85	0	82
82	1	545	1	2	3	0.0861	0.0500	1	1	0.599	75	82	0
82	1	546	1	1	3	0.0861	0.0500	0	1	0.748	60	0	0
82	1	547	1	1	3	0.0861	0.0500	0	1	0.504	85	0	0
82	1	548	1	2	3	0.0861	0.0500	0	1	0.523	83	0	0
82	1	549	0	2	2	0.0861	0.0500	0	1	0.648	7	82	82
82	1	550	0	1	3	0.0861	0.0500	1	1	1.048	5	82	0
82	1	551	0	2	3	0.0861	0.0500	1	0	0.966	0	0	82
82	1	552	0	2	2	0.0861	0.0500	1	1	0.648	7	0	82
82	1	553	1	1	1	0.0861	0.0500	0	0	0.819	0	0	0
82	1	554	9	2	3	0.0861	0.0500	0	0	2.061	0	82	82
82	1	555	1	2	3	0.0861	0.0500	0	1	0.448	90	0	0
82	1	556	1	1	1	0.0861	0.0500	1	1	0.455	89	0	82
82	1	557	0	2	3	0.0861	0.0500	1	0	0.909	0	0	82
82	1	558	1	2	3	0.0861	0.0500	0	0	0.620	0	0	0
82	1	559	0	2	3	0.0861	0.0500	0	1	0.729	6	82	82
82	1	560	1	1	1	0.0861	0.0500	1	1	0.475	88	0	82
82	1	561	0	1	1	0.0861	0.0500	1	1	0.806	5	82	0
82	1	562	9	2	2	0.0861	0.0500	0	1	0.604	0	82	82
82	1	563	0	2	2	0.0861	0.0500	1	1	1.331	5	0	82
82	1	564	0	2	3	0.0861	0.0500	1	1	0.617	7	0	82
82	1	565	9	2	3	0.0861	0.0500	1	0	0.920	0	0	82
82	1	566	1	1	1	0.0861	0.0500	0	0	0.924	0	0	0
82	1	567	0	1	2	0.0861	0.0500	1	0	0.655	0	82	0
82	1	568	9	1	3	0.0861	0.0500	1	1	1.176	0	82	0
82	1	569	1	2	2	0.0861	0.0500	1	1	0.565	79	82	0
82	1	570	1	2	2	0.0861	0.0500	0	1	0.600	75	0	0
82	1	571	1	1	3	0.0861	0.0500	1	1	0.468	88	0	82
82	1	572	1	2	1	0.0861	0.0500	0	1	1.160	50	0	0
82	1	573	9	2	3	0.0861	0.0500	1	1	0.605	0	0	82
82	1	574	1	2	2	0.0861	0.0500	1	1	0.557	79	82	0
82	1	575	9	2	2	0.0861	0.0500	1	1	1.402	0	0	82
82	1	576	1	2	3	0.0861	0.0500	0	1	0.630	72	0	0
82	1	577	0	2	3	0.0861	0.0500	0	0	0.788	0	82	82
82	1	578	9	1	3	0.0861	0.0500	0	1	0.588	0	0	0
82	1	579	1	2	2	0.0861	0.0500	0	1	0.644	71	0	0
82	1	580	1	1	2	0.0861	0.0500	1	1	0.558	79	0	82
82	1	581	1	2	1	0.0861	0.0500	1	1	0.525	82	82	0
82	1	582	0	2	2	0.0861	0.0500	0	1	0.534	8	82	82
82	1	583	9	2	2	0.0861	0.0500	0	1	0.403	0	82	82
82	1	584	9	2	1	0.0861	0.0500	0	1	0.501	0	82	82
82	1	585	0	2	3	0.0861	0.0500	0	1	0.446	9	82	82
82	1	586	1	1	3	0.0861	0.0500	0	1	0.443	91	0	0
82	1	587	1	2	2	0.0861	0.0500	1	1	0.452	90	82	0
82	1	588	0	1	3	0.0861	0.0500	0	1	1.030	5	82	82
82	1	589	0	1	1	0.0861	0.0500	1	1	0.680	7	82	0
82	1	590	0	2	3	0.0861	0.0500	1	1	0.360	10	0	82
82	1	591	1	1	3	0.0861	0.0500	0	1	0.792	56	0	0
82	1	592	1	2	2	0.0861	0.0500	1	1	0.401	95	82	0
82	1	593	1	2	2	0.0861	0.0500	1	1	0.423	93	82	0
82	1	594	0	1	3	0.0861	0.0500	0	0	0.970	0	82	82
82	1	595	0	1	1	0.0861	0.0500	0	1	0.340	10	82	82
82	1	596	1	1	3	0.0861	0.0500	0	1	0.417	93	0	0
82	1	597	1	1	2	0.0861	0.0500	0	0	0.899	0	0	0
82	1	598	9	2	3	0.0861	0.0500	0	0	0.667	0	82	82
82	1	599	9	1	1	0.0861	0.0500	0	1	0.441	0	0	0
82	1	600	0	1	1	0.0861	0.0500	1	0	1.068	0	82	0
82	1	601	0	2	3	0.0861	0.0500	0	1	0.694	7	82	82
82	1	602	1	2	3	0.0861	0.0500	1	1	0.512	84	82	0
82	1	603	1	1	3	0.0861	0.0500	0	1	0.777	57	0	0
82	1	604	0	2	2	0.0861	0.0500	1	1	0.801	5	0	82
82	1	605	1	2	2	0.0861	0.0500	1	1	0.633	72	82	0
82	1	606	0	2	1	0.0861	0.0500	0	1	0.455	9	82	82
82	1	607	1	1	3	0.0861	0.0500	1	1	0.530	82	0	82
82	1	608	9	1	1	0.0861	0.0500	1	1	0.917	0	82	0
82	1	609	9	1	1	0.0861	0.0500	0	1	0.702	0	82	82
82	1	610	0	1	1	0.0861	0.0500	0	1	0.610	7	82	82
82	1	611	1	2	2	0.0861	0.0500	0	1	0.642	71	0	0
82	1	612	1	2	2	0.0861	0.0500	1	1	0.409	94	82	0
82	1	613	9	2	3	0.0861	0.0500	0	1	0.445	0	0	0
82	1	614	1	1	3	0.0861	0.0500	0	1	0.480	87	0	0
82	1	615	1	2	3	0.0861	0.0500	1	1	0.476	87	82	0
82	1	616	0	2	3	0.0861	0.0500	1	1	0.365	10	0	82
82	1	617	0	1	3	0.0861	0.0500	0	1	0.582	8	82	82
82	1	618	1	1	3	0.0861	0.0500	1	1	0.591	76	0	82
82	1	619	0	1	1	0.0861	0.0500	1	1	0.863	5	82	0
82	1	620	9	1	3	0.0861	0.0500	1	1	0.456	0	0	82
82	1	621	0	1	1	0.0861	0.0500	0	1	0.514	8	82	82
82	1	622	9	2	3	0.0861	0.0500	0	1	0.630	0	0	0
82	1	623	0	2	3	0.0861	0.0500	1	1	0.396	10	0	82
82	1	624	0	1	1	0.0861	0.0500	1	0	0.470	0	82	0
82	1	625	9	1	1	0.0861	0.0500	0	1	0.435	0	0	0
82	1	626	1	1	1	0.0861	0.0500	0	1	0.481	87	0	0
82	1	627	0	2	1	0.0861	0.0500	1	1	0.597	8	0	82
82	1	628	0	1	3	0.0861	0.0500	0	0	0.768	0	82	82
82	1	629	0	2	3	0.0861	0.0500	1	1	0.849	5	0	82
82	1	630	0	1	3	0.0861	0.0500	1	1	0.689	7	82	0
82	1	631	1	1	1	0.0861	0.0500	0	1	0.462	89	0	0
82	1	632	9	2	2	0.0861	0.0500	1	1	0.578	0	82	0
82	1	633	9	1	2	0.0861	0.0500	1	1	0.497	0	82	0
82	1	634	0	1	3	0.0861	0.0500	0	1	0.510	8	82	82
82	1	635	0	1	2	0.0861	0.0500	1	1	0.346	10	82	0
82	1	636	0	2	3	0.0861	0.0500	1	0	0.844	0	0	82
82	1	637	1	2	3	0.0861	0.0500	1	1	0.605	75	82	0
82	1	638	9	2	3	0.0861	0.0500	0	1	0.512	0	0	0
82	1	639	1	1	1	0.0861	0.0500	1	0	0.356	0	0	82
82	1	640	1	2	2	0.0861	0.0500	0	1	0.578	77	0	0
82	1	641	1	1	3	0.0861	0.0500	1	1	0.460	89	0	82
82	1	642	9	2	2	0.0861	0.0500	0	1	0.400	0	82	82
82	1	643	9	2	2	0.0861	0.0500	1	0	0.470	0	82	0
82	1	644	9	2	3	0.0861	0.0500	1	1	0.349	0	82	0
82	1	645	1	2	2	0.0861	0.0500	0	1	0.349	100	0	0
82	1	646	0	2	2	0.0861	0.0500	1	0	1.005	0	0	82
82	1	647	9	1	1	0.0861	0.0500	1	1	0.484	0	0	82
82	1	648	0	1	1	0.0861	0.0500	1	1	0.718	6	82	0
82	1	649	0	2	2	0.0861	0.0500	0	1	0.541	8	82	82
82	1	650	1	2	2	0.0861	0.0500	1	1	0.537	81	82	0
82	1	651	9	1	1	0.0861	0.0500	1	1	0.675	0	82	0
82	1	652	0	1	2	0.0861	0.0500	0	1	0.544	8	82	82
82	1	653	1	1	1	0.0861	0.0500	1	1	0.451	90	0	82
82	1	654	0	1	3	0.0861	0.0500	0	1	0.703	6	82	82
82	1	655	1	1	3	0.0861	0.0500	1	1	0.498	85	0	82
82	1	656	0	2	3	0.0861	0.0500	0	1	0.518	8	82	82
82	1	657	0	1	3	0.0861	0.0500	1	1	0.520	8	82	0
82	1	658	0	2	3	0.0861	0.0500	0	1	0.442	9	82	82
82	1	659	9	2	2	0.0861	0.0500	1	1	0.993	0	82	0
82	1	660	9	1	3	0.0861	0.0500	0	1	0.894	0	82	82
82	1	661	9	2	3	0.0861	0.0500	1	1	1.156	0	0	82
82	1	662	1	1	3	0.0861	0.0500	1	1	0.431	92	0	82
82	1	663	1	2	2	0.0861	0.0500	0	0	0.600	0	0	0
82	1	664	0	2	2	0.0861	0.0500	0	1	0.531	8	82	82
82	1	665	0	2	3	0.0861	0.0500	0	1	0.500	8	82	82
82	1	666	0	2	2	0.0861	0.0500	0	1	0.460	9	82	82
82	1	667	1	2	3	0.0861	0.0500	1	1	0.600	75	82	0
82	1	668	9	1	1	0.0861	0.0500	1	0	0.370	0	82	0
82	1	669	0	1	2	0.0861	0.0500	0	0	0.516	0	82	82
82	1	670	0	2	1	0.0861	0.0500	1	0	0.384	0	0	82
82	1	671	1	1	2	0.0861	0.0500	0	0	0.571	0	0	0
82	1	672	1	2	2	0.0861	0.0500	0	1	0.855	50	0	0
82	1	673	0	2	3	0.0861	0.0500	1	1	0.974	5	0	82
82	1	674	0	2	3	0.0861	0.0500	1	1	0.882	5	0	82
82	1	675	0	1	1	0.0861	0.0500	0	0	0.553	0	82	82
82	1	676	0	1	3	0.0861	0.0500	1	1	1.767	5	82	0
82	1	677	1	2	2	0.0861	0.0500	0	0	0.791	0	0	0
82	1	678	1	1	1	0.0861	0.0500	0	1	0.899	50	0	0
82	1	679	0	1	3	0.0861	0.0500	1	0	0.874	0	82	0
82	1	680	0	1	3	0.0861	0.0500	1	1	0.487	9	82	0
82	1	681	0	1	3	0.0861	0.0500	1	1	0.561	8	82	0
82	1	682	9	1	3	0.0861	0.0500	0	1	0.653	0	82	82
82	1	683	9	1	1	0.0861	0.0500	1	1	0.498	0	82	0
82	1	684	0	2	2	0.0861	0.0500	0	0	1.329	0	82	82
82	1	685	0	1	3	0.0861	0.0500	0	1	0.625	7	82	82
82	1	686	0	2	3	0.0861	0.0500	0	1	0.555	8	82	82
82	1	687	9	1	1	0.0861	0.0500	0	1	0.423	0	0	0
82	1	688	1	1	3	0.0861	0.0500	0	1	0.395	95	0	0
82	1	689	1	2	3	0.0861	0.0500	0	1	0.455	90	0	0
82	1	690	1	1	1	0.0861	0.0500	1	1	0.503	85	0	82
82	1	691	1	2	3	0.0861	0.0500	1	1	0.532	82	82	0
82	1	692	1	2	3	0.0861	0.0500	0	0	0.552	0	0	0
82	1	693	0	2	2	0.0861	0.0500	1	1	0.449	9	0	82
82	1	694	1	1	3	0.0861	0.0500	0	1	0.869	50	0	0
82	1	695	9	1	2	0.0861	0.0500	0	0	0.567	0	82	82
82	1	696	0	1	1	0.0861	0.0500	0	0	0.553	0	82	82
82	1	697	9	2	2	0.0861	0.0500	0	1	0.528	0	0	0
82	1	698	1	2	2	0.0861	0.0500	1	1	0.505	85	82	0
82	1	699	0	2	2	0.0861	0.0500	0	1	0.741	6	82	82
82	1	700	0	1	3	0.0861	0.0500	0	1	0.559	8	82	82
82	1	701	9	1	3	0.0861	0.0500	0	1	0.542	0	82	82
82	1	702	1	1	1	0.0861	0.0500	0	1	0.370	98	0	0
82	1	703	0	1	3	0.0861	0.0500	1	0	0.716	0	82	0
82	1	704	1	2	2	0.0861	0.0500	1	1	0.459	89	82	0
82	1	705	0	1	3	0.0861	0.0500	1	1	0.814	5	82	0
82	1	706	9	2	2	0.0861	0.0500	1	1	0.377	0	82	0
82	1	707	1	2	2	0.0861	0.0500	0	1	0.516	83	0	0
82	1	708	0	1	3	0.0861	0.0500	1	1	1.445	5	82	0
82	1	709	9	2	2	0.0861	0.0500	1	1	0.645	0	0	82
82	1	710	9	1	1	0.0861	0.0500	0	1	0.452	0	0	0
82	1	711	0	1	1	0.0861	0.0500	1	1	0.533	8	82	0
82	1	712	0	2	1	0.0861	0.0500	0	1	0.597	8	82	82
82	1	713	1	1	1	0.0861	0.0500	1	1	0.467	88	0	82
82	1	714	0	1	1	0.0861	0.0500	1	1	0.500	9	82	0
82	1	715	1	2	3	0.0861	0.0500	1	1	0.702	65	82	0
82	1	716	1	2	1	0.0861	0.0500	1	1	0.430	92	82	0
82	1	717	0	2	3	0.0861	0.0500	0	0	0.676	0	82	82
82	1	718	9	2	2	0.0861	0.0500	1	1	0.794	0	0	82
82	1	719	0	1	3	0.0861	0.0500	0	1	0.544	8	82	82
82	1	720	9	1	3	0.0861	0.0500	0	1	0.563	0	82	82
