sub	sess	t	rew	loc	cue	co1	co2	or	resp	rt	rew_tot	left_col	right_col
69	1	1	0	2	3	0.0653	0.0916	0	1	1.124	5	0	0
69	1	2	9	2	3	0.0653	0.0916	1	1	0.648	0	82	0
69	1	3	0	2	2	0.0653	0.0916	0	1	0.716	6	0	0
69	1	4	1	2	2	0.0653	0.0916	0	0	0.516	0	82	82
69	1	5	1	2	2	0.0653	0.0916	1	0	0.584	0	0	82
69	1	6	0	1	1	0.0653	0.0916	1	0	1.207	0	0	82
69	1	7	0	2	2	0.0653	0.0916	0	1	0.996	5	0	0
69	1	8	9	2	3	0.0653	0.0916	1	1	0.866	0	82	0
69	1	9	0	1	1	0.0653	0.0916	1	1	1.127	5	0	82
69	1	10	0	1	1	0.0653	0.0916	0	1	0.765	6	0	0
69	1	11	1	2	3	0.0653	0.0916	1	1	0.900	50	0	82
69	1	12	0	2	3	0.0653	0.0916	1	1	0.704	6	82	0
69	1	13	0	1	1	0.0653	0.0916	0	1	0.663	7	0	0
69	1	14	1	2	1	0.0653	0.0916	0	1	1.747	50	82	82
69	1	15	0	1	3	0.0653	0.0916	0	1	0.937	5	0	0
69	1	16	1	1	1	0.0653	0.0916	1	1	0.614	74	82	0
69	1	17	0	2	1	0.0653	0.0916	1	1	1.264	5	82	0
69	1	18	1	2	2	0.0653	0.0916	0	1	0.956	50	82	82
69	1	19	0	2	1	0.0653	0.0916	1	1	1.165	5	82	0
69	1	20	0	2	2	0.0653	0.0916	1	1	0.578	8	82	0
69	1	21	1	2	2	0.0653	0.0916	0	1	0.834	52	82	82
69	1	22	1	1	1	0.0653	0.0916	1	1	0.559	79	82	0
69	1	23	1	1	1	0.0653	0.0916	0	1	0.494	86	82	82
69	1	24	1	1	3	0.0653	0.0916	0	1	0.726	62	82	82
69	1	25	9	1	1	0.0653	0.0916	1	1	0.530	0	82	0
69	1	26	0	1	3	0.0653	0.0916	1	1	0.980	5	0	82
69	1	27	9	1	1	0.0653	0.0916	0	1	0.548	0	0	0
69	1	28	1	2	3	0.0653	0.0916	0	0	0.860	0	82	82
69	1	29	9	2	1	0.0653	0.0916	1	1	1.024	0	0	82
69	1	30	9	1	3	0.0653	0.0916	0	1	0.687	0	82	82
69	1	31	0	1	3	0.0653	0.0916	0	1	0.644	7	0	0
69	1	32	9	2	3	0.0653	0.0916	0	1	1.179	0	0	0
69	1	33	0	1	3	0.0653	0.0916	1	1	0.662	7	0	82
69	1	34	1	1	3	0.0653	0.0916	1	1	0.749	60	82	0
69	1	35	0	1	3	0.0653	0.0916	1	1	0.495	9	0	82
69	1	36	9	2	3	0.0653	0.0916	1	1	0.668	0	0	82
69	1	37	9	2	2	0.0653	0.0916	0	1	0.667	0	0	0
69	1	38	1	1	1	0.0653	0.0916	1	1	0.789	56	82	0
69	1	39	0	1	1	0.0653	0.0916	1	1	0.765	6	0	82
69	1	40	0	2	3	0.0653	0.0916	1	0	0.715	0	82	0
69	1	41	0	1	2	0.0653	0.0916	0	1	0.626	7	0	0
69	1	42	0	2	2	0.0653	0.0916	0	0	0.492	0	0	0
69	1	43	9	1	3	0.0653	0.0916	0	1	0.537	0	0	0
69	1	44	9	1	2	0.0653	0.0916	0	1	0.702	0	0	0
69	1	45	1	1	1	0.0653	0.0916	0	1	0.686	66	82	82
69	1	46	0	1	1	0.0653	0.0916	1	0	0.869	0	0	82
69	1	47	0	2	3	0.0653	0.0916	0	1	0.941	5	0	0
69	1	48	0	1	1	0.0653	0.0916	1	1	0.640	7	0	82
69	1	49	9	2	2	0.0653	0.0916	1	1	0.566	0	0	82
69	1	50	1	1	3	0.0653	0.0916	1	0	0.896	0	82	0
69	1	51	1	2	3	0.0653	0.0916	0	1	1.443	50	82	82
69	1	52	0	2	3	0.0653	0.0916	1	1	0.620	7	82	0
69	1	53	1	2	1	0.0653	0.0916	1	1	0.987	50	0	82
69	1	54	1	1	2	0.0653	0.0916	1	1	1.284	50	82	0
69	1	55	9	1	3	0.0653	0.0916	1	1	0.733	0	82	0
69	1	56	1	2	3	0.0653	0.0916	1	1	0.644	71	0	82
69	1	57	0	2	2	0.0653	0.0916	0	1	0.741	6	0	0
69	1	58	9	1	3	0.0653	0.0916	0	1	0.733	0	0	0
69	1	59	9	1	1	0.0653	0.0916	0	1	0.654	0	82	82
69	1	60	1	2	1	0.0653	0.0916	0	1	0.970	50	82	82
69	1	61	0	2	3	0.0653	0.0916	0	1	0.822	5	0	0
69	1	62	1	1	3	0.0653	0.0916	0	1	0.536	81	82	82
69	1	63	0	2	3	0.0653	0.0916	0	0	0.902	0	0	0
69	1	64	0	1	1	0.0653	0.0916	1	1	0.673	7	0	82
69	1	65	1	1	3	0.0653	0.0916	0	1	0.576	77	82	82
69	1	66	0	1	1	0.0653	0.0916	1	1	0.808	5	0	82
69	1	67	0	2	1	0.0653	0.0916	0	1	1.112	5	0	0
69	1	68	1	2	2	0.0653	0.0916	1	1	0.585	77	0	82
69	1	69	1	2	3	0.0653	0.0916	1	1	0.763	59	0	82
69	1	70	9	1	1	0.0653	0.0916	1	1	1.013	0	0	82
69	1	71	0	1	3	0.0653	0.0916	1	1	0.873	5	0	82
69	1	72	1	1	3	0.0653	0.0916	1	1	0.856	50	82	0
69	1	73	0	1	1	0.0653	0.0916	0	1	0.916	5	0	0
69	1	74	0	2	2	0.0653	0.0916	1	1	0.594	8	82	0
69	1	75	1	1	3	0.0653	0.0916	1	1	0.944	50	82	0
69	1	76	0	1	3	0.0653	0.0916	1	1	0.589	8	0	82
69	1	77	9	1	1	0.0653	0.0916	0	1	0.664	0	82	82
69	1	78	9	2	3	0.0653	0.0916	0	0	1.484	0	82	82
69	1	79	0	1	1	0.0653	0.0916	1	1	0.626	7	0	82
69	1	80	0	1	1	0.0653	0.0916	1	1	0.485	9	0	82
69	1	81	1	1	1	0.0653	0.0916	0	1	0.550	80	82	82
69	1	82	1	2	3	0.0653	0.0916	1	1	0.663	69	0	82
69	1	83	0	1	3	0.0653	0.0916	1	1	0.528	8	0	82
69	1	84	0	1	2	0.0653	0.0916	1	1	1.165	5	0	82
69	1	85	1	1	3	0.0653	0.0916	0	1	0.523	83	82	82
69	1	86	0	2	3	0.0653	0.0916	1	1	0.673	7	82	0
69	1	87	1	2	3	0.0653	0.0916	0	0	0.969	0	82	82
69	1	88	1	2	2	0.0653	0.0916	0	1	0.632	72	82	82
69	1	89	1	1	1	0.0653	0.0916	0	1	0.773	58	82	82
69	1	90	1	1	3	0.0653	0.0916	0	1	1.121	50	82	82
69	1	91	9	1	3	0.0653	0.0916	1	1	1.024	0	82	0
69	1	92	0	2	3	0.0653	0.0916	1	0	0.814	0	82	0
69	1	93	0	1	1	0.0653	0.0916	1	1	1.232	5	0	82
69	1	94	1	1	1	0.0653	0.0916	1	1	0.509	84	82	0
69	1	95	0	1	3	0.0653	0.0916	1	1	0.525	8	0	82
69	1	96	1	1	2	0.0653	0.0916	1	0	0.805	0	82	0
69	1	97	1	1	1	0.0653	0.0916	1	1	0.482	87	82	0
69	1	98	1	1	3	0.0653	0.0916	0	1	0.851	50	82	82
69	1	99	0	2	3	0.0653	0.0916	1	1	0.560	8	82	0
69	1	100	0	1	3	0.0653	0.0916	0	1	0.695	7	0	0
69	1	101	1	2	3	0.0653	0.0916	1	1	0.492	86	0	82
69	1	102	9	1	1	0.0653	0.0916	1	1	0.604	0	0	82
69	1	103	1	1	3	0.0653	0.0916	0	1	0.469	88	82	82
69	1	104	0	1	3	0.0653	0.0916	1	1	0.871	5	0	82
69	1	105	1	2	2	0.0653	0.0916	1	1	0.522	83	0	82
69	1	106	9	1	1	0.0653	0.0916	1	1	0.803	0	82	0
69	1	107	0	1	1	0.0653	0.0916	1	1	1.074	5	0	82
69	1	108	9	1	1	0.0653	0.0916	0	1	0.611	0	82	82
69	1	109	0	1	1	0.0653	0.0916	0	1	0.573	8	0	0
69	1	110	0	2	3	0.0653	0.0916	1	1	0.724	6	82	0
69	1	111	9	1	1	0.0653	0.0916	0	1	0.596	0	0	0
69	1	112	0	2	3	0.0653	0.0916	1	0	0.779	0	82	0
69	1	113	1	1	3	0.0653	0.0916	0	1	0.695	65	82	82
69	1	114	0	2	3	0.0653	0.0916	0	0	1.061	0	0	0
69	1	115	1	2	1	0.0653	0.0916	1	1	1.018	50	0	82
69	1	116	0	2	3	0.0653	0.0916	1	1	1.126	5	82	0
69	1	117	9	2	2	0.0653	0.0916	0	1	1.852	0	0	0
69	1	118	1	1	1	0.0653	0.0916	0	1	0.581	77	82	82
69	1	119	1	1	3	0.0653	0.0916	1	1	0.808	54	82	0
69	1	120	9	2	2	0.0653	0.0916	1	1	0.612	0	82	0
69	1	121	1	2	2	0.0653	0.0916	0	1	0.608	74	82	82
69	1	122	0	1	3	0.0653	0.0916	1	1	0.610	7	0	82
69	1	123	0	2	1	0.0653	0.0916	0	1	0.713	6	0	0
69	1	124	0	1	1	0.0653	0.0916	0	1	0.736	6	0	0
69	1	125	0	2	2	0.0653	0.0916	0	1	0.605	7	0	0
69	1	126	1	1	3	0.0653	0.0916	0	1	0.693	66	82	82
69	1	127	1	2	3	0.0653	0.0916	1	1	0.738	61	0	82
69	1	128	1	2	3	0.0653	0.0916	1	1	0.595	76	0	82
69	1	129	1	1	1	0.0653	0.0916	1	1	0.653	70	82	0
69	1	130	0	1	3	0.0653	0.0916	0	1	0.677	7	0	0
69	1	131	9	2	3	0.0653	0.0916	1	0	0.997	0	82	0
69	1	132	0	2	2	0.0653	0.0916	0	1	0.589	8	0	0
69	1	133	1	2	2	0.0653	0.0916	0	1	0.691	66	82	82
69	1	134	9	2	3	0.0653	0.0916	0	1	0.769	0	82	82
69	1	135	9	1	1	0.0653	0.0916	0	1	0.531	0	0	0
69	1	136	1	1	3	0.0653	0.0916	0	1	0.579	77	82	82
69	1	137	0	2	3	0.0653	0.0916	0	1	0.864	5	0	0
69	1	138	0	2	2	0.0653	0.0916	1	1	0.534	8	82	0
69	1	139	0	2	3	0.0653	0.0916	0	1	1.120	5	0	0
69	1	140	0	1	1	0.0653	0.0916	0	1	0.467	9	0	0
69	1	141	9	2	3	0.0653	0.0916	0	1	0.827	0	0	0
69	1	142	1	2	2	0.0653	0.0916	0	1	0.489	86	82	82
69	1	143	0	2	3	0.0653	0.0916	0	1	0.549	8	0	0
69	1	144	0	2	2	0.0653	0.0916	1	1	0.600	8	82	0
69	1	145	0	1	1	0.0653	0.0916	1	0	0.579	0	0	82
69	1	146	0	1	3	0.0653	0.0916	0	1	0.544	8	0	0
69	1	147	1	1	1	0.0653	0.0916	0	1	0.608	74	82	82
69	1	148	0	2	2	0.0653	0.0916	0	1	0.624	7	0	0
69	1	149	0	2	2	0.0653	0.0916	1	1	0.496	9	82	0
69	1	150	0	2	3	0.0653	0.0916	0	1	0.770	6	0	0
69	1	151	0	1	3	0.0653	0.0916	0	1	0.699	7	0	0
69	1	152	0	2	2	0.0653	0.0916	0	1	0.521	8	0	0
69	1	153	0	1	2	0.0653	0.0916	1	1	0.684	7	0	82
69	1	154	0	2	2	0.0653	0.0916	1	1	0.416	9	82	0
69	1	155	0	1	3	0.0653	0.0916	0	1	0.743	6	0	0
69	1	156	1	1	3	0.0653	0.0916	0	0	0.656	0	82	82
69	1	157	0	2	3	0.0653	0.0916	0	1	0.737	6	0	0
69	1	158	1	1	3	0.0653	0.0916	1	1	1.707	50	82	0
69	1	159	1	2	3	0.0653	0.0916	0	1	0.614	74	82	82
69	1	160	1	2	3	0.0653	0.0916	1	1	0.625	72	0	82
69	1	161	0	1	1	0.0653	0.0916	1	0	0.583	0	0	82
69	1	162	0	2	3	0.0653	0.0916	1	1	0.641	7	82	0
69	1	163	1	2	2	0.0653	0.0916	0	0	1.152	0	82	82
69	1	164	9	2	2	0.0653	0.0916	1	1	0.741	0	0	82
69	1	165	1	2	3	0.0653	0.0916	0	1	0.827	52	82	82
69	1	166	0	2	2	0.0653	0.0916	0	0	0.553	0	0	0
69	1	167	1	1	1	0.0653	0.0916	0	1	0.656	69	82	82
69	1	168	0	2	2	0.0653	0.0916	1	1	0.599	8	82	0
69	1	169	1	2	2	0.0653	0.0916	0	1	0.822	53	82	82
69	1	170	1	2	2	0.0653	0.0916	0	1	0.664	69	82	82
69	1	171	1	2	2	0.0653	0.0916	1	1	0.655	69	0	82
69	1	172	9	1	1	0.0653	0.0916	1	1	0.585	0	82	0
69	1	173	1	2	2	0.0653	0.0916	1	1	0.648	70	0	82
69	1	174	1	2	3	0.0653	0.0916	1	1	0.567	78	0	82
69	1	175	0	2	2	0.0653	0.0916	1	1	0.461	9	82	0
69	1	176	1	1	3	0.0653	0.0916	1	0	0.969	0	82	0
69	1	177	1	2	2	0.0653	0.0916	1	1	0.599	75	0	82
69	1	178	0	2	2	0.0653	0.0916	1	1	0.604	7	82	0
69	1	179	9	2	2	0.0653	0.0916	0	1	0.668	0	82	82
69	1	180	1	1	1	0.0653	0.0916	1	1	0.936	50	82	0
69	1	181	0	2	3	0.0653	0.0916	0	1	0.781	6	0	0
69	1	182	1	1	1	0.0653	0.0916	0	1	0.575	77	82	82
69	1	183	0	1	3	0.0653	0.0916	1	1	0.733	6	0	82
69	1	184	0	2	2	0.0653	0.0916	1	1	0.757	6	82	0
69	1	185	1	1	3	0.0653	0.0916	0	1	0.857	50	82	82
69	1	186	0	2	1	0.0653	0.0916	0	1	1.231	5	0	0
69	1	187	1	2	2	0.0653	0.0916	1	1	0.777	57	0	82
69	1	188	1	1	3	0.0653	0.0916	1	1	0.833	52	82	0
69	1	189	1	1	2	0.0653	0.0916	1	1	1.162	50	82	0
69	1	190	9	2	3	0.0653	0.0916	0	1	0.787	0	82	82
69	1	191	0	1	3	0.0653	0.0916	1	1	0.917	5	0	82
69	1	192	0	1	3	0.0653	0.0916	0	1	0.561	8	0	0
69	1	193	1	2	3	0.0653	0.0916	0	1	0.737	61	82	82
69	1	194	1	1	2	0.0653	0.0916	0	1	1.563	50	82	82
69	1	195	1	2	2	0.0653	0.0916	1	1	0.709	64	0	82
69	1	196	1	2	3	0.0653	0.0916	1	1	0.554	80	0	82
69	1	197	1	2	3	0.0653	0.0916	1	1	0.592	76	0	82
69	1	198	9	1	3	0.0653	0.0916	0	1	0.667	0	0	0
69	1	199	1	2	2	0.0653	0.0916	0	1	0.546	80	82	82
69	1	200	1	1	3	0.0653	0.0916	1	1	0.598	75	82	0
69	1	201	9	1	3	0.0653	0.0916	0	1	0.712	0	82	82
69	1	202	0	1	1	0.0653	0.0916	0	1	0.649	7	0	0
69	1	203	9	1	3	0.0653	0.0916	1	1	0.643	0	0	82
69	1	204	9	1	3	0.0653	0.0916	0	1	0.459	0	82	82
69	1	205	0	1	1	0.0653	0.0916	0	1	0.563	8	0	0
69	1	206	0	2	1	0.0653	0.0916	1	0	0.547	0	82	0
69	1	207	1	1	3	0.0653	0.0916	1	1	0.538	81	82	0
69	1	208	1	2	3	0.0653	0.0916	0	1	1.338	50	82	82
69	1	209	0	1	1	0.0653	0.0916	0	1	0.548	8	0	0
69	1	210	1	2	2	0.0653	0.0916	0	1	0.585	77	82	82
69	1	211	1	2	2	0.0653	0.0916	1	1	0.690	66	0	82
69	1	212	9	1	1	0.0653	0.0916	0	1	0.509	0	82	82
69	1	213	1	2	3	0.0653	0.0916	0	1	0.749	60	82	82
69	1	214	0	2	3	0.0653	0.0916	1	0	0.803	0	82	0
69	1	215	0	2	2	0.0653	0.0916	1	1	0.597	8	82	0
69	1	216	9	1	3	0.0653	0.0916	1	0	1.082	0	82	0
69	1	217	0	2	3	0.0653	0.0916	1	0	1.547	0	82	0
69	1	218	0	1	3	0.0653	0.0916	1	0	1.673	0	0	82
69	1	219	1	1	1	0.0653	0.0916	0	1	1.106	50	82	82
69	1	220	1	1	1	0.0653	0.0916	0	1	0.625	72	82	82
69	1	221	0	1	3	0.0653	0.0916	1	0	0.775	0	0	82
69	1	222	1	2	2	0.0653	0.0916	0	1	0.574	78	82	82
69	1	223	1	1	1	0.0653	0.0916	1	1	0.502	85	82	0
69	1	224	0	1	2	0.0653	0.0916	0	1	0.696	7	0	0
69	1	225	1	1	2	0.0653	0.0916	0	1	0.588	76	82	82
69	1	226	1	2	2	0.0653	0.0916	1	1	0.771	58	0	82
69	1	227	9	1	1	0.0653	0.0916	1	1	0.633	0	0	82
69	1	228	9	1	3	0.0653	0.0916	1	1	0.723	0	0	82
69	1	229	0	2	3	0.0653	0.0916	0	1	0.773	6	0	0
69	1	230	0	2	3	0.0653	0.0916	0	1	0.709	6	0	0
69	1	231	0	1	3	0.0653	0.0916	0	1	0.535	8	0	0
69	1	232	9	2	3	0.0653	0.0916	1	1	0.922	0	0	82
69	1	233	9	2	1	0.0653	0.0916	0	1	0.814	0	82	82
69	1	234	9	1	3	0.0653	0.0916	0	1	0.601	0	82	82
69	1	235	0	2	2	0.0653	0.0916	1	1	0.641	7	82	0
69	1	236	1	1	3	0.0653	0.0916	0	1	0.583	77	82	82
69	1	237	1	2	1	0.0653	0.0916	1	1	1.049	50	0	82
69	1	238	1	2	2	0.0653	0.0916	1	1	0.554	80	0	82
69	1	239	0	1	1	0.0653	0.0916	0	1	0.562	8	0	0
69	1	240	1	1	3	0.0653	0.0916	1	1	1.281	50	82	0
69	1	241	1	2	3	0.0653	0.0916	0	1	0.619	73	82	82
69	1	242	9	2	2	0.0653	0.0916	0	1	0.524	0	82	82
69	1	243	1	2	2	0.0653	0.0916	0	1	0.390	96	82	82
69	1	244	9	2	2	0.0653	0.0916	1	1	0.605	0	82	0
69	1	245	0	1	1	0.0653	0.0916	1	1	1.226	5	0	82
69	1	246	1	2	3	0.0653	0.0916	1	1	0.659	69	0	82
69	1	247	0	1	3	0.0653	0.0916	0	1	0.783	6	0	0
69	1	248	1	1	1	0.0653	0.0916	0	1	0.547	80	82	82
69	1	249	0	1	1	0.0653	0.0916	0	1	0.506	8	0	0
69	1	250	1	1	1	0.0653	0.0916	0	1	0.496	85	82	82
69	1	251	0	1	1	0.0653	0.0916	0	1	0.498	9	0	0
69	1	252	9	2	2	0.0653	0.0916	0	1	0.777	0	82	82
69	1	253	1	1	3	0.0653	0.0916	1	1	0.923	50	82	0
69	1	254	0	1	3	0.0653	0.0916	1	1	0.633	7	0	82
69	1	255	9	2	1	0.0653	0.0916	0	1	0.713	0	0	0
69	1	256	1	2	3	0.0653	0.0916	0	0	1.297	0	82	82
69	1	257	1	2	3	0.0653	0.0916	1	0	0.855	0	0	82
69	1	258	1	2	3	0.0653	0.0916	0	1	1.135	50	82	82
69	1	259	1	1	1	0.0653	0.0916	1	1	0.695	65	82	0
69	1	260	1	1	1	0.0653	0.0916	0	1	0.699	65	82	82
69	1	261	1	1	3	0.0653	0.0916	0	1	0.543	81	82	82
69	1	262	9	1	2	0.0653	0.0916	0	1	0.729	0	82	82
69	1	263	1	2	3	0.0653	0.0916	0	1	0.777	57	82	82
69	1	264	0	2	3	0.0653	0.0916	0	1	0.658	7	0	0
69	1	265	9	2	2	0.0653	0.0916	1	1	1.000	0	82	0
69	1	266	0	1	2	0.0653	0.0916	1	0	0.419	0	0	82
69	1	267	1	1	3	0.0653	0.0916	1	1	0.906	50	82	0
69	1	268	1	2	3	0.0653	0.0916	1	0	0.728	0	0	82
69	1	269	1	1	1	0.0653	0.0916	1	1	0.680	67	82	0
69	1	270	9	1	1	0.0653	0.0916	1	1	0.671	0	82	0
69	1	271	0	1	3	0.0653	0.0916	0	1	0.730	6	0	0
69	1	272	0	1	3	0.0653	0.0916	0	1	0.693	7	0	0
69	1	273	9	2	3	0.0653	0.0916	0	1	0.931	0	82	82
69	1	274	9	2	3	0.0653	0.0916	1	1	0.618	0	0	82
69	1	275	0	1	3	0.0653	0.0916	1	1	1.157	5	0	82
69	1	276	0	2	3	0.0653	0.0916	0	1	0.685	7	0	0
69	1	277	0	2	2	0.0653	0.0916	0	1	0.490	9	0	0
69	1	278	0	2	3	0.0653	0.0916	1	1	1.071	5	82	0
69	1	279	0	1	1	0.0653	0.0916	0	1	0.662	7	0	0
69	1	280	0	1	1	0.0653	0.0916	0	1	0.463	9	0	0
69	1	281	0	2	2	0.0653	0.0916	1	0	0.997	0	82	0
69	1	282	1	1	2	0.0653	0.0916	0	1	0.924	50	82	82
69	1	283	1	2	3	0.0653	0.0916	0	1	1.035	50	82	82
69	1	284	1	2	1	0.0653	0.0916	0	0	0.509	0	82	82
69	1	285	9	2	3	0.0653	0.0916	0	1	0.771	0	0	0
69	1	286	1	1	2	0.0653	0.0916	0	0	0.991	0	82	82
69	1	287	1	2	1	0.0653	0.0916	0	1	0.762	59	82	82
69	1	288	1	2	2	0.0653	0.0916	0	1	0.741	61	82	82
69	1	289	9	1	3	0.0653	0.0916	1	1	0.750	0	82	0
69	1	290	0	1	1	0.0653	0.0916	0	1	0.594	8	0	0
69	1	291	9	1	3	0.0653	0.0916	0	1	1.057	0	0	0
69	1	292	9	2	2	0.0653	0.0916	1	1	0.676	0	82	0
69	1	293	0	2	2	0.0653	0.0916	0	1	0.634	7	0	0
69	1	294	1	1	1	0.0653	0.0916	1	1	0.559	79	82	0
69	1	295	0	1	3	0.0653	0.0916	1	1	0.745	6	0	82
69	1	296	9	2	2	0.0653	0.0916	0	1	0.629	0	0	0
69	1	297	9	2	3	0.0653	0.0916	1	1	0.718	0	82	0
69	1	298	9	1	3	0.0653	0.0916	1	1	0.926	0	0	82
69	1	299	9	2	2	0.0653	0.0916	1	1	0.551	0	0	82
69	1	300	1	2	2	0.0653	0.0916	1	1	0.484	87	0	82
69	1	301	0	2	2	0.0653	0.0916	0	1	0.589	8	0	0
69	1	302	1	2	3	0.0653	0.0916	1	1	0.752	60	0	82
69	1	303	0	2	3	0.0653	0.0916	0	1	0.489	9	0	0
69	1	304	1	1	3	0.0653	0.0916	1	1	0.865	50	82	0
69	1	305	9	2	3	0.0653	0.0916	1	1	0.488	0	0	82
69	1	306	9	1	2	0.0653	0.0916	1	1	1.031	0	0	82
69	1	307	9	2	3	0.0653	0.0916	0	0	0.865	0	0	0
69	1	308	0	2	1	0.0653	0.0916	1	1	0.778	6	82	0
69	1	309	0	2	3	0.0653	0.0916	1	1	0.592	8	82	0
69	1	310	0	2	3	0.0653	0.0916	1	1	0.565	8	82	0
69	1	311	0	1	3	0.0653	0.0916	0	1	0.926	5	0	0
69	1	312	1	1	1	0.0653	0.0916	0	1	0.748	60	82	82
69	1	313	1	1	3	0.0653	0.0916	1	1	0.468	88	82	0
69	1	314	0	1	3	0.0653	0.0916	0	1	0.610	7	0	0
69	1	315	0	1	2	0.0653	0.0916	0	1	0.635	7	0	0
69	1	316	1	2	3	0.0653	0.0916	0	1	0.703	65	82	82
69	1	317	1	2	2	0.0653	0.0916	1	1	0.505	84	0	82
69	1	318	9	1	3	0.0653	0.0916	1	0	1.033	0	0	82
69	1	319	1	1	3	0.0653	0.0916	0	1	0.616	73	82	82
69	1	320	9	2	2	0.0653	0.0916	0	1	0.754	0	0	0
69	1	321	0	2	2	0.0653	0.0916	0	1	0.441	9	0	0
69	1	322	1	1	1	0.0653	0.0916	1	1	0.391	96	82	0
69	1	323	0	2	2	0.0653	0.0916	0	0	0.377	0	0	0
69	1	324	0	1	1	0.0653	0.0916	1	1	0.493	9	0	82
69	1	325	1	2	2	0.0653	0.0916	1	1	0.535	81	0	82
69	1	326	0	1	2	0.0653	0.0916	0	1	1.100	5	0	0
69	1	327	1	1	1	0.0653	0.0916	0	1	0.605	74	82	82
69	1	328	1	2	3	0.0653	0.0916	1	1	0.546	80	0	82
69	1	329	9	2	2	0.0653	0.0916	0	1	0.543	0	82	82
69	1	330	0	1	1	0.0653	0.0916	0	1	0.523	8	0	0
69	1	331	9	2	1	0.0653	0.0916	1	1	0.869	0	82	0
69	1	332	1	1	1	0.0653	0.0916	1	1	0.994	50	82	0
69	1	333	0	2	2	0.0653	0.0916	0	1	0.612	7	0	0
69	1	334	1	1	3	0.0653	0.0916	0	1	0.585	77	82	82
69	1	335	1	1	3	0.0653	0.0916	1	0	1.185	0	82	0
69	1	336	9	1	2	0.0653	0.0916	1	1	1.600	0	82	0
69	1	337	1	2	1	0.0653	0.0916	1	1	0.718	63	0	82
69	1	338	0	1	3	0.0653	0.0916	0	1	0.548	8	0	0
69	1	339	9	1	1	0.0653	0.0916	0	1	0.542	0	0	0
69	1	340	1	2	2	0.0653	0.0916	0	1	0.506	84	82	82
69	1	341	0	2	3	0.0653	0.0916	1	1	0.633	7	82	0
69	1	342	9	1	1	0.0653	0.0916	1	1	0.541	0	0	82
69	1	343	0	1	3	0.0653	0.0916	0	1	0.774	6	0	0
69	1	344	1	2	2	0.0653	0.0916	1	1	0.514	84	0	82
69	1	345	0	2	2	0.0653	0.0916	1	1	0.416	9	82	0
69	1	346	1	1	2	0.0653	0.0916	1	1	1.001	50	82	0
69	1	347	0	2	2	0.0653	0.0916	1	1	0.478	9	82	0
69	1	348	1	1	1	0.0653	0.0916	1	1	0.565	78	82	0
69	1	349	1	1	1	0.0653	0.0916	1	1	0.432	92	82	0
69	1	350	0	2	2	0.0653	0.0916	1	1	0.471	9	82	0
69	1	351	1	2	2	0.0653	0.0916	1	1	0.478	87	0	82
69	1	352	9	2	2	0.0653	0.0916	1	1	0.444	0	0	82
69	1	353	0	2	1	0.0653	0.0916	0	1	1.103	5	0	0
69	1	354	1	2	3	0.0653	0.0916	0	1	0.588	76	82	82
69	1	355	0	1	2	0.0653	0.0916	1	1	0.668	7	0	82
69	1	356	0	1	1	0.0653	0.0916	1	1	0.669	7	0	82
69	1	357	1	1	1	0.0653	0.0916	1	1	0.384	97	82	0
69	1	358	1	1	1	0.0653	0.0916	0	1	0.759	59	82	82
69	1	359	0	2	2	0.0653	0.0916	0	1	0.982	5	0	0
69	1	360	1	2	3	0.0653	0.0916	0	0	0.581	0	82	82
69	1	361	9	1	2	0.0653	0.0916	1	1	0.617	0	82	0
69	1	362	9	1	1	0.0653	0.0916	0	1	0.509	0	0	0
69	1	363	0	2	3	0.0653	0.0916	1	1	0.714	6	82	0
69	1	364	1	1	3	0.0653	0.0916	0	1	0.530	82	82	82
69	1	365	1	2	2	0.0653	0.0916	1	1	0.695	66	0	82
69	1	366	9	2	2	0.0653	0.0916	1	1	0.423	0	0	82
69	1	367	0	1	3	0.0653	0.0916	1	1	0.631	7	0	82
69	1	368	1	2	2	0.0653	0.0916	0	1	0.621	73	82	82
69	1	369	9	1	1	0.0653	0.0916	0	1	0.527	0	82	82
69	1	370	0	1	2	0.0653	0.0916	1	1	1.094	5	0	82
69	1	371	0	1	1	0.0653	0.0916	1	0	0.973	0	0	82
69	1	372	1	1	1	0.0653	0.0916	0	1	0.506	84	82	82
69	1	373	1	1	3	0.0653	0.0916	0	1	0.452	90	82	82
69	1	374	0	1	3	0.0653	0.0916	1	1	0.790	6	0	82
69	1	375	9	2	3	0.0653	0.0916	1	1	0.499	0	82	0
69	1	376	9	1	3	0.0653	0.0916	1	1	0.596	0	0	82
69	1	377	1	2	2	0.0653	0.0916	1	1	0.463	89	0	82
69	1	378	0	1	3	0.0653	0.0916	1	0	0.513	0	0	82
69	1	379	0	1	3	0.0653	0.0916	0	1	0.677	7	0	0
69	1	380	9	2	2	0.0653	0.0916	0	0	0.532	0	0	0
69	1	381	0	1	1	0.0653	0.0916	0	1	0.624	7	0	0
69	1	382	1	2	3	0.0653	0.0916	1	1	0.558	79	0	82
69	1	383	0	1	3	0.0653	0.0916	1	1	0.862	5	0	82
69	1	384	1	2	1	0.0653	0.0916	0	1	0.978	50	82	82
69	1	385	1	2	3	0.0653	0.0916	0	1	0.604	75	82	82
69	1	386	1	2	3	0.0653	0.0916	1	1	0.566	78	0	82
69	1	387	1	2	3	0.0653	0.0916	0	1	0.823	53	82	82
69	1	388	1	1	3	0.0653	0.0916	1	1	0.805	54	82	0
69	1	389	1	2	3	0.0653	0.0916	1	1	0.523	83	0	82
69	1	390	0	1	1	0.0653	0.0916	1	1	0.698	7	0	82
69	1	391	0	2	2	0.0653	0.0916	0	1	0.482	9	0	0
69	1	392	0	1	3	0.0653	0.0916	0	1	0.582	8	0	0
69	1	393	1	1	2	0.0653	0.0916	0	1	0.874	50	82	82
69	1	394	1	2	3	0.0653	0.0916	1	1	0.707	64	0	82
69	1	395	9	1	2	0.0653	0.0916	0	1	0.715	0	82	82
69	1	396	0	2	3	0.0653	0.0916	1	1	0.503	8	82	0
69	1	397	0	1	3	0.0653	0.0916	0	1	0.500	8	0	0
69	1	398	1	2	2	0.0653	0.0916	0	1	0.541	81	82	82
69	1	399	1	1	1	0.0653	0.0916	0	1	0.586	76	82	82
69	1	400	9	2	3	0.0653	0.0916	0	1	0.769	0	82	82
69	1	401	1	2	1	0.0653	0.0916	1	0	0.698	0	0	82
69	1	402	0	1	3	0.0653	0.0916	1	1	0.742	6	0	82
69	1	403	0	2	3	0.0653	0.0916	0	0	0.659	0	0	0
69	1	404	0	2	3	0.0653	0.0916	1	1	0.895	5	82	0
69	1	405	1	2	3	0.0653	0.0916	1	1	0.657	69	0	82
69	1	406	1	2	1	0.0653	0.0916	1	1	0.450	90	0	82
69	1	407	1	1	3	0.0653	0.0916	1	1	0.644	71	82	0
69	1	408	0	2	2	0.0653	0.0916	0	1	0.613	7	0	0
69	1	409	1	1	1	0.0653	0.0916	0	1	0.532	82	82	82
69	1	410	9	2	2	0.0653	0.0916	0	1	0.793	0	82	82
69	1	411	0	1	3	0.0653	0.0916	1	1	0.595	8	0	82
69	1	412	1	2	2	0.0653	0.0916	0	1	0.500	85	82	82
69	1	413	1	1	1	0.0653	0.0916	0	1	0.555	80	82	82
69	1	414	9	1	3	0.0653	0.0916	0	1	0.510	0	0	0
69	1	415	1	2	2	0.0653	0.0916	1	1	0.506	84	0	82
69	1	416	9	2	2	0.0653	0.0916	0	1	0.532	0	0	0
69	1	417	1	2	2	0.0653	0.0916	0	1	0.460	89	82	82
69	1	418	0	1	1	0.0653	0.0916	1	1	0.447	9	0	82
69	1	419	9	2	3	0.0653	0.0916	0	1	0.727	0	0	0
69	1	420	0	1	1	0.0653	0.0916	0	1	0.490	9	0	0
69	1	421	1	2	3	0.0653	0.0916	0	1	0.621	73	82	82
69	1	422	0	2	3	0.0653	0.0916	0	1	0.486	9	0	0
69	1	423	9	1	3	0.0653	0.0916	0	1	0.583	0	0	0
69	1	424	1	2	3	0.0653	0.0916	1	1	0.462	89	0	82
69	1	425	0	1	1	0.0653	0.0916	1	0	0.466	0	0	82
69	1	426	1	1	2	0.0653	0.0916	0	1	0.653	70	82	82
69	1	427	1	1	3	0.0653	0.0916	0	1	0.634	72	82	82
69	1	428	1	2	2	0.0653	0.0916	0	1	0.463	89	82	82
69	1	429	1	1	3	0.0653	0.0916	0	1	0.655	69	82	82
69	1	430	1	1	3	0.0653	0.0916	1	1	0.708	64	82	0
69	1	431	0	1	3	0.0653	0.0916	0	1	0.663	7	0	0
69	1	432	1	2	3	0.0653	0.0916	1	1	0.527	82	0	82
69	1	433	0	2	2	0.0653	0.0916	1	1	0.492	9	82	0
69	1	434	9	1	1	0.0653	0.0916	1	1	0.558	0	0	82
69	1	435	9	1	1	0.0653	0.0916	1	1	0.541	0	82	0
69	1	436	0	1	2	0.0653	0.0916	1	1	1.196	5	0	82
69	1	437	0	1	2	0.0653	0.0916	1	1	0.925	5	0	82
69	1	438	0	1	3	0.0653	0.0916	1	1	0.718	6	0	82
69	1	439	0	2	2	0.0653	0.0916	1	1	0.633	7	82	0
69	1	440	1	1	3	0.0653	0.0916	0	1	0.683	67	82	82
69	1	441	0	1	2	0.0653	0.0916	0	1	0.580	8	0	0
69	1	442	0	1	3	0.0653	0.0916	0	1	0.395	10	0	0
69	1	443	0	1	3	0.0653	0.0916	0	0	2.930	0	0	0
69	1	444	9	1	1	0.0653	0.0916	1	1	0.541	0	82	0
69	1	445	1	2	3	0.0653	0.0916	0	1	0.473	88	82	82
69	1	446	1	2	1	0.0653	0.0916	1	1	0.475	88	0	82
69	1	447	1	2	3	0.0653	0.0916	1	1	0.744	61	0	82
69	1	448	1	1	3	0.0653	0.0916	1	1	1.237	50	82	0
69	1	449	1	1	3	0.0653	0.0916	1	1	0.795	55	82	0
69	1	450	1	1	1	0.0653	0.0916	0	1	0.603	75	82	82
69	1	451	0	1	3	0.0653	0.0916	1	1	0.586	8	0	82
69	1	452	0	1	3	0.0653	0.0916	0	1	0.533	8	0	0
69	1	453	1	2	2	0.0653	0.0916	1	1	0.451	90	0	82
69	1	454	0	2	2	0.0653	0.0916	0	1	0.580	8	0	0
69	1	455	1	1	1	0.0653	0.0916	1	1	0.831	52	82	0
69	1	456	1	2	3	0.0653	0.0916	0	1	0.592	76	82	82
69	1	457	0	1	1	0.0653	0.0916	0	1	0.703	6	0	0
69	1	458	9	2	2	0.0653	0.0916	1	1	1.130	0	82	0
69	1	459	0	1	3	0.0653	0.0916	1	1	0.966	5	0	82
69	1	460	0	2	3	0.0653	0.0916	1	1	0.868	5	82	0
69	1	461	9	1	3	0.0653	0.0916	1	1	0.580	0	82	0
69	1	462	1	2	3	0.0653	0.0916	1	1	0.798	55	0	82
69	1	463	1	1	3	0.0653	0.0916	0	1	0.701	65	82	82
69	1	464	9	2	2	0.0653	0.0916	1	1	0.502	0	0	82
69	1	465	1	2	3	0.0653	0.0916	1	1	0.512	84	0	82
69	1	466	9	1	3	0.0653	0.0916	0	1	0.746	0	82	82
69	1	467	0	2	2	0.0653	0.0916	1	1	0.485	9	82	0
69	1	468	1	2	1	0.0653	0.0916	1	1	0.622	73	0	82
69	1	469	0	1	2	0.0653	0.0916	0	1	0.769	6	0	0
69	1	470	1	2	2	0.0653	0.0916	0	1	0.767	58	82	82
69	1	471	9	2	2	0.0653	0.0916	0	1	0.694	0	82	82
69	1	472	1	2	2	0.0653	0.0916	1	1	1.035	50	0	82
69	1	473	0	2	3	0.0653	0.0916	1	1	0.458	9	82	0
69	1	474	0	1	1	0.0653	0.0916	1	1	0.535	8	0	82
69	1	475	1	1	2	0.0653	0.0916	1	1	0.874	50	82	0
69	1	476	9	2	3	0.0653	0.0916	1	1	0.671	0	82	0
69	1	477	9	1	3	0.0653	0.0916	0	1	0.609	0	82	82
69	1	478	9	1	3	0.0653	0.0916	0	1	0.489	0	0	0
69	1	479	0	1	3	0.0653	0.0916	1	1	0.881	5	0	82
69	1	480	0	2	2	0.0653	0.0916	1	1	0.550	8	82	0
69	1	481	1	1	3	0.0653	0.0916	0	1	0.547	80	82	82
69	1	482	1	2	2	0.0653	0.0916	1	1	0.489	86	0	82
69	1	483	0	1	3	0.0653	0.0916	1	1	0.679	7	0	82
69	1	484	9	1	2	0.0653	0.0916	1	1	0.873	0	0	82
69	1	485	1	2	2	0.0653	0.0916	0	1	0.529	82	82	82
69	1	486	1	1	3	0.0653	0.0916	0	1	0.610	74	82	82
69	1	487	1	1	1	0.0653	0.0916	0	0	0.639	0	82	82
69	1	488	9	1	1	0.0653	0.0916	1	1	0.705	0	82	0
69	1	489	9	2	3	0.0653	0.0916	0	1	1.167	0	82	82
69	1	490	9	2	3	0.0653	0.0916	0	1	0.773	0	82	82
69	1	491	1	1	1	0.0653	0.0916	0	1	0.592	76	82	82
69	1	492	0	2	2	0.0653	0.0916	1	1	0.680	7	82	0
69	1	493	9	2	2	0.0653	0.0916	1	1	0.493	0	0	82
69	1	494	0	2	1	0.0653	0.0916	0	1	0.967	5	0	0
69	1	495	0	1	3	0.0653	0.0916	1	1	0.612	7	0	82
69	1	496	0	2	2	0.0653	0.0916	0	0	0.533	0	0	0
69	1	497	0	1	3	0.0653	0.0916	1	1	0.576	8	0	82
69	1	498	0	2	1	0.0653	0.0916	1	1	1.172	5	82	0
69	1	499	1	2	3	0.0653	0.0916	0	1	0.744	61	82	82
69	1	500	0	2	2	0.0653	0.0916	0	1	0.763	6	0	0
69	1	501	1	1	2	0.0653	0.0916	1	1	0.799	55	82	0
69	1	502	0	2	2	0.0653	0.0916	1	1	0.547	8	82	0
69	1	503	9	2	3	0.0653	0.0916	0	0	0.901	0	0	0
69	1	504	0	2	1	0.0653	0.0916	1	1	1.286	5	82	0
69	1	505	9	2	3	0.0653	0.0916	1	1	0.623	0	0	82
69	1	506	0	2	3	0.0653	0.0916	0	1	0.654	7	0	0
69	1	507	0	2	3	0.0653	0.0916	1	1	0.548	8	82	0
69	1	508	1	2	1	0.0653	0.0916	0	1	0.750	60	82	82
69	1	509	0	2	3	0.0653	0.0916	0	1	0.805	5	0	0
69	1	510	1	2	3	0.0653	0.0916	1	1	0.499	85	0	82
69	1	511	0	2	3	0.0653	0.0916	1	1	0.625	7	82	0
69	1	512	0	1	1	0.0653	0.0916	1	1	0.648	7	0	82
69	1	513	9	1	3	0.0653	0.0916	1	1	0.583	0	0	82
69	1	514	1	2	1	0.0653	0.0916	0	1	0.869	50	82	82
69	1	515	0	1	1	0.0653	0.0916	0	1	0.713	6	0	0
69	1	516	0	2	2	0.0653	0.0916	1	1	0.468	9	82	0
69	1	517	1	1	1	0.0653	0.0916	0	0	0.450	0	82	82
69	1	518	1	2	2	0.0653	0.0916	1	1	0.541	81	0	82
69	1	519	9	2	1	0.0653	0.0916	1	1	1.241	0	0	82
69	1	520	0	1	3	0.0653	0.0916	1	1	0.722	6	0	82
69	1	521	0	2	3	0.0653	0.0916	0	0	0.453	0	0	0
69	1	522	0	1	1	0.0653	0.0916	0	1	0.745	6	0	0
69	1	523	0	2	3	0.0653	0.0916	1	1	0.781	6	82	0
69	1	524	1	1	1	0.0653	0.0916	0	1	0.535	82	82	82
69	1	525	0	2	2	0.0653	0.0916	0	1	0.532	8	0	0
69	1	526	1	1	1	0.0653	0.0916	1	1	0.500	85	82	0
69	1	527	0	2	2	0.0653	0.0916	1	1	0.427	9	82	0
69	1	528	0	1	3	0.0653	0.0916	0	1	0.811	5	0	0
69	1	529	1	1	3	0.0653	0.0916	1	1	0.660	69	82	0
69	1	530	1	2	2	0.0653	0.0916	0	1	0.694	66	82	82
69	1	531	1	2	2	0.0653	0.0916	1	1	0.490	86	0	82
69	1	532	0	2	2	0.0653	0.0916	0	1	0.683	7	0	0
69	1	533	1	2	3	0.0653	0.0916	1	1	0.526	82	0	82
69	1	534	0	2	2	0.0653	0.0916	1	1	0.459	9	82	0
69	1	535	9	2	3	0.0653	0.0916	1	1	0.556	0	82	0
69	1	536	9	1	1	0.0653	0.0916	1	1	0.930	0	0	82
69	1	537	1	2	3	0.0653	0.0916	1	1	0.642	71	0	82
69	1	538	1	2	3	0.0653	0.0916	1	1	0.525	83	0	82
69	1	539	1	2	2	0.0653	0.0916	0	1	0.561	79	82	82
69	1	540	0	1	1	0.0653	0.0916	1	1	0.694	7	0	82
69	1	541	1	1	3	0.0653	0.0916	1	1	0.585	76	82	0
69	1	542	9	1	1	0.0653	0.0916	0	1	0.549	0	0	0
69	1	543	0	2	3	0.0653	0.0916	1	1	0.653	7	82	0
69	1	544	0	1	3	0.0653	0.0916	0	1	0.583	8	0	0
69	1	545	0	1	1	0.0653	0.0916	0	1	0.574	8	0	0
69	1	546	0	2	3	0.0653	0.0916	0	0	0.762	0	0	0
69	1	547	9	1	1	0.0653	0.0916	1	1	0.662	0	82	0
69	1	548	9	2	2	0.0653	0.0916	0	1	0.597	0	0	0
69	1	549	0	1	2	0.0653	0.0916	1	1	1.046	5	0	82
69	1	550	1	1	1	0.0653	0.0916	1	1	0.589	76	82	0
69	1	551	9	2	3	0.0653	0.0916	1	1	0.499	0	0	82
69	1	552	9	2	3	0.0653	0.0916	1	1	0.569	0	0	82
69	1	553	0	1	1	0.0653	0.0916	1	1	0.701	6	0	82
69	1	554	9	2	1	0.0653	0.0916	0	1	0.766	0	82	82
69	1	555	1	2	3	0.0653	0.0916	0	1	0.636	71	82	82
69	1	556	0	1	3	0.0653	0.0916	0	1	0.529	8	0	0
69	1	557	1	2	3	0.0653	0.0916	0	1	0.723	63	82	82
69	1	558	1	2	2	0.0653	0.0916	1	1	0.568	78	0	82
69	1	559	0	1	1	0.0653	0.0916	0	1	0.677	7	0	0
69	1	560	9	2	1	0.0653	0.0916	1	1	0.742	0	82	0
69	1	561	1	1	3	0.0653	0.0916	0	1	0.509	84	82	82
69	1	562	0	2	3	0.0653	0.0916	1	1	0.581	8	82	0
69	1	563	9	1	1	0.0653	0.0916	0	1	0.423	0	82	82
69	1	564	0	2	2	0.0653	0.0916	1	1	0.431	9	82	0
69	1	565	9	2	3	0.0653	0.0916	0	1	0.585	0	0	0
69	1	566	0	1	3	0.0653	0.0916	0	1	0.433	9	0	0
69	1	567	0	2	1	0.0653	0.0916	0	0	1.444	0	0	0
69	1	568	0	1	2	0.0653	0.0916	0	1	0.628	7	0	0
69	1	569	9	1	1	0.0653	0.0916	0	1	0.408	0	0	0
69	1	570	9	2	2	0.0653	0.0916	1	1	0.670	0	82	0
69	1	571	0	1	1	0.0653	0.0916	1	1	0.980	5	0	82
69	1	572	1	1	1	0.0653	0.0916	0	1	0.691	66	82	82
69	1	573	0	1	1	0.0653	0.0916	1	0	0.780	0	0	82
69	1	574	1	2	2	0.0653	0.0916	0	1	0.979	50	82	82
69	1	575	0	2	3	0.0653	0.0916	1	1	0.600	8	82	0
69	1	576	0	1	3	0.0653	0.0916	0	1	0.483	9	0	0
69	1	577	1	2	2	0.0653	0.0916	1	1	0.544	81	0	82
69	1	578	9	2	3	0.0653	0.0916	1	1	0.523	0	0	82
69	1	579	0	1	1	0.0653	0.0916	0	0	0.658	0	0	0
69	1	580	9	1	1	0.0653	0.0916	1	1	0.627	0	0	82
69	1	581	1	1	1	0.0653	0.0916	0	1	0.617	73	82	82
69	1	582	0	2	3	0.0653	0.0916	0	0	0.991	0	0	0
69	1	583	1	1	3	0.0653	0.0916	0	0	1.080	0	82	82
69	1	584	1	1	3	0.0653	0.0916	0	1	0.536	81	82	82
69	1	585	1	2	3	0.0653	0.0916	1	1	0.623	73	0	82
69	1	586	1	2	2	0.0653	0.0916	1	1	0.554	80	0	82
69	1	587	9	2	2	0.0653	0.0916	0	1	0.595	0	0	0
69	1	588	1	1	3	0.0653	0.0916	1	1	0.788	56	82	0
69	1	589	1	1	1	0.0653	0.0916	1	1	0.594	76	82	0
69	1	590	0	1	3	0.0653	0.0916	0	1	0.574	8	0	0
69	1	591	9	1	3	0.0653	0.0916	0	1	0.522	0	0	0
69	1	592	9	2	2	0.0653	0.0916	0	1	0.619	0	82	82
69	1	593	0	2	2	0.0653	0.0916	1	1	0.507	8	82	0
69	1	594	1	1	3	0.0653	0.0916	1	1	0.953	50	82	0
69	1	595	0	2	3	0.0653	0.0916	1	1	0.876	5	82	0
69	1	596	1	2	3	0.0653	0.0916	0	0	0.839	0	82	82
69	1	597	1	1	1	0.0653	0.0916	1	0	0.713	0	82	0
69	1	598	0	2	3	0.0653	0.0916	1	1	1.181	5	82	0
69	1	599	0	1	1	0.0653	0.0916	1	1	2.006	5	0	82
69	1	600	9	1	1	0.0653	0.0916	0	0	1.331	0	82	82
69	1	601	1	1	2	0.0653	0.0916	1	1	0.930	50	82	0
69	1	602	1	1	1	0.0653	0.0916	1	1	0.660	69	82	0
69	1	603	0	2	2	0.0653	0.0916	0	1	0.652	7	0	0
69	1	604	0	1	1	0.0653	0.0916	1	1	0.558	8	0	82
69	1	605	1	2	2	0.0653	0.0916	1	1	0.654	70	0	82
69	1	606	1	1	3	0.0653	0.0916	0	1	0.608	74	82	82
69	1	607	1	1	2	0.0653	0.0916	0	1	0.804	55	82	82
69	1	608	1	2	3	0.0653	0.0916	0	1	1.608	50	82	82
69	1	609	0	1	1	0.0653	0.0916	1	1	0.811	5	0	82
69	1	610	9	1	3	0.0653	0.0916	1	1	0.897	0	0	82
69	1	611	0	2	2	0.0653	0.0916	0	1	0.609	7	0	0
69	1	612	1	1	1	0.0653	0.0916	0	1	1.378	50	82	82
69	1	613	1	1	1	0.0653	0.0916	1	1	1.184	50	82	0
69	1	614	0	1	1	0.0653	0.0916	0	1	0.550	8	0	0
69	1	615	0	2	3	0.0653	0.0916	0	1	1.107	5	0	0
69	1	616	1	1	2	0.0653	0.0916	0	1	0.817	53	82	82
69	1	617	9	1	3	0.0653	0.0916	1	1	0.813	0	82	0
69	1	618	0	1	3	0.0653	0.0916	0	1	0.587	8	0	0
69	1	619	1	1	1	0.0653	0.0916	1	1	0.599	75	82	0
69	1	620	9	2	3	0.0653	0.0916	0	1	1.430	0	0	0
69	1	621	9	2	2	0.0653	0.0916	1	1	0.615	0	0	82
69	1	622	1	2	2	0.0653	0.0916	0	1	0.644	71	82	82
69	1	623	0	1	1	0.0653	0.0916	0	1	0.464	9	0	0
69	1	624	1	2	3	0.0653	0.0916	0	1	0.956	50	82	82
69	1	625	0	1	1	0.0653	0.0916	0	1	0.571	8	0	0
69	1	626	1	1	3	0.0653	0.0916	1	1	1.094	50	82	0
69	1	627	0	2	2	0.0653	0.0916	1	1	0.451	9	82	0
69	1	628	1	1	3	0.0653	0.0916	1	0	0.698	0	82	0
69	1	629	0	1	3	0.0653	0.0916	1	1	0.918	5	0	82
69	1	630	0	2	3	0.0653	0.0916	1	1	0.771	6	82	0
69	1	631	1	1	1	0.0653	0.0916	0	1	0.731	62	82	82
69	1	632	0	1	1	0.0653	0.0916	0	1	0.882	5	0	0
69	1	633	9	2	2	0.0653	0.0916	1	1	1.219	0	82	0
69	1	634	0	1	1	0.0653	0.0916	0	1	0.672	7	0	0
69	1	635	0	2	1	0.0653	0.0916	1	1	1.230	5	82	0
69	1	636	0	2	2	0.0653	0.0916	0	1	0.540	8	0	0
69	1	637	9	1	1	0.0653	0.0916	0	1	0.580	0	82	82
69	1	638	0	1	1	0.0653	0.0916	0	1	0.526	8	0	0
69	1	639	1	1	1	0.0653	0.0916	0	1	0.476	87	82	82
69	1	640	0	2	2	0.0653	0.0916	0	1	0.913	5	0	0
69	1	641	0	2	2	0.0653	0.0916	1	1	0.732	6	82	0
69	1	642	1	1	1	0.0653	0.0916	1	0	0.669	0	82	0
69	1	643	1	1	3	0.0653	0.0916	0	1	1.166	50	82	82
69	1	644	9	2	3	0.0653	0.0916	1	1	0.548	0	82	0
69	1	645	0	2	3	0.0653	0.0916	0	1	0.564	8	0	0
69	1	646	1	2	3	0.0653	0.0916	0	1	0.697	65	82	82
69	1	647	0	2	3	0.0653	0.0916	0	1	0.621	7	0	0
69	1	648	9	1	3	0.0653	0.0916	1	1	0.973	0	82	0
69	1	649	1	1	3	0.0653	0.0916	1	1	1.037	50	82	0
69	1	650	9	1	2	0.0653	0.0916	0	1	0.817	0	0	0
69	1	651	0	1	3	0.0653	0.0916	1	0	0.930	0	0	82
69	1	652	1	1	3	0.0653	0.0916	1	1	0.682	67	82	0
69	1	653	1	1	2	0.0653	0.0916	1	1	0.855	50	82	0
69	1	654	9	1	3	0.0653	0.0916	0	1	0.769	0	82	82
69	1	655	1	1	1	0.0653	0.0916	0	1	0.529	82	82	82
69	1	656	0	1	1	0.0653	0.0916	1	1	0.634	7	0	82
69	1	657	1	2	2	0.0653	0.0916	0	1	0.747	60	82	82
69	1	658	0	2	2	0.0653	0.0916	0	1	0.726	6	0	0
69	1	659	0	1	1	0.0653	0.0916	0	1	0.617	7	0	0
69	1	660	0	2	1	0.0653	0.0916	0	1	1.111	5	0	0
69	1	661	9	1	3	0.0653	0.0916	0	1	0.607	0	82	82
69	1	662	0	2	3	0.0653	0.0916	0	1	0.627	7	0	0
69	1	663	1	1	1	0.0653	0.0916	1	1	0.585	76	82	0
69	1	664	1	1	1	0.0653	0.0916	0	1	0.511	84	82	82
69	1	665	0	2	3	0.0653	0.0916	0	1	0.720	6	0	0
69	1	666	1	1	1	0.0653	0.0916	1	1	0.686	66	82	0
69	1	667	9	1	3	0.0653	0.0916	1	1	0.603	0	82	0
69	1	668	9	2	1	0.0653	0.0916	0	1	0.806	0	0	0
69	1	669	0	2	1	0.0653	0.0916	0	1	1.363	5	0	0
69	1	670	9	2	3	0.0653	0.0916	0	1	0.523	0	82	82
69	1	671	1	2	2	0.0653	0.0916	1	1	0.618	73	0	82
69	1	672	1	2	2	0.0653	0.0916	0	0	1.359	0	82	82
69	1	673	0	1	3	0.0653	0.0916	0	1	0.528	8	0	0
69	1	674	0	2	2	0.0653	0.0916	1	1	0.530	8	82	0
69	1	675	0	2	3	0.0653	0.0916	1	1	0.806	5	82	0
69	1	676	1	1	3	0.0653	0.0916	0	1	0.780	57	82	82
69	1	677	0	1	1	0.0653	0.0916	1	1	0.617	7	0	82
69	1	678	9	2	2	0.0653	0.0916	0	1	0.617	0	82	82
69	1	679	0	2	2	0.0653	0.0916	0	0	2.135	0	0	0
69	1	680	1	2	3	0.0653	0.0916	1	1	0.588	76	0	82
69	1	681	0	1	3	0.0653	0.0916	0	1	0.462	9	0	0
69	1	682	0	2	3	0.0653	0.0916	0	0	0.468	0	0	0
69	1	683	1	1	3	0.0653	0.0916	1	1	0.536	81	82	0
69	1	684	9	1	1	0.0653	0.0916	0	1	0.486	0	0	0
69	1	685	0	2	2	0.0653	0.0916	1	1	0.513	8	82	0
69	1	686	0	2	3	0.0653	0.0916	0	1	0.545	8	0	0
69	1	687	0	2	2	0.0653	0.0916	0	1	0.593	8	0	0
69	1	688	1	2	2	0.0653	0.0916	1	1	0.522	83	0	82
69	1	689	9	1	1	0.0653	0.0916	1	1	0.758	0	0	82
69	1	690	1	2	2	0.0653	0.0916	1	1	0.713	64	0	82
69	1	691	0	2	3	0.0653	0.0916	0	1	1.407	5	0	0
69	1	692	0	2	2	0.0653	0.0916	1	1	0.601	7	82	0
69	1	693	1	2	3	0.0653	0.0916	0	1	0.814	54	82	82
69	1	694	1	1	1	0.0653	0.0916	1	1	0.465	88	82	0
69	1	695	9	2	2	0.0653	0.0916	1	1	0.478	0	82	0
69	1	696	0	2	3	0.0653	0.0916	1	1	0.536	8	82	0
69	1	697	1	2	1	0.0653	0.0916	0	1	0.799	55	82	82
69	1	698	1	2	3	0.0653	0.0916	0	1	0.581	77	82	82
69	1	699	1	1	1	0.0653	0.0916	1	1	0.488	86	82	0
69	1	700	0	1	2	0.0653	0.0916	0	1	0.945	5	0	0
69	1	701	1	1	3	0.0653	0.0916	0	1	0.580	77	82	82
69	1	702	0	2	2	0.0653	0.0916	0	1	0.631	7	0	0
69	1	703	0	2	1	0.0653	0.0916	1	1	0.851	5	82	0
69	1	704	1	1	3	0.0653	0.0916	0	1	0.588	76	82	82
69	1	705	0	2	3	0.0653	0.0916	0	1	0.452	9	0	0
69	1	706	1	2	2	0.0653	0.0916	0	1	0.421	93	82	82
69	1	707	1	1	3	0.0653	0.0916	1	1	0.764	59	82	0
69	1	708	1	1	1	0.0653	0.0916	1	1	0.537	81	82	0
69	1	709	1	2	2	0.0653	0.0916	1	1	0.586	76	0	82
69	1	710	1	2	2	0.0653	0.0916	0	1	0.498	85	82	82
69	1	711	0	1	1	0.0653	0.0916	1	1	0.550	8	0	82
69	1	712	9	1	3	0.0653	0.0916	1	1	0.688	0	0	82
69	1	713	0	2	2	0.0653	0.0916	0	1	0.560	8	0	0
69	1	714	1	1	1	0.0653	0.0916	1	1	0.458	89	82	0
69	1	715	1	1	3	0.0653	0.0916	1	1	0.695	65	82	0
69	1	716	0	1	1	0.0653	0.0916	0	1	0.598	8	0	0
69	1	717	1	1	1	0.0653	0.0916	1	1	0.663	69	82	0
69	1	718	1	2	2	0.0653	0.0916	0	1	0.536	81	82	82
69	1	719	1	2	3	0.0653	0.0916	0	1	0.782	57	82	82
69	1	720	1	2	3	0.0653	0.0916	0	1	0.599	75	82	82
