sub	sess	t	rew	loc	cue	co1	co2	or	resp	rt	rew_tot	left_col	right_col
32	1	1	1	2	2	0.1925	0.2488	1	1	0.950	50	82	0
32	1	2	1	2	3	0.1925	0.2488	1	1	1.290	50	82	0
32	1	3	9	1	3	0.1925	0.2488	0	1	1.352	0	0	0
32	1	4	1	2	3	0.1925	0.2488	0	1	0.579	77	0	0
32	1	5	1	2	2	0.1925	0.2488	1	1	0.806	54	82	0
32	1	6	1	1	1	0.1925	0.2488	0	1	1.304	50	0	0
32	1	7	1	1	1	0.1925	0.2488	1	1	0.701	65	0	82
32	1	8	1	1	3	0.1925	0.2488	1	1	1.045	50	0	82
32	1	9	9	1	1	0.1925	0.2488	0	1	0.739	0	82	82
32	1	10	1	1	3	0.1925	0.2488	1	1	0.886	50	0	82
32	1	11	0	2	2	0.1925	0.2488	0	0	0.565	0	82	82
32	1	12	0	2	2	0.1925	0.2488	0	1	0.736	6	82	82
32	1	13	0	2	1	0.1925	0.2488	0	1	0.779	6	82	82
32	1	14	1	1	3	0.1925	0.2488	1	0	1.221	0	0	82
32	1	15	1	2	2	0.1925	0.2488	0	0	1.159	0	0	0
32	1	16	9	2	3	0.1925	0.2488	1	1	1.427	0	82	0
32	1	17	1	1	3	0.1925	0.2488	1	1	0.948	50	0	82
32	1	18	1	1	2	0.1925	0.2488	1	1	0.790	56	0	82
32	1	19	0	1	3	0.1925	0.2488	0	0	1.551	0	82	82
32	1	20	0	1	1	0.1925	0.2488	0	1	0.764	6	82	82
32	1	21	0	1	3	0.1925	0.2488	1	1	1.192	5	82	0
32	1	22	9	2	1	0.1925	0.2488	0	0	1.963	0	82	82
32	1	23	1	2	3	0.1925	0.2488	1	0	0.864	0	82	0
32	1	24	1	1	3	0.1925	0.2488	0	1	0.893	50	0	0
32	1	25	0	2	3	0.1925	0.2488	1	1	1.404	5	0	82
32	1	26	1	2	3	0.1925	0.2488	1	1	0.879	50	82	0
32	1	27	0	1	3	0.1925	0.2488	1	1	0.684	7	82	0
32	1	28	1	2	3	0.1925	0.2488	1	1	0.754	60	82	0
32	1	29	0	2	3	0.1925	0.2488	1	1	0.589	8	0	82
32	1	30	1	2	3	0.1925	0.2488	0	0	1.007	0	0	0
32	1	31	1	2	3	0.1925	0.2488	1	1	1.001	50	82	0
32	1	32	1	1	3	0.1925	0.2488	0	0	1.204	0	0	0
32	1	33	0	1	3	0.1925	0.2488	0	1	0.854	5	82	82
32	1	34	0	2	3	0.1925	0.2488	0	1	0.632	7	82	82
32	1	35	0	1	1	0.1925	0.2488	1	1	0.967	5	82	0
32	1	36	0	1	3	0.1925	0.2488	1	0	1.000	0	82	0
32	1	37	1	1	2	0.1925	0.2488	0	0	1.425	0	0	0
32	1	38	1	2	3	0.1925	0.2488	0	0	2.522	0	0	0
32	1	39	0	2	2	0.1925	0.2488	1	1	1.214	5	0	82
32	1	40	0	1	3	0.1925	0.2488	1	1	2.774	5	82	0
32	1	41	9	1	3	0.1925	0.2488	1	1	1.163	0	0	82
32	1	42	1	2	3	0.1925	0.2488	0	1	1.182	50	0	0
32	1	43	1	2	2	0.1925	0.2488	1	1	0.690	66	82	0
32	1	44	0	2	2	0.1925	0.2488	0	0	0.735	0	82	82
32	1	45	9	1	1	0.1925	0.2488	0	1	0.922	0	0	0
32	1	46	1	1	1	0.1925	0.2488	1	1	0.830	52	0	82
32	1	47	1	1	1	0.1925	0.2488	1	1	0.976	50	0	82
32	1	48	1	2	2	0.1925	0.2488	0	1	1.610	50	0	0
32	1	49	1	2	3	0.1925	0.2488	0	1	1.404	50	0	0
32	1	50	0	2	3	0.1925	0.2488	1	1	0.717	6	0	82
32	1	51	9	2	2	0.1925	0.2488	0	1	1.049	0	0	0
32	1	52	0	2	3	0.1925	0.2488	0	1	0.658	7	82	82
32	1	53	0	1	3	0.1925	0.2488	1	1	0.737	6	82	0
32	1	54	9	1	2	0.1925	0.2488	1	1	0.903	0	0	82
32	1	55	9	1	1	0.1925	0.2488	0	1	0.653	0	82	82
32	1	56	0	2	3	0.1925	0.2488	0	1	0.772	6	82	82
32	1	57	0	1	1	0.1925	0.2488	1	1	0.610	7	82	0
32	1	58	1	2	2	0.1925	0.2488	1	1	0.913	50	82	0
32	1	59	9	2	1	0.1925	0.2488	0	1	0.621	0	0	0
32	1	60	1	1	3	0.1925	0.2488	1	1	0.949	50	0	82
32	1	61	1	2	2	0.1925	0.2488	1	1	0.886	50	82	0
32	1	62	9	2	3	0.1925	0.2488	0	1	0.645	0	0	0
32	1	63	9	1	2	0.1925	0.2488	0	0	0.910	0	0	0
32	1	64	1	2	2	0.1925	0.2488	0	0	0.630	0	0	0
32	1	65	0	1	1	0.1925	0.2488	1	1	0.880	5	82	0
32	1	66	0	1	1	0.1925	0.2488	0	1	0.700	7	82	82
32	1	67	1	1	1	0.1925	0.2488	0	1	0.624	73	0	0
32	1	68	0	2	3	0.1925	0.2488	1	1	0.976	5	0	82
32	1	69	1	2	2	0.1925	0.2488	0	1	1.033	50	0	0
32	1	70	0	1	1	0.1925	0.2488	1	1	1.352	5	82	0
32	1	71	9	2	2	0.1925	0.2488	1	1	0.779	0	0	82
32	1	72	9	2	3	0.1925	0.2488	0	0	0.671	0	82	82
32	1	73	9	2	2	0.1925	0.2488	1	1	0.903	0	82	0
32	1	74	0	1	1	0.1925	0.2488	1	1	1.018	5	82	0
32	1	75	1	2	1	0.1925	0.2488	0	0	1.981	0	0	0
32	1	76	1	2	2	0.1925	0.2488	0	1	1.112	50	0	0
32	1	77	0	2	3	0.1925	0.2488	1	1	0.934	5	0	82
32	1	78	0	1	2	0.1925	0.2488	0	0	1.156	0	82	82
32	1	79	1	2	3	0.1925	0.2488	1	1	0.945	50	82	0
32	1	80	0	2	2	0.1925	0.2488	1	1	0.862	5	0	82
32	1	81	9	1	3	0.1925	0.2488	0	1	1.474	0	82	82
32	1	82	0	1	1	0.1925	0.2488	1	1	1.905	5	82	0
32	1	83	1	2	3	0.1925	0.2488	1	1	1.022	50	82	0
32	1	84	0	1	2	0.1925	0.2488	0	0	1.142	0	82	82
32	1	85	9	1	1	0.1925	0.2488	1	0	0.866	0	0	82
32	1	86	0	1	3	0.1925	0.2488	0	1	2.016	5	82	82
32	1	87	1	1	1	0.1925	0.2488	0	1	0.703	65	0	0
32	1	88	0	2	1	0.1925	0.2488	1	0	3.395	0	0	82
32	1	89	0	2	2	0.1925	0.2488	1	1	0.914	5	0	82
32	1	90	9	1	1	0.1925	0.2488	1	1	0.974	0	0	82
32	1	91	0	1	2	0.1925	0.2488	1	0	1.680	0	82	0
32	1	92	0	1	3	0.1925	0.2488	0	0	1.710	0	82	82
32	1	93	1	2	1	0.1925	0.2488	1	0	4.981	0	82	0
32	1	94	1	1	1	0.1925	0.2488	0	1	1.241	50	0	0
32	1	95	0	1	1	0.1925	0.2488	0	1	1.041	5	82	82
32	1	96	0	1	3	0.1925	0.2488	0	1	1.159	5	82	82
32	1	97	1	2	2	0.1925	0.2488	1	1	0.804	55	82	0
32	1	98	0	2	3	0.1925	0.2488	0	1	1.214	5	82	82
32	1	99	1	2	2	0.1925	0.2488	0	1	1.214	50	0	0
32	1	100	0	2	3	0.1925	0.2488	1	1	0.695	7	0	82
32	1	101	0	1	1	0.1925	0.2488	0	1	1.223	5	82	82
32	1	102	1	2	2	0.1925	0.2488	1	1	0.655	70	82	0
32	1	103	0	2	2	0.1925	0.2488	1	1	0.646	7	0	82
32	1	104	1	1	3	0.1925	0.2488	0	0	1.000	0	0	0
32	1	105	0	1	3	0.1925	0.2488	0	1	0.751	6	82	82
32	1	106	1	2	2	0.1925	0.2488	0	0	0.852	0	0	0
32	1	107	0	2	2	0.1925	0.2488	1	1	0.844	5	0	82
32	1	108	1	1	3	0.1925	0.2488	0	1	0.857	50	0	0
32	1	109	0	2	3	0.1925	0.2488	0	0	1.370	0	82	82
32	1	110	9	1	1	0.1925	0.2488	1	0	0.828	0	82	0
32	1	111	1	2	2	0.1925	0.2488	1	1	0.829	52	82	0
32	1	112	1	2	2	0.1925	0.2488	1	1	0.702	65	82	0
32	1	113	0	2	2	0.1925	0.2488	0	1	0.789	6	82	82
32	1	114	9	2	3	0.1925	0.2488	1	1	0.846	0	0	82
32	1	115	9	2	3	0.1925	0.2488	1	1	0.803	0	82	0
32	1	116	9	1	1	0.1925	0.2488	1	1	1.062	0	0	82
32	1	117	1	1	3	0.1925	0.2488	0	1	0.732	62	0	0
32	1	118	0	1	1	0.1925	0.2488	0	1	0.744	6	82	82
32	1	119	1	2	2	0.1925	0.2488	1	1	0.708	64	82	0
32	1	120	0	1	1	0.1925	0.2488	1	1	1.491	5	82	0
32	1	121	1	2	1	0.1925	0.2488	0	0	2.031	0	0	0
32	1	122	0	2	2	0.1925	0.2488	0	1	0.654	7	82	82
32	1	123	0	2	2	0.1925	0.2488	1	1	0.790	6	0	82
32	1	124	1	2	3	0.1925	0.2488	1	1	0.728	62	82	0
32	1	125	1	1	3	0.1925	0.2488	1	1	0.918	50	0	82
32	1	126	0	2	3	0.1925	0.2488	0	1	0.690	7	82	82
32	1	127	0	1	1	0.1925	0.2488	0	1	0.712	6	82	82
32	1	128	0	1	1	0.1925	0.2488	0	1	0.485	9	82	82
32	1	129	0	1	3	0.1925	0.2488	1	1	0.722	6	82	0
32	1	130	1	2	2	0.1925	0.2488	1	1	0.808	54	82	0
32	1	131	0	1	1	0.1925	0.2488	0	1	0.801	5	82	82
32	1	132	0	1	2	0.1925	0.2488	0	1	0.881	5	82	82
32	1	133	0	2	3	0.1925	0.2488	1	0	1.090	0	0	82
32	1	134	1	2	3	0.1925	0.2488	1	1	0.717	63	82	0
32	1	135	1	1	3	0.1925	0.2488	0	1	1.232	50	0	0
32	1	136	1	2	3	0.1925	0.2488	1	1	0.955	50	82	0
32	1	137	1	2	3	0.1925	0.2488	0	1	1.302	50	0	0
32	1	138	0	2	2	0.1925	0.2488	0	1	0.964	5	82	82
32	1	139	1	2	2	0.1925	0.2488	1	1	0.632	72	82	0
32	1	140	0	1	1	0.1925	0.2488	0	1	0.665	7	82	82
32	1	141	9	1	2	0.1925	0.2488	0	1	1.095	0	82	82
32	1	142	1	1	1	0.1925	0.2488	1	0	1.197	0	0	82
32	1	143	9	1	3	0.1925	0.2488	1	1	0.719	0	82	0
32	1	144	9	2	3	0.1925	0.2488	1	1	0.988	0	82	0
32	1	145	1	1	3	0.1925	0.2488	0	1	0.767	58	0	0
32	1	146	0	2	3	0.1925	0.2488	0	1	0.753	6	82	82
32	1	147	0	1	1	0.1925	0.2488	0	1	0.598	8	82	82
32	1	148	0	2	3	0.1925	0.2488	0	0	0.638	0	82	82
32	1	149	1	2	3	0.1925	0.2488	1	1	0.940	50	82	0
32	1	150	9	1	3	0.1925	0.2488	0	1	0.736	0	0	0
32	1	151	0	1	2	0.1925	0.2488	1	1	1.091	5	82	0
32	1	152	1	1	1	0.1925	0.2488	0	1	0.931	50	0	0
32	1	153	1	1	3	0.1925	0.2488	1	0	0.716	0	0	82
32	1	154	0	1	3	0.1925	0.2488	1	1	0.842	5	82	0
32	1	155	1	2	1	0.1925	0.2488	1	1	1.043	50	82	0
32	1	156	0	1	3	0.1925	0.2488	1	1	0.841	5	82	0
32	1	157	1	1	3	0.1925	0.2488	0	1	1.224	50	0	0
32	1	158	1	2	3	0.1925	0.2488	1	1	1.649	50	82	0
32	1	159	0	1	2	0.1925	0.2488	1	1	3.120	5	82	0
32	1	160	1	2	1	0.1925	0.2488	0	1	1.965	50	0	0
32	1	161	0	2	3	0.1925	0.2488	0	1	1.166	5	82	82
32	1	162	0	2	2	0.1925	0.2488	0	1	0.553	8	82	82
32	1	163	0	2	2	0.1925	0.2488	1	1	0.557	8	0	82
32	1	164	1	1	3	0.1925	0.2488	1	1	0.777	57	0	82
32	1	165	9	2	3	0.1925	0.2488	0	1	0.628	0	0	0
32	1	166	1	1	1	0.1925	0.2488	0	1	0.614	74	0	0
32	1	167	9	2	3	0.1925	0.2488	1	1	0.695	0	0	82
32	1	168	0	2	2	0.1925	0.2488	0	1	0.692	7	82	82
32	1	169	1	2	2	0.1925	0.2488	0	1	1.035	50	0	0
32	1	170	9	1	3	0.1925	0.2488	1	1	0.762	0	82	0
32	1	171	0	2	3	0.1925	0.2488	1	0	0.621	0	0	82
32	1	172	1	2	2	0.1925	0.2488	1	1	1.133	50	82	0
32	1	173	0	2	2	0.1925	0.2488	0	1	1.377	5	82	82
32	1	174	1	1	3	0.1925	0.2488	0	1	1.458	50	0	0
32	1	175	0	1	2	0.1925	0.2488	0	1	0.887	5	82	82
32	1	176	0	1	3	0.1925	0.2488	0	1	0.799	6	82	82
32	1	177	0	1	3	0.1925	0.2488	0	1	0.713	6	82	82
32	1	178	1	1	1	0.1925	0.2488	0	1	1.300	50	0	0
32	1	179	9	1	1	0.1925	0.2488	0	1	0.562	0	0	0
32	1	180	1	2	1	0.1925	0.2488	1	0	0.799	0	82	0
32	1	181	1	1	1	0.1925	0.2488	1	1	1.562	50	0	82
32	1	182	9	2	2	0.1925	0.2488	1	1	0.693	0	82	0
32	1	183	9	1	1	0.1925	0.2488	0	1	0.570	0	0	0
32	1	184	1	1	1	0.1925	0.2488	1	0	1.143	0	0	82
32	1	185	0	2	1	0.1925	0.2488	0	0	3.090	0	82	82
32	1	186	0	2	2	0.1925	0.2488	1	1	1.017	5	0	82
32	1	187	1	1	3	0.1925	0.2488	0	1	1.336	50	0	0
32	1	188	0	1	3	0.1925	0.2488	0	1	0.869	5	82	82
32	1	189	1	2	3	0.1925	0.2488	0	1	1.020	50	0	0
32	1	190	1	2	3	0.1925	0.2488	0	1	1.134	50	0	0
32	1	191	9	2	2	0.1925	0.2488	1	1	0.579	0	0	82
32	1	192	0	2	2	0.1925	0.2488	1	1	0.543	8	0	82
32	1	193	1	2	3	0.1925	0.2488	0	1	2.106	50	0	0
32	1	194	1	2	3	0.1925	0.2488	0	1	1.049	50	0	0
32	1	195	1	2	2	0.1925	0.2488	1	1	0.575	78	82	0
32	1	196	9	1	3	0.1925	0.2488	1	1	1.296	0	0	82
32	1	197	1	1	3	0.1925	0.2488	0	1	1.094	50	0	0
32	1	198	1	2	3	0.1925	0.2488	1	1	0.876	50	82	0
32	1	199	9	1	1	0.1925	0.2488	1	1	1.001	0	0	82
32	1	200	0	2	3	0.1925	0.2488	1	1	0.930	5	0	82
32	1	201	0	1	3	0.1925	0.2488	0	0	1.117	0	82	82
32	1	202	1	1	3	0.1925	0.2488	0	1	0.699	65	0	0
32	1	203	0	2	2	0.1925	0.2488	1	1	0.824	5	0	82
32	1	204	1	2	2	0.1925	0.2488	0	1	0.744	61	0	0
32	1	205	0	2	2	0.1925	0.2488	0	1	0.509	8	82	82
32	1	206	9	2	3	0.1925	0.2488	1	1	0.652	0	0	82
32	1	207	0	2	2	0.1925	0.2488	1	1	0.531	8	0	82
32	1	208	9	2	2	0.1925	0.2488	0	1	0.710	0	0	0
32	1	209	9	2	2	0.1925	0.2488	1	1	0.645	0	0	82
32	1	210	0	2	3	0.1925	0.2488	1	1	0.565	8	0	82
32	1	211	1	1	3	0.1925	0.2488	1	1	1.194	50	0	82
32	1	212	1	2	2	0.1925	0.2488	0	0	1.141	0	0	0
32	1	213	0	2	1	0.1925	0.2488	1	0	0.825	0	0	82
32	1	214	9	1	1	0.1925	0.2488	1	0	4.281	0	82	0
32	1	215	0	1	1	0.1925	0.2488	1	1	0.728	6	82	0
32	1	216	0	1	1	0.1925	0.2488	1	1	0.559	8	82	0
32	1	217	0	2	3	0.1925	0.2488	1	1	0.889	5	0	82
32	1	218	1	2	2	0.1925	0.2488	0	1	0.704	65	0	0
32	1	219	9	1	1	0.1925	0.2488	1	1	0.995	0	82	0
32	1	220	9	1	3	0.1925	0.2488	0	0	0.693	0	0	0
32	1	221	0	1	1	0.1925	0.2488	1	1	0.942	5	82	0
32	1	222	9	1	3	0.1925	0.2488	1	1	0.940	0	0	82
32	1	223	1	1	1	0.1925	0.2488	1	1	0.865	50	0	82
32	1	224	0	1	3	0.1925	0.2488	0	1	1.058	5	82	82
32	1	225	0	1	1	0.1925	0.2488	1	1	0.679	7	82	0
32	1	226	9	1	2	0.1925	0.2488	1	1	1.355	0	82	0
32	1	227	9	1	1	0.1925	0.2488	0	1	0.726	0	0	0
32	1	228	0	1	1	0.1925	0.2488	0	1	0.801	5	82	82
32	1	229	0	2	1	0.1925	0.2488	0	1	2.165	5	82	82
32	1	230	1	1	3	0.1925	0.2488	1	1	0.817	53	0	82
32	1	231	1	2	2	0.1925	0.2488	0	1	0.995	50	0	0
32	1	232	0	1	3	0.1925	0.2488	1	1	0.934	5	82	0
32	1	233	1	1	3	0.1925	0.2488	1	1	0.928	50	0	82
32	1	234	0	1	1	0.1925	0.2488	1	1	0.588	8	82	0
32	1	235	0	2	2	0.1925	0.2488	0	1	0.366	10	82	82
32	1	236	1	1	1	0.1925	0.2488	1	1	0.609	74	0	82
32	1	237	1	1	3	0.1925	0.2488	1	1	0.737	61	0	82
32	1	238	9	1	3	0.1925	0.2488	1	0	0.723	0	0	82
32	1	239	0	2	3	0.1925	0.2488	1	1	0.842	5	0	82
32	1	240	1	1	3	0.1925	0.2488	1	1	0.754	60	0	82
32	1	241	0	1	1	0.1925	0.2488	1	1	0.803	5	82	0
32	1	242	9	2	2	0.1925	0.2488	0	1	0.692	0	82	82
32	1	243	1	2	2	0.1925	0.2488	0	1	0.488	86	0	0
32	1	244	1	1	1	0.1925	0.2488	1	1	0.600	75	0	82
32	1	245	0	1	3	0.1925	0.2488	0	1	1.065	5	82	82
32	1	246	1	2	3	0.1925	0.2488	1	1	0.657	69	82	0
32	1	247	1	1	1	0.1925	0.2488	1	1	0.666	68	0	82
32	1	248	9	2	1	0.1925	0.2488	1	0	1.511	0	0	82
32	1	249	9	1	3	0.1925	0.2488	0	1	0.699	0	82	82
32	1	250	0	1	2	0.1925	0.2488	1	1	1.943	5	82	0
32	1	251	0	2	1	0.1925	0.2488	1	0	2.089	0	0	82
32	1	252	0	1	1	0.1925	0.2488	0	0	0.703	0	82	82
32	1	253	0	1	3	0.1925	0.2488	0	1	0.557	8	82	82
32	1	254	1	2	3	0.1925	0.2488	0	1	1.456	50	0	0
32	1	255	1	1	3	0.1925	0.2488	1	1	0.910	50	0	82
32	1	256	1	2	3	0.1925	0.2488	0	1	1.484	50	0	0
32	1	257	1	1	1	0.1925	0.2488	1	1	0.720	63	0	82
32	1	258	1	1	2	0.1925	0.2488	0	0	0.982	0	0	0
32	1	259	0	1	1	0.1925	0.2488	0	1	0.778	6	82	82
32	1	260	9	2	2	0.1925	0.2488	0	1	1.372	0	82	82
32	1	261	1	1	1	0.1925	0.2488	1	0	1.516	0	0	82
32	1	262	0	2	3	0.1925	0.2488	1	1	0.761	6	0	82
32	1	263	1	1	1	0.1925	0.2488	0	1	0.742	61	0	0
32	1	264	9	2	3	0.1925	0.2488	1	1	0.649	0	0	82
32	1	265	9	2	2	0.1925	0.2488	0	1	0.907	0	0	0
32	1	266	1	1	1	0.1925	0.2488	0	1	0.617	73	0	0
32	1	267	9	2	1	0.1925	0.2488	1	1	1.315	0	82	0
32	1	268	1	1	1	0.1925	0.2488	0	1	0.817	53	0	0
32	1	269	0	2	2	0.1925	0.2488	0	1	0.761	6	82	82
32	1	270	1	2	3	0.1925	0.2488	0	1	0.798	55	0	0
32	1	271	0	1	1	0.1925	0.2488	0	1	0.543	8	82	82
32	1	272	9	1	1	0.1925	0.2488	0	1	0.555	0	82	82
32	1	273	0	1	3	0.1925	0.2488	1	1	0.654	7	82	0
32	1	274	1	1	3	0.1925	0.2488	0	1	0.638	71	0	0
32	1	275	0	1	3	0.1925	0.2488	0	1	0.797	6	82	82
32	1	276	9	1	3	0.1925	0.2488	1	1	0.670	0	82	0
32	1	277	9	2	2	0.1925	0.2488	0	1	0.597	0	82	82
32	1	278	9	2	2	0.1925	0.2488	1	1	0.574	0	82	0
32	1	279	0	1	3	0.1925	0.2488	1	1	1.024	5	82	0
32	1	280	1	2	3	0.1925	0.2488	1	1	1.465	50	82	0
32	1	281	1	1	3	0.1925	0.2488	0	1	1.414	50	0	0
32	1	282	1	1	1	0.1925	0.2488	1	1	0.717	63	0	82
32	1	283	0	2	3	0.1925	0.2488	0	1	0.707	6	82	82
32	1	284	0	2	2	0.1925	0.2488	0	1	0.543	8	82	82
32	1	285	9	2	2	0.1925	0.2488	1	1	0.851	0	0	82
32	1	286	0	2	2	0.1925	0.2488	1	1	0.659	7	0	82
32	1	287	1	1	1	0.1925	0.2488	1	1	0.932	50	0	82
32	1	288	1	1	1	0.1925	0.2488	0	1	0.913	50	0	0
32	1	289	1	2	2	0.1925	0.2488	0	1	0.880	50	0	0
32	1	290	1	2	2	0.1925	0.2488	0	1	0.503	85	0	0
32	1	291	1	1	3	0.1925	0.2488	1	0	1.014	0	0	82
32	1	292	0	1	1	0.1925	0.2488	1	1	0.589	8	82	0
32	1	293	0	2	2	0.1925	0.2488	1	1	0.710	6	0	82
32	1	294	9	1	3	0.1925	0.2488	0	1	0.717	0	0	0
32	1	295	0	2	3	0.1925	0.2488	1	1	0.619	7	0	82
32	1	296	9	2	3	0.1925	0.2488	0	1	0.828	0	82	82
32	1	297	0	2	3	0.1925	0.2488	0	1	0.518	8	82	82
32	1	298	1	2	1	0.1925	0.2488	1	0	2.371	0	82	0
32	1	299	0	2	3	0.1925	0.2488	0	0	1.272	0	82	82
32	1	300	1	1	2	0.1925	0.2488	1	1	2.357	50	0	82
32	1	301	0	2	2	0.1925	0.2488	0	1	1.050	5	82	82
32	1	302	1	1	1	0.1925	0.2488	0	1	0.545	81	0	0
32	1	303	0	1	3	0.1925	0.2488	0	1	0.908	5	82	82
32	1	304	0	2	1	0.1925	0.2488	0	1	0.779	6	82	82
32	1	305	0	2	2	0.1925	0.2488	1	1	0.492	9	0	82
32	1	306	0	2	2	0.1925	0.2488	0	1	0.555	8	82	82
32	1	307	9	1	3	0.1925	0.2488	0	1	1.047	0	82	82
32	1	308	1	1	1	0.1925	0.2488	0	1	0.781	57	0	0
32	1	309	1	1	3	0.1925	0.2488	1	1	0.847	50	0	82
32	1	310	0	2	2	0.1925	0.2488	0	1	0.829	5	82	82
32	1	311	1	1	2	0.1925	0.2488	0	1	2.550	50	0	0
32	1	312	1	2	3	0.1925	0.2488	0	1	0.890	50	0	0
32	1	313	1	2	2	0.1925	0.2488	0	1	0.641	71	0	0
32	1	314	9	2	2	0.1925	0.2488	1	1	0.696	0	82	0
32	1	315	0	2	1	0.1925	0.2488	1	1	1.124	5	0	82
32	1	316	1	1	1	0.1925	0.2488	0	1	1.042	50	0	0
32	1	317	0	1	3	0.1925	0.2488	1	1	2.866	5	82	0
32	1	318	0	2	3	0.1925	0.2488	0	1	0.719	6	82	82
32	1	319	0	1	3	0.1925	0.2488	1	1	0.852	5	82	0
32	1	320	0	1	1	0.1925	0.2488	0	1	1.652	5	82	82
32	1	321	1	2	3	0.1925	0.2488	1	1	1.221	50	82	0
32	1	322	1	1	2	0.1925	0.2488	1	1	0.967	50	0	82
32	1	323	1	1	1	0.1925	0.2488	0	1	0.522	83	0	0
32	1	324	0	2	3	0.1925	0.2488	1	1	0.647	7	0	82
32	1	325	0	1	3	0.1925	0.2488	1	1	0.990	5	82	0
32	1	326	1	1	2	0.1925	0.2488	0	1	0.647	70	0	0
32	1	327	1	1	1	0.1925	0.2488	1	0	0.600	0	0	82
32	1	328	0	2	3	0.1925	0.2488	0	0	0.570	0	82	82
32	1	329	1	1	3	0.1925	0.2488	0	1	1.287	50	0	0
32	1	330	0	1	1	0.1925	0.2488	0	0	1.940	0	82	82
32	1	331	1	1	1	0.1925	0.2488	0	1	0.769	58	0	0
32	1	332	0	1	3	0.1925	0.2488	1	1	1.891	5	82	0
32	1	333	9	2	3	0.1925	0.2488	0	1	1.553	0	82	82
32	1	334	9	2	3	0.1925	0.2488	0	1	0.974	0	0	0
32	1	335	1	1	3	0.1925	0.2488	0	0	1.106	0	0	0
32	1	336	9	1	3	0.1925	0.2488	0	1	0.647	0	82	82
32	1	337	0	1	1	0.1925	0.2488	1	1	0.744	6	82	0
32	1	338	1	2	2	0.1925	0.2488	1	1	0.685	67	82	0
32	1	339	0	2	3	0.1925	0.2488	0	0	0.724	0	82	82
32	1	340	0	2	3	0.1925	0.2488	1	1	1.240	5	0	82
32	1	341	9	2	2	0.1925	0.2488	0	1	1.230	0	82	82
32	1	342	1	1	1	0.1925	0.2488	1	1	1.197	50	0	82
32	1	343	0	2	2	0.1925	0.2488	1	1	0.669	7	0	82
32	1	344	1	2	1	0.1925	0.2488	0	0	1.396	0	0	0
32	1	345	9	1	1	0.1925	0.2488	1	1	1.559	0	82	0
32	1	346	0	1	3	0.1925	0.2488	0	0	1.124	0	82	82
32	1	347	1	2	3	0.1925	0.2488	0	1	1.042	50	0	0
32	1	348	9	2	2	0.1925	0.2488	0	1	0.796	0	0	0
32	1	349	9	2	3	0.1925	0.2488	0	1	1.574	0	0	0
32	1	350	9	1	3	0.1925	0.2488	1	1	0.664	0	82	0
32	1	351	9	2	3	0.1925	0.2488	0	0	1.112	0	82	82
32	1	352	0	2	2	0.1925	0.2488	1	1	0.757	6	0	82
32	1	353	9	1	1	0.1925	0.2488	0	1	0.851	0	82	82
32	1	354	9	2	3	0.1925	0.2488	1	1	1.124	0	82	0
32	1	355	0	2	3	0.1925	0.2488	0	1	0.841	5	82	82
32	1	356	0	1	3	0.1925	0.2488	1	1	0.712	6	82	0
32	1	357	1	2	3	0.1925	0.2488	0	1	0.718	63	0	0
32	1	358	0	1	1	0.1925	0.2488	1	0	2.236	0	82	0
32	1	359	1	2	2	0.1925	0.2488	1	1	0.635	72	82	0
32	1	360	1	1	2	0.1925	0.2488	1	1	0.843	51	0	82
32	1	361	1	1	1	0.1925	0.2488	0	1	1.311	50	0	0
32	1	362	1	1	2	0.1925	0.2488	1	1	0.886	50	0	82
32	1	363	0	2	3	0.1925	0.2488	1	1	0.861	5	0	82
32	1	364	1	2	2	0.1925	0.2488	0	0	0.637	0	0	0
32	1	365	1	2	3	0.1925	0.2488	1	1	1.077	50	82	0
32	1	366	9	2	3	0.1925	0.2488	1	1	0.669	0	0	82
32	1	367	9	2	2	0.1925	0.2488	1	1	0.492	0	82	0
32	1	368	1	2	3	0.1925	0.2488	1	1	0.626	72	82	0
32	1	369	1	2	2	0.1925	0.2488	0	0	0.644	0	0	0
32	1	370	9	2	2	0.1925	0.2488	1	0	0.723	0	82	0
32	1	371	0	1	1	0.1925	0.2488	1	1	1.097	5	82	0
32	1	372	1	1	1	0.1925	0.2488	0	0	0.622	0	0	0
32	1	373	9	1	1	0.1925	0.2488	0	1	0.413	0	82	82
32	1	374	0	1	2	0.1925	0.2488	0	1	3.415	5	82	82
32	1	375	9	1	1	0.1925	0.2488	0	1	0.704	0	0	0
32	1	376	1	2	3	0.1925	0.2488	1	1	1.597	50	82	0
32	1	377	9	2	3	0.1925	0.2488	0	0	0.790	0	0	0
32	1	378	1	2	3	0.1925	0.2488	0	0	0.890	0	0	0
32	1	379	0	1	1	0.1925	0.2488	1	0	0.705	0	82	0
32	1	380	1	1	3	0.1925	0.2488	1	1	1.423	50	0	82
32	1	381	1	2	3	0.1925	0.2488	0	1	0.662	69	0	0
32	1	382	1	1	2	0.1925	0.2488	0	1	1.187	50	0	0
32	1	383	9	2	3	0.1925	0.2488	0	1	0.844	0	82	82
32	1	384	9	1	3	0.1925	0.2488	0	0	0.574	0	0	0
32	1	385	0	2	2	0.1925	0.2488	0	1	0.522	8	82	82
32	1	386	1	2	3	0.1925	0.2488	0	1	0.885	50	0	0
32	1	387	0	2	3	0.1925	0.2488	1	1	0.589	8	0	82
32	1	388	1	1	3	0.1925	0.2488	1	1	0.702	65	0	82
32	1	389	0	1	1	0.1925	0.2488	1	1	0.579	8	82	0
32	1	390	0	2	3	0.1925	0.2488	1	0	0.493	0	0	82
32	1	391	9	2	1	0.1925	0.2488	1	1	1.004	0	82	0
32	1	392	9	1	3	0.1925	0.2488	1	1	1.325	0	0	82
32	1	393	1	2	1	0.1925	0.2488	1	1	1.217	50	82	0
32	1	394	1	2	2	0.1925	0.2488	1	1	0.682	67	82	0
32	1	395	0	1	3	0.1925	0.2488	0	1	1.023	5	82	82
32	1	396	1	1	1	0.1925	0.2488	1	1	0.943	50	0	82
32	1	397	1	1	3	0.1925	0.2488	1	1	0.861	50	0	82
32	1	398	0	1	3	0.1925	0.2488	1	1	0.796	6	82	0
32	1	399	9	1	1	0.1925	0.2488	1	1	0.652	0	0	82
32	1	400	0	1	1	0.1925	0.2488	1	1	0.706	6	82	0
32	1	401	0	2	2	0.1925	0.2488	0	1	0.909	5	82	82
32	1	402	1	1	1	0.1925	0.2488	0	1	1.035	50	0	0
32	1	403	0	2	3	0.1925	0.2488	1	1	0.972	5	0	82
32	1	404	0	2	2	0.1925	0.2488	0	1	1.292	5	82	82
32	1	405	0	1	3	0.1925	0.2488	1	1	0.677	7	82	0
32	1	406	9	1	3	0.1925	0.2488	1	1	0.742	0	0	82
32	1	407	0	1	3	0.1925	0.2488	0	1	0.546	8	82	82
32	1	408	0	2	2	0.1925	0.2488	1	1	1.325	5	0	82
32	1	409	1	1	1	0.1925	0.2488	1	1	0.714	64	0	82
32	1	410	1	2	2	0.1925	0.2488	1	1	0.574	78	82	0
32	1	411	1	1	1	0.1925	0.2488	1	1	0.690	66	0	82
32	1	412	9	2	2	0.1925	0.2488	0	1	0.674	0	0	0
32	1	413	1	1	3	0.1925	0.2488	0	1	1.017	50	0	0
32	1	414	9	2	1	0.1925	0.2488	1	1	0.803	0	0	82
32	1	415	0	1	3	0.1925	0.2488	1	1	1.245	5	82	0
32	1	416	1	2	2	0.1925	0.2488	0	1	0.749	60	0	0
32	1	417	0	1	3	0.1925	0.2488	1	1	2.681	5	82	0
32	1	418	0	1	1	0.1925	0.2488	0	1	0.709	6	82	82
32	1	419	9	2	1	0.1925	0.2488	0	1	0.731	0	82	82
32	1	420	0	1	3	0.1925	0.2488	0	1	0.750	6	82	82
32	1	421	1	1	3	0.1925	0.2488	1	1	0.986	50	0	82
32	1	422	0	1	1	0.1925	0.2488	1	1	1.019	5	82	0
32	1	423	9	2	2	0.1925	0.2488	0	1	0.645	0	0	0
32	1	424	1	1	1	0.1925	0.2488	1	1	0.742	61	0	82
32	1	425	1	1	1	0.1925	0.2488	1	1	0.673	68	0	82
32	1	426	1	1	3	0.1925	0.2488	1	1	0.894	50	0	82
32	1	427	1	2	3	0.1925	0.2488	1	1	0.629	72	82	0
32	1	428	0	2	2	0.1925	0.2488	1	1	0.734	6	0	82
32	1	429	0	1	1	0.1925	0.2488	0	1	0.577	8	82	82
32	1	430	0	1	3	0.1925	0.2488	1	1	0.734	6	82	0
32	1	431	0	2	2	0.1925	0.2488	0	1	0.795	6	82	82
32	1	432	9	2	3	0.1925	0.2488	1	1	0.845	0	82	0
32	1	433	9	2	1	0.1925	0.2488	0	1	1.069	0	0	0
32	1	434	1	1	2	0.1925	0.2488	1	1	0.723	63	0	82
32	1	435	1	2	2	0.1925	0.2488	0	0	1.097	0	0	0
32	1	436	1	1	3	0.1925	0.2488	0	0	1.280	0	0	0
32	1	437	9	2	2	0.1925	0.2488	0	0	1.101	0	82	82
32	1	438	1	2	2	0.1925	0.2488	1	1	0.717	63	82	0
32	1	439	0	2	3	0.1925	0.2488	1	1	0.697	7	0	82
32	1	440	0	1	3	0.1925	0.2488	1	1	0.685	7	82	0
32	1	441	0	1	1	0.1925	0.2488	0	1	1.216	5	82	82
32	1	442	0	2	2	0.1925	0.2488	0	1	0.791	6	82	82
32	1	443	9	1	1	0.1925	0.2488	1	1	0.608	0	0	82
32	1	444	0	2	3	0.1925	0.2488	1	1	0.762	6	0	82
32	1	445	0	1	2	0.1925	0.2488	1	1	0.990	5	82	0
32	1	446	1	2	2	0.1925	0.2488	0	1	1.145	50	0	0
32	1	447	9	1	1	0.1925	0.2488	1	1	0.838	0	0	82
32	1	448	0	2	2	0.1925	0.2488	1	1	0.694	7	0	82
32	1	449	0	2	2	0.1925	0.2488	0	0	0.524	0	82	82
32	1	450	9	2	3	0.1925	0.2488	1	1	1.025	0	82	0
32	1	451	0	1	2	0.1925	0.2488	1	1	0.996	5	82	0
32	1	452	1	2	2	0.1925	0.2488	0	1	1.253	50	0	0
32	1	453	9	2	2	0.1925	0.2488	1	1	0.582	0	0	82
32	1	454	1	2	3	0.1925	0.2488	0	1	1.345	50	0	0
32	1	455	0	1	3	0.1925	0.2488	1	1	2.204	5	82	0
32	1	456	1	2	3	0.1925	0.2488	0	1	0.860	50	0	0
32	1	457	1	1	3	0.1925	0.2488	1	1	0.854	50	0	82
32	1	458	9	2	2	0.1925	0.2488	0	1	1.102	0	0	0
32	1	459	0	1	1	0.1925	0.2488	1	1	0.748	6	82	0
32	1	460	0	2	2	0.1925	0.2488	0	1	0.976	5	82	82
32	1	461	0	1	1	0.1925	0.2488	0	1	0.957	5	82	82
32	1	462	1	1	1	0.1925	0.2488	0	1	0.571	78	0	0
32	1	463	1	2	3	0.1925	0.2488	1	1	0.605	75	82	0
32	1	464	0	2	2	0.1925	0.2488	1	1	0.504	8	0	82
32	1	465	1	2	3	0.1925	0.2488	1	1	0.839	51	82	0
32	1	466	9	2	2	0.1925	0.2488	0	1	0.647	0	0	0
32	1	467	0	2	3	0.1925	0.2488	0	1	0.693	7	82	82
32	1	468	0	1	3	0.1925	0.2488	0	1	0.581	8	82	82
32	1	469	1	1	2	0.1925	0.2488	1	1	1.224	50	0	82
32	1	470	0	1	2	0.1925	0.2488	1	1	2.139	5	82	0
32	1	471	0	1	3	0.1925	0.2488	0	1	0.696	7	82	82
32	1	472	9	1	1	0.1925	0.2488	0	1	0.486	0	0	0
32	1	473	0	1	3	0.1925	0.2488	0	0	0.884	0	82	82
32	1	474	9	2	2	0.1925	0.2488	1	1	0.773	0	0	82
32	1	475	9	1	1	0.1925	0.2488	0	1	0.576	0	0	0
32	1	476	1	1	1	0.1925	0.2488	0	1	0.548	80	0	0
32	1	477	1	1	1	0.1925	0.2488	0	1	0.438	91	0	0
32	1	478	1	1	1	0.1925	0.2488	1	1	0.565	78	0	82
32	1	479	1	1	3	0.1925	0.2488	0	1	0.646	70	0	0
32	1	480	9	1	1	0.1925	0.2488	1	1	0.567	0	82	0
32	1	481	9	1	1	0.1925	0.2488	1	1	0.654	0	82	0
32	1	482	0	1	3	0.1925	0.2488	0	1	0.550	8	82	82
32	1	483	0	1	3	0.1925	0.2488	1	1	0.713	6	82	0
32	1	484	0	1	1	0.1925	0.2488	0	1	1.206	5	82	82
32	1	485	0	2	2	0.1925	0.2488	1	1	1.246	5	0	82
32	1	486	1	2	3	0.1925	0.2488	0	1	1.021	50	0	0
32	1	487	1	1	3	0.1925	0.2488	1	1	1.924	50	0	82
32	1	488	1	1	3	0.1925	0.2488	0	1	0.993	50	0	0
32	1	489	0	1	3	0.1925	0.2488	0	1	1.396	5	82	82
32	1	490	0	1	1	0.1925	0.2488	0	1	0.669	7	82	82
32	1	491	0	2	3	0.1925	0.2488	0	1	0.869	5	82	82
32	1	492	0	2	3	0.1925	0.2488	1	1	0.611	7	0	82
32	1	493	1	2	3	0.1925	0.2488	0	1	0.718	63	0	0
32	1	494	0	1	3	0.1925	0.2488	0	1	0.786	6	82	82
32	1	495	1	2	2	0.1925	0.2488	0	1	0.629	72	0	0
32	1	496	0	1	1	0.1925	0.2488	1	1	0.647	7	82	0
32	1	497	9	1	1	0.1925	0.2488	1	1	0.704	0	0	82
32	1	498	1	2	3	0.1925	0.2488	1	1	0.765	59	82	0
32	1	499	1	1	3	0.1925	0.2488	1	1	1.704	50	0	82
32	1	500	0	1	3	0.1925	0.2488	0	1	0.684	7	82	82
32	1	501	0	2	1	0.1925	0.2488	0	1	1.120	5	82	82
32	1	502	1	2	3	0.1925	0.2488	0	1	0.598	75	0	0
32	1	503	1	1	1	0.1925	0.2488	1	1	1.046	50	0	82
32	1	504	1	2	3	0.1925	0.2488	0	1	1.062	50	0	0
32	1	505	0	2	2	0.1925	0.2488	0	1	0.848	5	82	82
32	1	506	9	2	3	0.1925	0.2488	1	1	0.520	0	82	0
32	1	507	1	1	3	0.1925	0.2488	0	1	0.821	53	0	0
32	1	508	1	1	3	0.1925	0.2488	1	0	1.776	0	0	82
32	1	509	1	2	3	0.1925	0.2488	0	1	0.826	52	0	0
32	1	510	1	2	2	0.1925	0.2488	1	1	0.724	63	82	0
32	1	511	1	1	1	0.1925	0.2488	1	1	0.721	63	0	82
32	1	512	0	1	1	0.1925	0.2488	1	1	0.796	6	82	0
32	1	513	1	1	3	0.1925	0.2488	0	1	0.716	63	0	0
32	1	514	0	2	1	0.1925	0.2488	0	1	0.935	5	82	82
32	1	515	9	1	2	0.1925	0.2488	1	0	1.220	0	0	82
32	1	516	0	2	3	0.1925	0.2488	1	1	1.390	5	0	82
32	1	517	1	2	2	0.1925	0.2488	1	1	1.882	50	82	0
32	1	518	1	2	2	0.1925	0.2488	0	0	0.873	0	0	0
32	1	519	1	1	1	0.1925	0.2488	0	1	0.510	84	0	0
32	1	520	9	2	3	0.1925	0.2488	1	1	0.724	0	0	82
32	1	521	0	1	3	0.1925	0.2488	1	1	1.099	5	82	0
32	1	522	0	1	1	0.1925	0.2488	1	0	1.601	0	82	0
32	1	523	0	2	1	0.1925	0.2488	1	1	2.715	5	0	82
32	1	524	1	1	1	0.1925	0.2488	0	1	1.952	50	0	0
32	1	525	0	2	3	0.1925	0.2488	1	1	1.363	5	0	82
32	1	526	1	1	3	0.1925	0.2488	1	1	0.808	54	0	82
32	1	527	9	2	2	0.1925	0.2488	1	1	0.674	0	82	0
32	1	528	0	1	3	0.1925	0.2488	0	1	0.579	8	82	82
32	1	529	0	2	3	0.1925	0.2488	1	1	0.572	8	0	82
32	1	530	9	2	2	0.1925	0.2488	1	0	1.097	0	0	82
32	1	531	0	2	2	0.1925	0.2488	1	1	0.796	6	0	82
32	1	532	1	1	3	0.1925	0.2488	0	1	1.212	50	0	0
32	1	533	1	1	3	0.1925	0.2488	0	1	0.590	76	0	0
32	1	534	9	2	2	0.1925	0.2488	1	1	0.654	0	0	82
32	1	535	0	1	2	0.1925	0.2488	0	1	1.757	5	82	82
32	1	536	9	1	3	0.1925	0.2488	1	0	0.738	0	0	82
32	1	537	9	1	1	0.1925	0.2488	0	0	0.627	0	82	82
32	1	538	1	2	2	0.1925	0.2488	1	1	0.779	57	82	0
32	1	539	9	2	3	0.1925	0.2488	0	1	1.269	0	82	82
32	1	540	0	2	2	0.1925	0.2488	0	1	0.660	7	82	82
32	1	541	0	1	3	0.1925	0.2488	1	1	1.454	5	82	0
32	1	542	1	2	2	0.1925	0.2488	1	1	0.599	75	82	0
32	1	543	0	2	3	0.1925	0.2488	0	1	0.832	5	82	82
32	1	544	1	1	1	0.1925	0.2488	0	1	0.648	70	0	0
32	1	545	1	1	3	0.1925	0.2488	0	1	0.525	83	0	0
32	1	546	1	2	1	0.1925	0.2488	0	1	1.155	50	0	0
32	1	547	1	1	3	0.1925	0.2488	1	1	0.526	82	0	82
32	1	548	1	1	1	0.1925	0.2488	1	1	1.187	50	0	82
32	1	549	9	2	3	0.1925	0.2488	1	1	0.725	0	0	82
32	1	550	0	2	2	0.1925	0.2488	0	1	0.579	8	82	82
32	1	551	0	2	2	0.1925	0.2488	0	1	0.663	7	82	82
32	1	552	1	1	3	0.1925	0.2488	0	0	1.101	0	0	0
32	1	553	0	2	2	0.1925	0.2488	1	1	0.689	7	0	82
32	1	554	9	1	3	0.1925	0.2488	0	1	2.039	0	0	0
32	1	555	1	2	2	0.1925	0.2488	1	1	0.759	59	82	0
32	1	556	1	2	2	0.1925	0.2488	1	1	0.700	65	82	0
32	1	557	1	1	1	0.1925	0.2488	0	1	0.769	58	0	0
32	1	558	0	2	2	0.1925	0.2488	0	1	0.988	5	82	82
32	1	559	1	1	1	0.1925	0.2488	0	1	0.925	50	0	0
32	1	560	0	2	3	0.1925	0.2488	0	1	0.916	5	82	82
32	1	561	0	1	1	0.1925	0.2488	1	1	0.833	5	82	0
32	1	562	1	1	1	0.1925	0.2488	1	1	0.625	72	0	82
32	1	563	1	1	1	0.1925	0.2488	1	1	0.505	84	0	82
32	1	564	1	1	2	0.1925	0.2488	1	0	1.646	0	0	82
32	1	565	1	2	2	0.1925	0.2488	1	1	0.958	50	82	0
32	1	566	0	2	3	0.1925	0.2488	1	1	0.539	8	0	82
32	1	567	0	1	1	0.1925	0.2488	0	1	0.542	8	82	82
32	1	568	1	2	3	0.1925	0.2488	1	1	1.403	50	82	0
32	1	569	0	1	1	0.1925	0.2488	0	1	0.806	5	82	82
32	1	570	9	1	1	0.1925	0.2488	1	1	0.880	0	82	0
32	1	571	0	1	1	0.1925	0.2488	0	0	0.667	0	82	82
32	1	572	0	1	2	0.1925	0.2488	1	1	2.204	5	82	0
32	1	573	0	2	3	0.1925	0.2488	0	1	0.749	6	82	82
32	1	574	0	1	2	0.1925	0.2488	0	1	0.936	5	82	82
32	1	575	1	2	2	0.1925	0.2488	1	1	0.490	86	82	0
32	1	576	0	2	3	0.1925	0.2488	0	1	0.929	5	82	82
32	1	577	9	2	3	0.1925	0.2488	1	1	0.742	0	0	82
32	1	578	1	1	1	0.1925	0.2488	1	1	0.700	65	0	82
32	1	579	1	2	1	0.1925	0.2488	0	1	1.464	50	0	0
32	1	580	0	1	3	0.1925	0.2488	1	1	0.776	6	82	0
32	1	581	0	1	1	0.1925	0.2488	0	1	0.860	5	82	82
32	1	582	1	2	3	0.1925	0.2488	1	1	0.957	50	82	0
32	1	583	1	2	3	0.1925	0.2488	1	1	0.809	54	82	0
32	1	584	9	1	3	0.1925	0.2488	0	1	0.834	0	82	82
32	1	585	1	1	3	0.1925	0.2488	1	1	0.922	50	0	82
32	1	586	9	1	3	0.1925	0.2488	1	1	0.726	0	82	0
32	1	587	0	1	2	0.1925	0.2488	0	1	0.916	5	82	82
32	1	588	9	1	3	0.1925	0.2488	1	1	0.752	0	82	0
32	1	589	0	1	1	0.1925	0.2488	0	1	0.573	8	82	82
32	1	590	0	1	3	0.1925	0.2488	1	1	0.727	6	82	0
32	1	591	0	1	3	0.1925	0.2488	1	1	0.739	6	82	0
32	1	592	0	2	2	0.1925	0.2488	1	1	1.014	5	0	82
32	1	593	1	2	2	0.1925	0.2488	0	1	0.854	50	0	0
32	1	594	1	2	2	0.1925	0.2488	0	1	0.653	70	0	0
32	1	595	1	1	1	0.1925	0.2488	1	1	0.613	74	0	82
32	1	596	1	2	3	0.1925	0.2488	1	1	0.828	52	82	0
32	1	597	1	2	3	0.1925	0.2488	1	1	0.812	54	82	0
32	1	598	9	2	2	0.1925	0.2488	0	1	0.567	0	82	82
32	1	599	0	2	3	0.1925	0.2488	0	1	0.570	8	82	82
32	1	600	1	1	2	0.1925	0.2488	0	1	0.734	62	0	0
32	1	601	0	2	1	0.1925	0.2488	0	1	1.070	5	82	82
32	1	602	0	1	3	0.1925	0.2488	0	1	0.616	7	82	82
32	1	603	0	2	3	0.1925	0.2488	1	1	0.536	8	0	82
32	1	604	9	1	3	0.1925	0.2488	1	0	0.666	0	0	82
32	1	605	1	2	2	0.1925	0.2488	1	1	0.593	76	82	0
32	1	606	9	2	2	0.1925	0.2488	1	1	0.942	0	82	0
32	1	607	1	1	1	0.1925	0.2488	0	1	0.906	50	0	0
32	1	608	0	2	3	0.1925	0.2488	1	1	0.719	6	0	82
32	1	609	1	1	1	0.1925	0.2488	0	1	1.580	50	0	0
32	1	610	0	2	3	0.1925	0.2488	1	1	1.702	5	0	82
32	1	611	0	1	3	0.1925	0.2488	0	1	0.546	8	82	82
32	1	612	1	2	3	0.1925	0.2488	0	1	0.678	67	0	0
32	1	613	0	2	1	0.1925	0.2488	1	1	0.701	6	0	82
32	1	614	1	1	3	0.1925	0.2488	1	0	0.868	0	0	82
32	1	615	9	2	3	0.1925	0.2488	1	1	0.715	0	82	0
32	1	616	1	2	1	0.1925	0.2488	1	1	0.657	69	82	0
32	1	617	0	1	3	0.1925	0.2488	1	1	1.512	5	82	0
32	1	618	0	2	3	0.1925	0.2488	0	1	0.805	5	82	82
32	1	619	0	1	1	0.1925	0.2488	0	1	0.702	6	82	82
32	1	620	0	2	2	0.1925	0.2488	1	1	0.837	5	0	82
32	1	621	1	2	3	0.1925	0.2488	1	1	1.082	50	82	0
32	1	622	1	2	3	0.1925	0.2488	0	1	0.568	78	0	0
32	1	623	1	2	3	0.1925	0.2488	1	1	0.716	63	82	0
32	1	624	0	1	1	0.1925	0.2488	0	1	1.864	5	82	82
32	1	625	1	2	3	0.1925	0.2488	0	1	0.625	73	0	0
32	1	626	0	1	1	0.1925	0.2488	1	1	0.624	7	82	0
32	1	627	9	2	3	0.1925	0.2488	0	1	0.663	0	0	0
32	1	628	9	1	2	0.1925	0.2488	1	1	1.308	0	82	0
32	1	629	9	1	2	0.1925	0.2488	0	1	1.154	0	0	0
32	1	630	1	2	3	0.1925	0.2488	1	1	0.837	51	82	0
32	1	631	1	2	2	0.1925	0.2488	0	1	1.301	50	0	0
32	1	632	1	1	3	0.1925	0.2488	0	1	0.915	50	0	0
32	1	633	0	2	2	0.1925	0.2488	1	1	0.642	7	0	82
32	1	634	9	2	2	0.1925	0.2488	0	1	0.596	0	82	82
32	1	635	1	1	3	0.1925	0.2488	1	1	0.685	67	0	82
32	1	636	9	1	1	0.1925	0.2488	0	0	1.453	0	0	0
32	1	637	0	2	2	0.1925	0.2488	0	1	0.476	9	82	82
32	1	638	9	1	2	0.1925	0.2488	0	1	0.987	0	82	82
32	1	639	0	1	1	0.1925	0.2488	0	1	0.591	8	82	82
32	1	640	0	2	3	0.1925	0.2488	0	1	1.001	5	82	82
32	1	641	1	2	2	0.1925	0.2488	1	1	1.981	50	82	0
32	1	642	1	2	2	0.1925	0.2488	1	1	0.461	89	82	0
32	1	643	9	2	3	0.1925	0.2488	0	1	0.813	0	82	82
32	1	644	0	2	1	0.1925	0.2488	1	1	1.400	5	0	82
32	1	645	0	1	3	0.1925	0.2488	0	1	1.346	5	82	82
32	1	646	0	1	1	0.1925	0.2488	1	1	0.710	6	82	0
32	1	647	0	2	3	0.1925	0.2488	0	1	0.557	8	82	82
32	1	648	0	2	1	0.1925	0.2488	1	1	0.729	6	0	82
32	1	649	0	2	3	0.1925	0.2488	0	1	0.503	8	82	82
32	1	650	1	2	2	0.1925	0.2488	1	1	0.597	75	82	0
32	1	651	1	1	3	0.1925	0.2488	0	0	1.016	0	0	0
32	1	652	9	2	3	0.1925	0.2488	0	1	0.665	0	82	82
32	1	653	9	1	3	0.1925	0.2488	0	0	0.832	0	0	0
32	1	654	1	2	2	0.1925	0.2488	0	1	1.143	50	0	0
32	1	655	9	1	3	0.1925	0.2488	0	1	0.754	0	82	82
32	1	656	1	2	3	0.1925	0.2488	1	1	0.735	61	82	0
32	1	657	0	2	3	0.1925	0.2488	1	1	0.605	7	0	82
32	1	658	0	1	3	0.1925	0.2488	0	1	0.558	8	82	82
32	1	659	9	2	3	0.1925	0.2488	0	1	1.570	0	0	0
32	1	660	0	1	1	0.1925	0.2488	0	0	0.540	0	82	82
32	1	661	1	2	2	0.1925	0.2488	0	1	0.641	71	0	0
32	1	662	0	2	3	0.1925	0.2488	1	1	0.624	7	0	82
32	1	663	0	2	2	0.1925	0.2488	1	1	0.552	8	0	82
32	1	664	1	2	3	0.1925	0.2488	0	1	0.773	58	0	0
32	1	665	0	2	2	0.1925	0.2488	0	1	0.823	5	82	82
32	1	666	0	2	2	0.1925	0.2488	0	1	0.593	8	82	82
32	1	667	1	2	1	0.1925	0.2488	1	0	1.081	0	82	0
32	1	668	0	1	1	0.1925	0.2488	0	1	1.664	5	82	82
32	1	669	9	1	1	0.1925	0.2488	0	1	0.734	0	82	82
32	1	670	1	1	1	0.1925	0.2488	1	1	1.178	50	0	82
32	1	671	0	2	3	0.1925	0.2488	0	1	0.654	7	82	82
32	1	672	1	2	1	0.1925	0.2488	0	1	0.959	50	0	0
32	1	673	0	2	2	0.1925	0.2488	0	1	0.628	7	82	82
32	1	674	1	1	3	0.1925	0.2488	0	0	0.628	0	0	0
32	1	675	0	2	2	0.1925	0.2488	1	1	0.772	6	0	82
32	1	676	0	1	1	0.1925	0.2488	1	1	0.733	6	82	0
32	1	677	1	1	1	0.1925	0.2488	0	0	1.003	0	0	0
32	1	678	1	1	3	0.1925	0.2488	0	1	1.069	50	0	0
32	1	679	0	2	2	0.1925	0.2488	1	1	0.691	7	0	82
32	1	680	9	1	3	0.1925	0.2488	0	1	1.215	0	82	82
32	1	681	1	1	1	0.1925	0.2488	0	0	1.773	0	0	0
32	1	682	0	2	2	0.1925	0.2488	1	1	1.568	5	0	82
32	1	683	1	2	2	0.1925	0.2488	0	1	1.556	50	0	0
32	1	684	9	2	2	0.1925	0.2488	0	1	1.639	0	82	82
32	1	685	1	1	1	0.1925	0.2488	0	1	2.351	50	0	0
32	1	686	1	2	3	0.1925	0.2488	0	0	1.628	0	0	0
32	1	687	1	1	2	0.1925	0.2488	0	1	0.942	50	0	0
32	1	688	1	1	1	0.1925	0.2488	1	1	1.138	50	0	82
32	1	689	0	1	3	0.1925	0.2488	0	1	2.784	5	82	82
32	1	690	1	2	1	0.1925	0.2488	1	1	1.305	50	82	0
32	1	691	1	1	1	0.1925	0.2488	1	1	1.024	50	0	82
32	1	692	0	2	2	0.1925	0.2488	1	1	0.783	6	0	82
32	1	693	9	1	3	0.1925	0.2488	1	0	1.017	0	82	0
32	1	694	1	1	3	0.1925	0.2488	0	1	1.627	50	0	0
32	1	695	9	1	3	0.1925	0.2488	0	1	1.483	0	0	0
32	1	696	1	1	3	0.1925	0.2488	1	0	1.626	0	0	82
32	1	697	0	1	1	0.1925	0.2488	1	1	0.963	5	82	0
32	1	698	1	1	3	0.1925	0.2488	1	1	0.629	72	0	82
32	1	699	1	1	3	0.1925	0.2488	0	0	1.463	0	0	0
32	1	700	9	2	3	0.1925	0.2488	0	1	1.151	0	0	0
32	1	701	0	1	3	0.1925	0.2488	1	1	0.886	5	82	0
32	1	702	1	2	1	0.1925	0.2488	0	0	0.922	0	0	0
32	1	703	0	1	1	0.1925	0.2488	1	1	0.687	7	82	0
32	1	704	1	1	2	0.1925	0.2488	0	0	0.811	0	0	0
32	1	705	9	1	1	0.1925	0.2488	1	0	0.703	0	82	0
32	1	706	0	2	2	0.1925	0.2488	1	1	0.717	6	0	82
32	1	707	9	1	1	0.1925	0.2488	0	1	0.723	0	82	82
32	1	708	1	2	2	0.1925	0.2488	0	1	0.886	50	0	0
32	1	709	0	2	1	0.1925	0.2488	0	1	2.371	5	82	82
32	1	710	1	2	2	0.1925	0.2488	0	1	2.165	50	0	0
32	1	711	0	2	3	0.1925	0.2488	0	1	0.728	6	82	82
32	1	712	0	2	3	0.1925	0.2488	0	0	1.277	0	82	82
32	1	713	0	2	3	0.1925	0.2488	0	1	0.869	5	82	82
32	1	714	9	1	3	0.1925	0.2488	0	1	0.753	0	82	82
32	1	715	0	1	3	0.1925	0.2488	1	1	1.104	5	82	0
32	1	716	0	2	3	0.1925	0.2488	0	0	1.613	0	82	82
32	1	717	1	2	2	0.1925	0.2488	1	0	0.607	0	82	0
32	1	718	1	2	3	0.1925	0.2488	0	1	3.736	50	0	0
32	1	719	9	1	3	0.1925	0.2488	1	1	1.548	0	82	0
32	1	720	0	1	1	0.1925	0.2488	1	1	1.182	5	82	0
