sub	sess	t	rew	loc	cue	co1	co2	or	resp	rt	rew_tot	left_col	right_col
150	1	1	0	1	3	0.0500	0.2283	0	1	1.243	5	82	82
150	1	2	0	2	3	0.0500	0.2283	0	1	1.099	5	82	82
150	1	3	0	2	1	0.0500	0.2283	1	0	0.848	0	0	82
150	1	4	1	2	2	0.0500	0.2283	1	1	0.663	69	82	0
150	1	5	1	1	1	0.0500	0.2283	0	1	0.605	74	0	0
150	1	6	1	1	3	0.0500	0.2283	0	1	0.662	69	0	0
150	1	7	9	1	2	0.0500	0.2283	1	0	1.132	0	0	82
150	1	8	1	1	3	0.0500	0.2283	1	0	1.255	0	0	82
150	1	9	1	2	2	0.0500	0.2283	1	1	0.567	78	82	0
150	1	10	1	1	3	0.0500	0.2283	1	1	0.689	66	0	82
150	1	11	9	1	3	0.0500	0.2283	1	1	0.936	0	82	0
150	1	12	0	2	2	0.0500	0.2283	0	1	0.619	7	82	82
150	1	13	0	1	3	0.0500	0.2283	0	1	0.602	7	82	82
150	1	14	9	1	1	0.0500	0.2283	0	1	0.515	0	0	0
150	1	15	1	1	1	0.0500	0.2283	0	1	0.480	87	0	0
150	1	16	0	1	1	0.0500	0.2283	1	1	0.549	8	82	0
150	1	17	0	2	2	0.0500	0.2283	1	1	0.528	8	0	82
150	1	18	1	1	1	0.0500	0.2283	0	1	0.427	92	0	0
150	1	19	1	1	3	0.0500	0.2283	0	1	0.457	89	0	0
150	1	20	0	2	2	0.0500	0.2283	0	1	0.480	9	82	82
150	1	21	1	1	2	0.0500	0.2283	1	0	0.830	0	0	82
150	1	22	1	2	2	0.0500	0.2283	0	1	0.431	92	0	0
150	1	23	1	1	1	0.0500	0.2283	1	1	0.567	78	0	82
150	1	24	0	2	2	0.0500	0.2283	1	1	0.475	9	0	82
150	1	25	0	2	2	0.0500	0.2283	1	1	0.443	9	0	82
150	1	26	1	1	3	0.0500	0.2283	0	1	0.564	79	0	0
150	1	27	9	2	3	0.0500	0.2283	1	1	0.526	0	82	0
150	1	28	0	1	3	0.0500	0.2283	1	1	0.794	6	82	0
150	1	29	1	2	2	0.0500	0.2283	0	1	0.516	83	0	0
150	1	30	0	1	3	0.0500	0.2283	0	1	0.912	5	82	82
150	1	31	0	2	2	0.0500	0.2283	1	1	0.581	8	0	82
150	1	32	9	2	3	0.0500	0.2283	1	1	0.590	0	0	82
150	1	33	0	1	3	0.0500	0.2283	0	0	1.162	0	82	82
150	1	34	9	1	3	0.0500	0.2283	0	1	0.643	0	82	82
150	1	35	0	2	1	0.0500	0.2283	0	1	0.842	5	82	82
150	1	36	9	1	3	0.0500	0.2283	0	1	0.552	0	82	82
150	1	37	0	1	3	0.0500	0.2283	0	1	0.515	8	82	82
150	1	38	1	2	3	0.0500	0.2283	0	1	0.703	65	0	0
150	1	39	1	2	2	0.0500	0.2283	1	1	0.685	66	82	0
150	1	40	0	2	1	0.0500	0.2283	1	0	0.627	0	0	82
150	1	41	9	1	1	0.0500	0.2283	1	1	0.587	0	0	82
150	1	42	1	1	1	0.0500	0.2283	1	1	0.629	72	0	82
150	1	43	0	2	3	0.0500	0.2283	0	1	1.230	5	82	82
150	1	44	0	2	2	0.0500	0.2283	0	1	0.591	8	82	82
150	1	45	0	1	2	0.0500	0.2283	0	1	0.743	6	82	82
150	1	46	1	2	3	0.0500	0.2283	0	1	0.729	62	0	0
150	1	47	0	1	1	0.0500	0.2283	1	1	0.559	8	82	0
150	1	48	1	1	3	0.0500	0.2283	1	1	0.538	81	0	82
150	1	49	0	2	1	0.0500	0.2283	1	1	0.605	7	0	82
150	1	50	9	1	1	0.0500	0.2283	1	1	0.504	0	0	82
150	1	51	9	2	2	0.0500	0.2283	0	1	0.575	0	0	0
150	1	52	9	1	3	0.0500	0.2283	1	0	0.594	0	82	0
150	1	53	1	1	3	0.0500	0.2283	1	1	0.612	74	0	82
150	1	54	0	1	1	0.0500	0.2283	1	1	0.555	8	82	0
150	1	55	0	2	2	0.0500	0.2283	1	1	0.488	9	0	82
150	1	56	0	1	2	0.0500	0.2283	1	1	0.582	8	82	0
150	1	57	0	1	1	0.0500	0.2283	0	1	0.721	6	82	82
150	1	58	0	1	2	0.0500	0.2283	1	1	0.718	6	82	0
150	1	59	1	2	1	0.0500	0.2283	0	0	0.651	0	0	0
150	1	60	0	2	2	0.0500	0.2283	0	1	0.515	8	82	82
150	1	61	0	1	1	0.0500	0.2283	0	1	0.552	8	82	82
150	1	62	1	2	3	0.0500	0.2283	1	1	0.893	50	82	0
150	1	63	9	2	1	0.0500	0.2283	0	0	1.515	0	0	0
150	1	64	0	2	3	0.0500	0.2283	1	1	1.135	5	0	82
150	1	65	0	1	1	0.0500	0.2283	1	1	0.588	8	82	0
150	1	66	0	2	3	0.0500	0.2283	1	1	0.567	8	0	82
150	1	67	1	2	2	0.0500	0.2283	1	1	0.628	72	82	0
150	1	68	0	1	1	0.0500	0.2283	0	1	0.554	8	82	82
150	1	69	9	1	1	0.0500	0.2283	0	1	0.456	0	82	82
150	1	70	1	2	2	0.0500	0.2283	0	1	0.615	73	0	0
150	1	71	1	1	3	0.0500	0.2283	1	1	0.809	54	0	82
150	1	72	0	1	3	0.0500	0.2283	0	1	0.555	8	82	82
150	1	73	1	1	2	0.0500	0.2283	0	0	0.943	0	0	0
150	1	74	0	2	3	0.0500	0.2283	1	1	0.803	5	0	82
150	1	75	1	2	3	0.0500	0.2283	0	1	0.771	58	0	0
150	1	76	9	1	1	0.0500	0.2283	0	1	0.590	0	82	82
150	1	77	9	2	1	0.0500	0.2283	1	1	0.775	0	82	0
150	1	78	1	1	1	0.0500	0.2283	1	1	0.634	72	0	82
150	1	79	9	1	1	0.0500	0.2283	1	1	0.505	0	82	0
150	1	80	0	1	1	0.0500	0.2283	0	1	0.487	9	82	82
150	1	81	0	2	2	0.0500	0.2283	0	1	0.488	9	82	82
150	1	82	1	2	2	0.0500	0.2283	1	1	0.486	86	82	0
150	1	83	1	2	1	0.0500	0.2283	1	1	1.002	50	82	0
150	1	84	0	2	3	0.0500	0.2283	1	1	0.709	6	0	82
150	1	85	9	2	2	0.0500	0.2283	1	1	0.555	0	0	82
150	1	86	0	1	1	0.0500	0.2283	1	1	0.568	8	82	0
150	1	87	0	1	1	0.0500	0.2283	0	1	0.523	8	82	82
150	1	88	1	2	2	0.0500	0.2283	0	1	0.712	64	0	0
150	1	89	1	2	3	0.0500	0.2283	0	1	0.892	50	0	0
150	1	90	1	1	3	0.0500	0.2283	1	1	0.624	73	0	82
150	1	91	9	1	1	0.0500	0.2283	0	1	0.570	0	82	82
150	1	92	0	1	3	0.0500	0.2283	0	1	0.806	5	82	82
150	1	93	0	2	2	0.0500	0.2283	1	1	0.528	8	0	82
150	1	94	1	2	3	0.0500	0.2283	1	1	0.685	66	82	0
150	1	95	1	2	3	0.0500	0.2283	1	1	0.547	80	82	0
150	1	96	1	1	1	0.0500	0.2283	0	1	0.576	77	0	0
150	1	97	1	1	1	0.0500	0.2283	1	1	0.538	81	0	82
150	1	98	0	2	3	0.0500	0.2283	0	1	0.710	6	82	82
150	1	99	9	1	3	0.0500	0.2283	0	1	0.482	0	0	0
150	1	100	0	1	3	0.0500	0.2283	0	1	0.472	9	82	82
150	1	101	1	2	2	0.0500	0.2283	0	1	0.537	81	0	0
150	1	102	0	2	1	0.0500	0.2283	1	0	0.733	0	0	82
150	1	103	1	2	2	0.0500	0.2283	1	1	0.521	83	82	0
150	1	104	9	2	3	0.0500	0.2283	1	1	0.854	0	0	82
150	1	105	0	1	3	0.0500	0.2283	1	1	0.676	7	82	0
150	1	106	1	2	3	0.0500	0.2283	0	1	0.737	61	0	0
150	1	107	1	1	2	0.0500	0.2283	0	0	1.021	0	0	0
150	1	108	1	1	1	0.0500	0.2283	0	1	0.847	50	0	0
150	1	109	9	2	3	0.0500	0.2283	1	1	0.607	0	82	0
150	1	110	0	1	1	0.0500	0.2283	1	1	0.704	6	82	0
150	1	111	1	1	2	0.0500	0.2283	1	1	2.070	50	0	82
150	1	112	1	2	2	0.0500	0.2283	1	0	0.803	0	82	0
150	1	113	0	1	2	0.0500	0.2283	1	1	1.950	5	82	0
150	1	114	0	1	1	0.0500	0.2283	0	1	0.594	8	82	82
150	1	115	0	1	3	0.0500	0.2283	0	1	0.690	7	82	82
150	1	116	1	1	2	0.0500	0.2283	0	1	1.256	50	0	0
150	1	117	9	1	3	0.0500	0.2283	0	1	0.711	0	82	82
150	1	118	0	1	1	0.0500	0.2283	0	1	0.669	7	82	82
150	1	119	9	2	2	0.0500	0.2283	0	1	0.635	0	0	0
150	1	120	9	2	3	0.0500	0.2283	1	1	0.930	0	0	82
150	1	121	1	2	1	0.0500	0.2283	1	1	1.164	50	82	0
150	1	122	9	1	3	0.0500	0.2283	1	1	0.696	0	0	82
150	1	123	1	2	1	0.0500	0.2283	0	0	1.094	0	0	0
150	1	124	1	1	3	0.0500	0.2283	0	1	1.124	50	0	0
150	1	125	0	2	3	0.0500	0.2283	1	1	0.649	7	0	82
150	1	126	9	2	3	0.0500	0.2283	0	1	0.791	0	0	0
150	1	127	0	1	1	0.0500	0.2283	1	1	1.048	5	82	0
150	1	128	0	1	1	0.0500	0.2283	1	1	0.598	8	82	0
150	1	129	9	1	3	0.0500	0.2283	1	1	0.617	0	82	0
150	1	130	1	2	3	0.0500	0.2283	0	0	1.236	0	0	0
150	1	131	1	2	3	0.0500	0.2283	0	1	0.668	68	0	0
150	1	132	0	2	3	0.0500	0.2283	0	1	0.497	9	82	82
150	1	133	0	1	1	0.0500	0.2283	0	1	0.743	6	82	82
150	1	134	0	2	3	0.0500	0.2283	0	1	0.740	6	82	82
150	1	135	1	2	3	0.0500	0.2283	1	1	0.505	85	82	0
150	1	136	0	1	3	0.0500	0.2283	0	0	2.136	0	82	82
150	1	137	0	1	3	0.0500	0.2283	1	1	0.837	5	82	0
150	1	138	1	1	3	0.0500	0.2283	1	1	0.660	69	0	82
150	1	139	1	1	3	0.0500	0.2283	0	1	0.610	74	0	0
150	1	140	1	2	3	0.0500	0.2283	1	1	0.746	60	82	0
150	1	141	0	1	3	0.0500	0.2283	0	1	1.253	5	82	82
150	1	142	1	2	2	0.0500	0.2283	0	1	0.677	67	0	0
150	1	143	0	2	3	0.0500	0.2283	1	1	0.790	6	0	82
150	1	144	0	2	1	0.0500	0.2283	0	1	1.601	5	82	82
150	1	145	9	1	3	0.0500	0.2283	1	1	0.617	0	0	82
150	1	146	1	1	3	0.0500	0.2283	0	0	1.459	0	0	0
150	1	147	1	2	3	0.0500	0.2283	1	1	0.723	63	82	0
150	1	148	1	1	1	0.0500	0.2283	1	1	0.809	54	0	82
150	1	149	0	1	3	0.0500	0.2283	1	1	0.760	6	82	0
150	1	150	1	2	3	0.0500	0.2283	0	0	0.973	0	0	0
150	1	151	1	1	1	0.0500	0.2283	0	1	0.785	57	0	0
150	1	152	1	1	1	0.0500	0.2283	1	1	0.619	73	0	82
150	1	153	1	1	3	0.0500	0.2283	1	1	0.618	73	0	82
150	1	154	0	1	2	0.0500	0.2283	1	1	1.265	5	82	0
150	1	155	0	1	3	0.0500	0.2283	1	1	0.607	7	82	0
150	1	156	0	2	3	0.0500	0.2283	0	1	0.632	7	82	82
150	1	157	9	1	3	0.0500	0.2283	1	1	0.558	0	0	82
150	1	158	1	1	3	0.0500	0.2283	0	1	0.544	81	0	0
150	1	159	9	2	3	0.0500	0.2283	1	1	0.515	0	0	82
150	1	160	0	1	3	0.0500	0.2283	0	1	0.705	6	82	82
150	1	161	1	1	1	0.0500	0.2283	0	1	0.614	74	0	0
150	1	162	1	1	3	0.0500	0.2283	0	1	1.136	50	0	0
150	1	163	0	1	3	0.0500	0.2283	1	1	0.563	8	82	0
150	1	164	9	2	2	0.0500	0.2283	1	1	0.556	0	0	82
150	1	165	9	2	2	0.0500	0.2283	1	0	1.481	0	82	0
150	1	166	0	2	1	0.0500	0.2283	0	1	1.349	5	82	82
150	1	167	9	2	2	0.0500	0.2283	1	1	0.575	0	0	82
150	1	168	0	2	2	0.0500	0.2283	0	1	0.569	8	82	82
150	1	169	9	2	3	0.0500	0.2283	0	1	0.606	0	82	82
150	1	170	0	2	3	0.0500	0.2283	0	1	0.408	9	82	82
150	1	171	0	2	3	0.0500	0.2283	1	1	0.504	8	0	82
150	1	172	0	2	2	0.0500	0.2283	1	1	0.679	7	0	82
150	1	173	0	1	3	0.0500	0.2283	1	0	1.383	0	82	0
150	1	174	1	2	3	0.0500	0.2283	1	1	0.817	53	82	0
150	1	175	9	1	1	0.0500	0.2283	0	1	0.544	0	0	0
150	1	176	1	1	3	0.0500	0.2283	1	0	1.130	0	0	82
150	1	177	0	2	3	0.0500	0.2283	1	1	0.920	5	0	82
150	1	178	9	2	3	0.0500	0.2283	1	1	0.629	0	82	0
150	1	179	1	1	1	0.0500	0.2283	1	0	0.702	0	0	82
150	1	180	0	1	1	0.0500	0.2283	0	1	0.618	7	82	82
150	1	181	9	1	1	0.0500	0.2283	1	1	0.630	0	82	0
150	1	182	0	2	2	0.0500	0.2283	0	1	0.470	9	82	82
150	1	183	1	1	3	0.0500	0.2283	0	0	1.187	0	0	0
150	1	184	0	1	1	0.0500	0.2283	1	1	0.607	7	82	0
150	1	185	0	1	2	0.0500	0.2283	0	1	1.113	5	82	82
150	1	186	9	1	3	0.0500	0.2283	0	1	0.581	0	82	82
150	1	187	0	2	2	0.0500	0.2283	0	1	0.560	8	82	82
150	1	188	0	2	2	0.0500	0.2283	1	1	0.520	8	0	82
150	1	189	0	2	3	0.0500	0.2283	1	1	0.477	9	0	82
150	1	190	1	2	3	0.0500	0.2283	0	1	0.611	74	0	0
150	1	191	0	2	2	0.0500	0.2283	1	1	0.586	8	0	82
150	1	192	0	2	3	0.0500	0.2283	0	1	1.516	5	82	82
150	1	193	9	1	1	0.0500	0.2283	1	1	0.577	0	0	82
150	1	194	1	1	1	0.0500	0.2283	1	1	0.570	78	0	82
150	1	195	0	2	3	0.0500	0.2283	1	1	0.582	8	0	82
150	1	196	9	1	2	0.0500	0.2283	0	0	1.480	0	0	0
150	1	197	1	1	3	0.0500	0.2283	1	1	1.109	50	0	82
150	1	198	0	1	1	0.0500	0.2283	0	1	0.599	8	82	82
150	1	199	1	2	3	0.0500	0.2283	1	1	0.831	52	82	0
150	1	200	1	2	2	0.0500	0.2283	0	1	0.511	84	0	0
150	1	201	0	1	3	0.0500	0.2283	0	1	0.754	6	82	82
150	1	202	1	2	3	0.0500	0.2283	1	1	0.605	74	82	0
150	1	203	1	1	1	0.0500	0.2283	0	1	0.485	86	0	0
150	1	204	1	1	3	0.0500	0.2283	0	0	0.628	0	0	0
150	1	205	1	2	1	0.0500	0.2283	1	0	0.860	0	82	0
150	1	206	0	1	3	0.0500	0.2283	1	1	0.571	8	82	0
150	1	207	9	2	3	0.0500	0.2283	0	0	0.892	0	0	0
150	1	208	1	2	2	0.0500	0.2283	1	1	0.578	77	82	0
150	1	209	1	2	2	0.0500	0.2283	1	1	0.450	90	82	0
150	1	210	9	2	2	0.0500	0.2283	1	1	0.473	0	82	0
150	1	211	1	2	3	0.0500	0.2283	1	1	0.487	86	82	0
150	1	212	1	1	1	0.0500	0.2283	1	1	0.525	83	0	82
150	1	213	0	1	3	0.0500	0.2283	1	1	0.513	8	82	0
150	1	214	1	2	3	0.0500	0.2283	0	1	0.622	73	0	0
150	1	215	1	2	2	0.0500	0.2283	0	1	0.424	93	0	0
150	1	216	9	2	2	0.0500	0.2283	0	1	0.354	0	0	0
150	1	217	0	2	2	0.0500	0.2283	1	0	0.414	0	0	82
150	1	218	1	1	1	0.0500	0.2283	0	1	0.655	70	0	0
150	1	219	1	1	1	0.0500	0.2283	0	1	0.581	77	0	0
150	1	220	1	2	2	0.0500	0.2283	1	1	0.545	81	82	0
150	1	221	1	2	2	0.0500	0.2283	1	1	0.576	77	82	0
150	1	222	1	1	2	0.0500	0.2283	0	0	1.361	0	0	0
150	1	223	1	2	2	0.0500	0.2283	0	1	0.540	81	0	0
150	1	224	9	2	3	0.0500	0.2283	0	1	0.584	0	82	82
150	1	225	1	1	1	0.0500	0.2283	1	1	0.985	50	0	82
150	1	226	9	1	3	0.0500	0.2283	1	1	0.547	0	82	0
150	1	227	0	1	2	0.0500	0.2283	0	1	1.159	5	82	82
150	1	228	1	2	2	0.0500	0.2283	1	1	0.552	80	82	0
150	1	229	9	2	3	0.0500	0.2283	0	1	0.827	0	0	0
150	1	230	0	2	2	0.0500	0.2283	0	1	0.747	6	82	82
150	1	231	1	1	1	0.0500	0.2283	0	1	0.597	75	0	0
150	1	232	0	2	3	0.0500	0.2283	1	1	0.654	7	0	82
150	1	233	0	1	1	0.0500	0.2283	0	1	0.686	7	82	82
150	1	234	0	1	1	0.0500	0.2283	0	1	0.491	9	82	82
150	1	235	1	1	3	0.0500	0.2283	1	0	0.746	0	0	82
150	1	236	1	2	3	0.0500	0.2283	1	1	0.847	50	82	0
150	1	237	0	2	3	0.0500	0.2283	1	1	0.445	9	0	82
150	1	238	9	1	2	0.0500	0.2283	0	0	0.934	0	82	82
150	1	239	1	1	3	0.0500	0.2283	0	1	0.706	64	0	0
150	1	240	1	2	2	0.0500	0.2283	1	1	0.608	74	82	0
150	1	241	0	2	3	0.0500	0.2283	0	1	0.720	6	82	82
150	1	242	0	2	2	0.0500	0.2283	0	1	0.903	5	82	82
150	1	243	9	1	1	0.0500	0.2283	0	1	0.603	0	0	0
150	1	244	9	2	2	0.0500	0.2283	1	1	0.935	0	0	82
150	1	245	0	2	2	0.0500	0.2283	1	1	0.523	8	0	82
150	1	246	9	2	3	0.0500	0.2283	1	1	0.582	0	82	0
150	1	247	1	2	3	0.0500	0.2283	0	1	0.736	61	0	0
150	1	248	9	2	3	0.0500	0.2283	0	1	0.494	0	82	82
150	1	249	0	2	1	0.0500	0.2283	0	1	1.081	5	82	82
150	1	250	1	1	3	0.0500	0.2283	0	1	0.905	50	0	0
150	1	251	1	2	2	0.0500	0.2283	1	1	0.549	80	82	0
150	1	252	1	2	2	0.0500	0.2283	0	1	0.631	72	0	0
150	1	253	9	1	1	0.0500	0.2283	0	1	0.615	0	0	0
150	1	254	1	1	3	0.0500	0.2283	0	1	1.031	50	0	0
150	1	255	1	2	2	0.0500	0.2283	0	1	0.841	51	0	0
150	1	256	0	1	1	0.0500	0.2283	1	1	0.688	7	82	0
150	1	257	1	1	1	0.0500	0.2283	0	1	0.525	82	0	0
150	1	258	0	1	1	0.0500	0.2283	1	1	0.602	7	82	0
150	1	259	0	2	3	0.0500	0.2283	0	1	0.842	5	82	82
150	1	260	9	2	2	0.0500	0.2283	0	1	0.448	0	0	0
150	1	261	9	1	3	0.0500	0.2283	0	1	0.972	0	0	0
150	1	262	1	1	1	0.0500	0.2283	0	1	0.701	65	0	0
150	1	263	0	1	3	0.0500	0.2283	1	1	0.601	7	82	0
150	1	264	0	2	3	0.0500	0.2283	0	1	0.730	6	82	82
150	1	265	0	2	2	0.0500	0.2283	1	1	0.511	8	0	82
150	1	266	1	2	2	0.0500	0.2283	0	1	0.500	85	0	0
150	1	267	9	1	3	0.0500	0.2283	0	1	0.936	0	0	0
150	1	268	1	2	3	0.0500	0.2283	0	1	0.501	85	0	0
150	1	269	0	2	2	0.0500	0.2283	0	1	0.411	9	82	82
150	1	270	1	1	2	0.0500	0.2283	1	0	1.013	0	0	82
150	1	271	9	2	1	0.0500	0.2283	0	1	0.855	0	82	82
150	1	272	1	1	1	0.0500	0.2283	1	1	0.582	77	0	82
150	1	273	1	1	2	0.0500	0.2283	1	0	1.272	0	0	82
150	1	274	1	1	1	0.0500	0.2283	1	1	1.207	50	0	82
150	1	275	9	2	3	0.0500	0.2283	0	1	0.664	0	0	0
150	1	276	0	2	3	0.0500	0.2283	0	1	0.493	9	82	82
150	1	277	0	1	3	0.0500	0.2283	0	1	0.801	5	82	82
150	1	278	9	1	3	0.0500	0.2283	1	1	0.771	0	0	82
150	1	279	0	2	2	0.0500	0.2283	1	1	0.574	8	0	82
150	1	280	1	1	3	0.0500	0.2283	1	1	0.824	53	0	82
150	1	281	0	1	3	0.0500	0.2283	1	1	1.150	5	82	0
150	1	282	0	1	1	0.0500	0.2283	1	1	0.625	7	82	0
150	1	283	1	1	1	0.0500	0.2283	0	1	0.504	85	0	0
150	1	284	0	1	3	0.0500	0.2283	0	1	0.437	9	82	82
150	1	285	0	1	1	0.0500	0.2283	0	1	0.403	9	82	82
150	1	286	1	2	1	0.0500	0.2283	0	1	0.923	50	0	0
150	1	287	1	2	2	0.0500	0.2283	0	1	0.529	82	0	0
150	1	288	0	2	2	0.0500	0.2283	0	1	0.349	10	82	82
150	1	289	9	2	3	0.0500	0.2283	0	1	0.408	0	82	82
150	1	290	0	2	2	0.0500	0.2283	0	1	0.360	10	82	82
150	1	291	1	2	3	0.0500	0.2283	1	0	0.524	0	82	0
150	1	292	1	1	1	0.0500	0.2283	1	1	0.559	79	0	82
150	1	293	0	1	1	0.0500	0.2283	1	1	0.409	9	82	0
150	1	294	9	1	2	0.0500	0.2283	1	0	0.745	0	82	0
150	1	295	9	2	1	0.0500	0.2283	1	1	1.029	0	0	82
150	1	296	9	2	2	0.0500	0.2283	0	1	0.453	0	82	82
150	1	297	0	2	3	0.0500	0.2283	1	1	0.653	7	0	82
150	1	298	1	2	3	0.0500	0.2283	0	1	1.403	50	0	0
150	1	299	0	2	2	0.0500	0.2283	0	1	0.378	10	82	82
150	1	300	1	1	3	0.0500	0.2283	1	0	1.101	0	0	82
150	1	301	0	2	3	0.0500	0.2283	1	1	0.702	6	0	82
150	1	302	1	1	1	0.0500	0.2283	0	1	0.484	87	0	0
150	1	303	0	2	3	0.0500	0.2283	0	1	0.812	5	82	82
150	1	304	1	2	3	0.0500	0.2283	1	1	0.574	78	82	0
150	1	305	9	1	1	0.0500	0.2283	1	1	0.593	0	0	82
150	1	306	0	2	3	0.0500	0.2283	1	1	0.747	6	0	82
150	1	307	0	1	1	0.0500	0.2283	0	1	0.509	8	82	82
150	1	308	0	2	3	0.0500	0.2283	0	1	0.746	6	82	82
150	1	309	0	1	3	0.0500	0.2283	1	0	1.541	0	82	0
150	1	310	0	1	1	0.0500	0.2283	1	1	0.513	8	82	0
150	1	311	1	2	1	0.0500	0.2283	1	1	0.687	66	82	0
150	1	312	0	2	3	0.0500	0.2283	0	1	0.715	6	82	82
150	1	313	0	1	1	0.0500	0.2283	1	1	0.526	8	82	0
150	1	314	0	1	1	0.0500	0.2283	0	1	0.402	9	82	82
150	1	315	9	2	2	0.0500	0.2283	0	1	0.523	0	82	82
150	1	316	0	1	2	0.0500	0.2283	0	1	0.738	6	82	82
150	1	317	1	1	3	0.0500	0.2283	0	1	0.717	63	0	0
150	1	318	9	1	3	0.0500	0.2283	0	1	0.442	0	0	0
150	1	319	9	1	1	0.0500	0.2283	1	1	0.643	0	82	0
150	1	320	1	1	3	0.0500	0.2283	0	1	0.532	82	0	0
150	1	321	1	1	3	0.0500	0.2283	1	0	0.773	0	0	82
150	1	322	1	1	3	0.0500	0.2283	1	1	1.105	50	0	82
150	1	323	0	1	3	0.0500	0.2283	1	1	0.796	6	82	0
150	1	324	1	1	3	0.0500	0.2283	1	1	0.716	63	0	82
150	1	325	1	2	3	0.0500	0.2283	0	1	0.667	68	0	0
150	1	326	0	2	2	0.0500	0.2283	1	1	0.512	8	0	82
150	1	327	0	2	2	0.0500	0.2283	1	1	0.494	9	0	82
150	1	328	9	1	1	0.0500	0.2283	0	1	0.451	0	82	82
150	1	329	0	1	3	0.0500	0.2283	1	0	0.642	0	82	0
150	1	330	0	2	2	0.0500	0.2283	0	1	0.779	6	82	82
150	1	331	1	1	1	0.0500	0.2283	1	1	0.574	78	0	82
150	1	332	1	2	2	0.0500	0.2283	0	1	0.471	88	0	0
150	1	333	9	1	1	0.0500	0.2283	1	1	0.484	0	82	0
150	1	334	1	1	3	0.0500	0.2283	0	1	0.497	85	0	0
150	1	335	1	2	2	0.0500	0.2283	1	1	0.495	86	82	0
150	1	336	0	1	3	0.0500	0.2283	1	1	1.142	5	82	0
150	1	337	1	1	1	0.0500	0.2283	1	1	0.539	81	0	82
150	1	338	1	2	3	0.0500	0.2283	1	1	0.485	86	82	0
150	1	339	1	2	2	0.0500	0.2283	1	1	0.597	75	82	0
150	1	340	0	1	3	0.0500	0.2283	1	1	0.461	9	82	0
150	1	341	0	1	3	0.0500	0.2283	0	1	0.731	6	82	82
150	1	342	1	2	2	0.0500	0.2283	0	0	0.605	0	0	0
150	1	343	0	2	2	0.0500	0.2283	1	1	0.503	8	0	82
150	1	344	9	2	2	0.0500	0.2283	1	1	0.507	0	82	0
150	1	345	0	2	3	0.0500	0.2283	1	1	0.447	9	0	82
150	1	346	9	2	2	0.0500	0.2283	0	1	0.469	0	82	82
150	1	347	0	1	1	0.0500	0.2283	0	1	0.490	9	82	82
150	1	348	9	2	2	0.0500	0.2283	1	1	0.481	0	82	0
150	1	349	1	1	1	0.0500	0.2283	1	1	0.607	74	0	82
150	1	350	1	2	3	0.0500	0.2283	0	1	0.441	91	0	0
150	1	351	1	2	2	0.0500	0.2283	0	1	0.456	89	0	0
150	1	352	1	2	1	0.0500	0.2283	0	1	0.943	50	0	0
150	1	353	9	2	2	0.0500	0.2283	0	1	0.419	0	82	82
150	1	354	1	2	3	0.0500	0.2283	0	1	0.436	91	0	0
150	1	355	1	2	3	0.0500	0.2283	1	1	0.636	71	82	0
150	1	356	0	2	3	0.0500	0.2283	0	1	0.606	7	82	82
150	1	357	0	1	1	0.0500	0.2283	1	1	0.609	7	82	0
150	1	358	1	2	3	0.0500	0.2283	1	1	0.475	87	82	0
150	1	359	1	1	1	0.0500	0.2283	0	1	0.496	85	0	0
150	1	360	0	2	2	0.0500	0.2283	0	1	0.462	9	82	82
150	1	361	1	2	3	0.0500	0.2283	1	1	0.519	83	82	0
150	1	362	1	1	3	0.0500	0.2283	1	0	1.140	0	0	82
150	1	363	0	1	3	0.0500	0.2283	1	1	0.625	7	82	0
150	1	364	9	1	1	0.0500	0.2283	0	1	0.488	0	82	82
150	1	365	1	2	2	0.0500	0.2283	0	1	0.584	77	0	0
150	1	366	0	2	2	0.0500	0.2283	1	1	0.456	9	0	82
150	1	367	9	1	2	0.0500	0.2283	0	0	1.110	0	82	82
150	1	368	0	1	1	0.0500	0.2283	1	1	0.586	8	82	0
150	1	369	0	2	1	0.0500	0.2283	1	1	1.054	5	0	82
150	1	370	0	2	2	0.0500	0.2283	1	1	0.492	9	0	82
150	1	371	1	2	3	0.0500	0.2283	0	1	1.000	50	0	0
150	1	372	0	2	3	0.0500	0.2283	1	1	0.491	9	0	82
150	1	373	1	2	2	0.0500	0.2283	1	1	0.465	88	82	0
150	1	374	9	1	1	0.0500	0.2283	1	1	0.496	0	0	82
150	1	375	1	1	2	0.0500	0.2283	1	0	1.078	0	0	82
150	1	376	0	2	3	0.0500	0.2283	0	1	0.468	9	82	82
150	1	377	1	1	3	0.0500	0.2283	1	0	0.828	0	0	82
150	1	378	1	1	2	0.0500	0.2283	1	1	1.285	50	0	82
150	1	379	0	2	3	0.0500	0.2283	0	1	0.754	6	82	82
150	1	380	1	2	2	0.0500	0.2283	1	1	0.542	81	82	0
150	1	381	0	1	1	0.0500	0.2283	0	1	1.020	5	82	82
150	1	382	1	2	2	0.0500	0.2283	1	1	0.620	73	82	0
150	1	383	1	1	3	0.0500	0.2283	1	1	1.099	50	0	82
150	1	384	0	1	1	0.0500	0.2283	0	1	0.514	8	82	82
150	1	385	9	1	2	0.0500	0.2283	1	0	1.110	0	0	82
150	1	386	1	2	2	0.0500	0.2283	0	1	0.532	82	0	0
150	1	387	9	1	3	0.0500	0.2283	0	1	0.689	0	82	82
150	1	388	1	2	2	0.0500	0.2283	1	1	0.517	83	82	0
150	1	389	0	2	2	0.0500	0.2283	1	1	0.423	9	0	82
150	1	390	0	2	2	0.0500	0.2283	0	1	0.495	9	82	82
150	1	391	1	2	3	0.0500	0.2283	0	1	0.461	89	0	0
150	1	392	0	2	3	0.0500	0.2283	1	1	0.506	8	0	82
150	1	393	0	1	3	0.0500	0.2283	1	0	0.704	0	82	0
150	1	394	9	1	3	0.0500	0.2283	1	0	0.852	0	82	0
150	1	395	0	1	1	0.0500	0.2283	0	1	0.506	8	82	82
150	1	396	0	1	1	0.0500	0.2283	1	0	0.697	0	82	0
150	1	397	0	2	1	0.0500	0.2283	0	1	0.689	7	82	82
150	1	398	0	1	1	0.0500	0.2283	0	1	0.511	8	82	82
150	1	399	0	2	3	0.0500	0.2283	1	1	0.683	7	0	82
150	1	400	0	1	3	0.0500	0.2283	1	0	0.760	0	82	0
150	1	401	0	1	1	0.0500	0.2283	0	1	0.576	8	82	82
150	1	402	1	1	1	0.0500	0.2283	0	1	0.459	89	0	0
150	1	403	9	2	3	0.0500	0.2283	0	1	0.668	0	0	0
150	1	404	0	1	3	0.0500	0.2283	0	1	0.684	7	82	82
150	1	405	0	1	3	0.0500	0.2283	1	0	0.778	0	82	0
150	1	406	0	1	3	0.0500	0.2283	1	1	0.580	8	82	0
150	1	407	1	1	1	0.0500	0.2283	0	1	0.703	65	0	0
150	1	408	1	1	1	0.0500	0.2283	1	1	0.540	81	0	82
150	1	409	1	1	3	0.0500	0.2283	0	1	0.657	69	0	0
150	1	410	9	2	2	0.0500	0.2283	1	1	0.593	0	0	82
150	1	411	0	2	2	0.0500	0.2283	0	1	0.539	8	82	82
150	1	412	1	1	1	0.0500	0.2283	1	1	0.527	82	0	82
150	1	413	9	2	3	0.0500	0.2283	1	1	0.644	0	82	0
150	1	414	9	1	1	0.0500	0.2283	1	1	0.554	0	82	0
150	1	415	1	2	3	0.0500	0.2283	0	1	0.885	50	0	0
150	1	416	1	2	1	0.0500	0.2283	0	0	0.893	0	0	0
150	1	417	0	1	3	0.0500	0.2283	0	1	0.809	5	82	82
150	1	418	0	1	1	0.0500	0.2283	0	1	0.539	8	82	82
150	1	419	9	2	3	0.0500	0.2283	0	1	0.599	0	82	82
150	1	420	1	1	2	0.0500	0.2283	1	1	1.569	50	0	82
150	1	421	1	2	2	0.0500	0.2283	0	1	0.545	80	0	0
150	1	422	0	1	1	0.0500	0.2283	0	1	0.604	7	82	82
150	1	423	0	2	3	0.0500	0.2283	1	1	0.685	7	0	82
150	1	424	1	2	3	0.0500	0.2283	1	1	0.484	87	82	0
150	1	425	9	2	2	0.0500	0.2283	1	1	0.532	0	82	0
150	1	426	9	1	3	0.0500	0.2283	0	1	0.967	0	82	82
150	1	427	1	1	3	0.0500	0.2283	0	1	0.736	61	0	0
150	1	428	1	1	1	0.0500	0.2283	0	1	0.565	79	0	0
150	1	429	0	1	2	0.0500	0.2283	0	0	1.105	0	82	82
150	1	430	0	2	3	0.0500	0.2283	0	1	0.653	7	82	82
150	1	431	9	2	3	0.0500	0.2283	0	1	0.438	0	82	82
150	1	432	0	1	3	0.0500	0.2283	1	0	0.814	0	82	0
150	1	433	9	2	3	0.0500	0.2283	0	1	0.893	0	82	82
150	1	434	0	2	3	0.0500	0.2283	1	1	0.548	8	0	82
150	1	435	0	2	2	0.0500	0.2283	1	1	0.439	9	0	82
150	1	436	9	1	1	0.0500	0.2283	0	1	0.465	0	82	82
150	1	437	0	2	3	0.0500	0.2283	1	1	0.681	7	0	82
150	1	438	0	2	3	0.0500	0.2283	0	1	0.456	9	82	82
150	1	439	0	1	3	0.0500	0.2283	0	1	0.718	6	82	82
150	1	440	0	1	3	0.0500	0.2283	0	1	0.586	8	82	82
150	1	441	1	2	3	0.0500	0.2283	0	1	0.481	87	0	0
150	1	442	0	2	2	0.0500	0.2283	0	1	0.390	10	82	82
150	1	443	9	1	1	0.0500	0.2283	0	1	0.560	0	0	0
150	1	444	9	2	3	0.0500	0.2283	1	1	0.572	0	82	0
150	1	445	1	1	1	0.0500	0.2283	0	1	0.519	83	0	0
150	1	446	1	1	1	0.0500	0.2283	1	1	0.573	78	0	82
150	1	447	1	1	3	0.0500	0.2283	0	1	0.519	83	0	0
150	1	448	9	2	3	0.0500	0.2283	0	1	0.771	0	0	0
150	1	449	1	2	1	0.0500	0.2283	0	1	0.743	61	0	0
150	1	450	9	2	2	0.0500	0.2283	1	1	0.586	0	82	0
150	1	451	9	2	1	0.0500	0.2283	1	1	0.740	0	82	0
150	1	452	0	2	2	0.0500	0.2283	1	1	0.559	8	0	82
150	1	453	0	1	3	0.0500	0.2283	0	1	0.698	7	82	82
150	1	454	9	2	2	0.0500	0.2283	1	1	0.584	0	82	0
150	1	455	0	1	3	0.0500	0.2283	0	1	0.657	7	82	82
150	1	456	0	1	3	0.0500	0.2283	1	1	1.137	5	82	0
150	1	457	1	2	3	0.0500	0.2283	1	1	0.670	68	82	0
150	1	458	1	1	1	0.0500	0.2283	1	1	0.539	81	0	82
150	1	459	9	1	1	0.0500	0.2283	1	1	0.893	0	82	0
150	1	460	1	2	2	0.0500	0.2283	1	1	0.529	82	82	0
150	1	461	9	2	3	0.0500	0.2283	1	1	0.596	0	0	82
150	1	462	1	2	3	0.0500	0.2283	1	1	0.470	88	82	0
150	1	463	1	2	2	0.0500	0.2283	1	1	0.428	92	82	0
150	1	464	0	1	1	0.0500	0.2283	1	1	0.637	7	82	0
150	1	465	1	2	2	0.0500	0.2283	0	1	0.567	78	0	0
150	1	466	9	1	1	0.0500	0.2283	1	1	0.531	0	82	0
150	1	467	0	2	1	0.0500	0.2283	1	1	0.790	6	0	82
150	1	468	0	1	3	0.0500	0.2283	1	1	0.671	7	82	0
150	1	469	1	1	3	0.0500	0.2283	0	1	0.703	65	0	0
150	1	470	9	1	3	0.0500	0.2283	1	1	0.645	0	0	82
150	1	471	0	1	2	0.0500	0.2283	0	1	0.829	5	82	82
150	1	472	1	2	2	0.0500	0.2283	1	1	0.548	80	82	0
150	1	473	0	1	3	0.0500	0.2283	1	0	0.910	0	82	0
150	1	474	1	1	1	0.0500	0.2283	0	1	0.539	81	0	0
150	1	475	9	2	2	0.0500	0.2283	0	1	0.606	0	82	82
150	1	476	1	1	1	0.0500	0.2283	1	1	0.545	81	0	82
150	1	477	9	2	3	0.0500	0.2283	1	1	0.821	0	0	82
150	1	478	0	2	3	0.0500	0.2283	1	1	0.484	9	0	82
150	1	479	1	2	2	0.0500	0.2283	1	1	0.481	87	82	0
150	1	480	1	2	3	0.0500	0.2283	1	1	0.406	94	82	0
150	1	481	9	2	3	0.0500	0.2283	0	1	0.721	0	82	82
150	1	482	1	2	2	0.0500	0.2283	0	1	0.502	85	0	0
150	1	483	1	1	1	0.0500	0.2283	1	1	0.475	88	0	82
150	1	484	9	2	1	0.0500	0.2283	1	1	0.899	0	0	82
150	1	485	9	2	3	0.0500	0.2283	0	1	0.559	0	0	0
150	1	486	0	1	3	0.0500	0.2283	0	1	0.811	5	82	82
150	1	487	9	2	1	0.0500	0.2283	0	1	0.861	0	82	82
150	1	488	1	1	1	0.0500	0.2283	1	1	0.549	80	0	82
150	1	489	0	1	1	0.0500	0.2283	1	1	0.514	8	82	0
150	1	490	9	1	3	0.0500	0.2283	1	1	0.840	0	82	0
150	1	491	0	1	1	0.0500	0.2283	1	1	0.534	8	82	0
150	1	492	1	1	3	0.0500	0.2283	1	1	0.514	84	0	82
150	1	493	1	2	3	0.0500	0.2283	1	1	0.608	74	82	0
150	1	494	9	1	3	0.0500	0.2283	0	1	0.770	0	82	82
150	1	495	9	2	3	0.0500	0.2283	1	1	0.733	0	0	82
150	1	496	9	1	3	0.0500	0.2283	0	1	0.939	0	0	0
150	1	497	0	1	1	0.0500	0.2283	1	1	0.648	7	82	0
150	1	498	0	1	1	0.0500	0.2283	1	1	0.552	8	82	0
150	1	499	1	2	2	0.0500	0.2283	0	1	0.474	88	0	0
150	1	500	1	2	2	0.0500	0.2283	0	1	0.391	96	0	0
150	1	501	1	1	1	0.0500	0.2283	1	1	0.656	69	0	82
150	1	502	0	1	1	0.0500	0.2283	0	1	0.598	8	82	82
150	1	503	1	1	3	0.0500	0.2283	0	1	0.585	76	0	0
150	1	504	1	2	2	0.0500	0.2283	1	1	0.532	82	82	0
150	1	505	9	1	1	0.0500	0.2283	0	1	0.616	0	82	82
150	1	506	0	1	1	0.0500	0.2283	1	1	0.512	8	82	0
150	1	507	0	1	2	0.0500	0.2283	0	1	0.990	5	82	82
150	1	508	9	1	1	0.0500	0.2283	0	1	0.511	0	0	0
150	1	509	9	1	3	0.0500	0.2283	1	0	1.163	0	0	82
150	1	510	0	2	2	0.0500	0.2283	0	1	0.639	7	82	82
150	1	511	0	1	3	0.0500	0.2283	0	1	0.728	6	82	82
150	1	512	1	1	1	0.0500	0.2283	1	1	0.757	59	0	82
150	1	513	9	1	2	0.0500	0.2283	1	0	0.768	0	82	0
150	1	514	0	2	2	0.0500	0.2283	0	1	0.522	8	82	82
150	1	515	0	2	3	0.0500	0.2283	1	1	0.776	6	0	82
150	1	516	0	1	1	0.0500	0.2283	0	1	0.569	8	82	82
150	1	517	1	1	1	0.0500	0.2283	0	1	0.443	91	0	0
150	1	518	0	2	3	0.0500	0.2283	0	1	0.931	5	82	82
150	1	519	9	2	2	0.0500	0.2283	0	1	0.414	0	82	82
150	1	520	0	1	1	0.0500	0.2283	1	1	0.590	8	82	0
150	1	521	0	1	3	0.0500	0.2283	1	0	1.304	0	82	0
150	1	522	9	2	2	0.0500	0.2283	0	1	0.464	0	0	0
150	1	523	0	2	3	0.0500	0.2283	1	1	0.695	7	0	82
150	1	524	1	2	3	0.0500	0.2283	1	1	0.436	91	82	0
150	1	525	0	2	3	0.0500	0.2283	0	1	0.642	7	82	82
150	1	526	0	1	2	0.0500	0.2283	0	1	0.802	5	82	82
150	1	527	0	2	1	0.0500	0.2283	1	1	0.781	6	0	82
150	1	528	1	1	3	0.0500	0.2283	1	1	0.824	53	0	82
150	1	529	0	2	2	0.0500	0.2283	1	1	0.554	8	0	82
150	1	530	1	2	3	0.0500	0.2283	1	1	0.684	67	82	0
150	1	531	1	1	3	0.0500	0.2283	0	0	1.179	0	0	0
150	1	532	0	2	3	0.0500	0.2283	1	1	0.543	8	0	82
150	1	533	1	1	1	0.0500	0.2283	0	1	0.707	64	0	0
150	1	534	0	2	2	0.0500	0.2283	1	1	0.570	8	0	82
150	1	535	0	1	3	0.0500	0.2283	1	0	0.964	0	82	0
150	1	536	0	1	2	0.0500	0.2283	1	0	0.837	0	82	0
150	1	537	9	1	1	0.0500	0.2283	0	1	0.583	0	0	0
150	1	538	0	1	3	0.0500	0.2283	0	1	0.849	5	82	82
150	1	539	1	2	2	0.0500	0.2283	0	1	0.456	89	0	0
150	1	540	1	2	2	0.0500	0.2283	0	1	0.398	95	0	0
150	1	541	1	1	3	0.0500	0.2283	0	1	0.764	59	0	0
150	1	542	0	2	2	0.0500	0.2283	1	1	0.532	8	0	82
150	1	543	0	2	3	0.0500	0.2283	0	1	0.447	9	82	82
150	1	544	1	2	2	0.0500	0.2283	0	1	0.343	100	0	0
150	1	545	0	1	1	0.0500	0.2283	0	1	0.482	9	82	82
150	1	546	0	2	2	0.0500	0.2283	0	1	0.504	8	82	82
150	1	547	9	2	2	0.0500	0.2283	1	0	0.365	0	0	82
150	1	548	9	1	1	0.0500	0.2283	0	1	0.862	0	0	0
150	1	549	9	2	1	0.0500	0.2283	0	0	1.110	0	0	0
150	1	550	9	1	3	0.0500	0.2283	1	1	0.754	0	0	82
150	1	551	0	2	2	0.0500	0.2283	0	1	0.448	9	82	82
150	1	552	1	2	3	0.0500	0.2283	1	1	0.560	79	82	0
150	1	553	1	2	1	0.0500	0.2283	0	0	0.771	0	0	0
150	1	554	1	1	3	0.0500	0.2283	1	0	0.839	0	0	82
150	1	555	1	2	2	0.0500	0.2283	1	1	0.550	80	82	0
150	1	556	0	2	2	0.0500	0.2283	0	1	0.530	8	82	82
150	1	557	0	1	2	0.0500	0.2283	1	0	0.966	0	82	0
150	1	558	1	1	3	0.0500	0.2283	0	1	0.609	74	0	0
150	1	559	0	1	1	0.0500	0.2283	0	0	1.122	0	82	82
150	1	560	0	2	3	0.0500	0.2283	1	1	0.582	8	0	82
150	1	561	1	1	3	0.0500	0.2283	0	1	0.647	70	0	0
150	1	562	9	2	2	0.0500	0.2283	0	1	0.437	0	82	82
150	1	563	1	1	2	0.0500	0.2283	0	1	0.701	65	0	0
150	1	564	1	1	2	0.0500	0.2283	0	1	0.547	80	0	0
150	1	565	9	2	3	0.0500	0.2283	1	1	0.768	0	82	0
150	1	566	9	2	2	0.0500	0.2283	0	1	0.409	0	0	0
150	1	567	0	1	1	0.0500	0.2283	1	1	0.544	8	82	0
150	1	568	0	2	3	0.0500	0.2283	1	1	0.748	6	0	82
150	1	569	1	2	3	0.0500	0.2283	0	1	0.583	77	0	0
150	1	570	1	1	3	0.0500	0.2283	1	1	0.642	71	0	82
150	1	571	1	2	2	0.0500	0.2283	1	1	0.551	80	82	0
150	1	572	1	2	3	0.0500	0.2283	0	1	0.489	86	0	0
150	1	573	0	2	3	0.0500	0.2283	0	1	0.831	5	82	82
150	1	574	1	2	2	0.0500	0.2283	0	1	0.463	89	0	0
150	1	575	9	1	3	0.0500	0.2283	0	1	0.851	0	82	82
150	1	576	9	1	1	0.0500	0.2283	1	1	1.442	0	0	82
150	1	577	9	2	2	0.0500	0.2283	1	1	0.482	0	0	82
150	1	578	9	1	1	0.0500	0.2283	0	1	0.607	0	82	82
150	1	579	0	1	3	0.0500	0.2283	0	1	0.616	7	82	82
150	1	580	0	2	1	0.0500	0.2283	0	1	0.649	7	82	82
150	1	581	9	2	3	0.0500	0.2283	0	1	0.562	0	0	0
150	1	582	1	1	3	0.0500	0.2283	1	1	0.660	69	0	82
150	1	583	1	2	3	0.0500	0.2283	0	1	0.641	71	0	0
150	1	584	1	1	1	0.0500	0.2283	1	1	0.601	75	0	82
150	1	585	0	2	3	0.0500	0.2283	0	1	0.537	8	82	82
150	1	586	9	1	3	0.0500	0.2283	0	1	0.669	0	0	0
150	1	587	0	2	3	0.0500	0.2283	1	1	0.654	7	0	82
150	1	588	9	1	1	0.0500	0.2283	1	1	0.677	0	0	82
150	1	589	1	1	2	0.0500	0.2283	0	1	1.198	50	0	0
150	1	590	1	1	3	0.0500	0.2283	0	1	0.654	70	0	0
150	1	591	1	1	2	0.0500	0.2283	0	1	0.579	77	0	0
150	1	592	9	2	3	0.0500	0.2283	1	1	0.541	0	82	0
150	1	593	0	2	2	0.0500	0.2283	0	1	0.410	9	82	82
150	1	594	0	2	2	0.0500	0.2283	1	1	0.476	9	0	82
150	1	595	0	1	3	0.0500	0.2283	0	1	0.730	6	82	82
150	1	596	0	2	2	0.0500	0.2283	0	1	0.510	8	82	82
150	1	597	1	2	1	0.0500	0.2283	1	1	0.746	60	82	0
150	1	598	1	1	3	0.0500	0.2283	1	1	0.581	77	0	82
150	1	599	1	1	1	0.0500	0.2283	1	1	0.591	76	0	82
150	1	600	1	1	1	0.0500	0.2283	0	1	0.552	80	0	0
150	1	601	0	2	2	0.0500	0.2283	0	1	0.460	9	82	82
150	1	602	0	2	3	0.0500	0.2283	0	1	0.449	9	82	82
150	1	603	9	1	1	0.0500	0.2283	1	1	0.562	0	0	82
150	1	604	1	2	1	0.0500	0.2283	1	1	0.701	65	82	0
150	1	605	1	2	3	0.0500	0.2283	0	1	0.595	75	0	0
150	1	606	0	1	3	0.0500	0.2283	1	1	0.916	5	82	0
150	1	607	0	2	1	0.0500	0.2283	1	1	0.682	7	0	82
150	1	608	1	1	1	0.0500	0.2283	1	1	0.607	74	0	82
150	1	609	0	1	1	0.0500	0.2283	0	1	0.551	8	82	82
150	1	610	1	2	2	0.0500	0.2283	0	1	0.392	96	0	0
150	1	611	1	2	3	0.0500	0.2283	1	1	0.707	64	82	0
150	1	612	9	2	2	0.0500	0.2283	0	1	0.458	0	82	82
150	1	613	0	2	2	0.0500	0.2283	1	1	0.545	8	0	82
150	1	614	0	2	1	0.0500	0.2283	0	1	0.868	5	82	82
150	1	615	0	2	3	0.0500	0.2283	0	1	0.434	9	82	82
150	1	616	1	2	2	0.0500	0.2283	1	1	0.433	92	82	0
150	1	617	1	1	3	0.0500	0.2283	1	1	1.048	50	0	82
150	1	618	1	2	1	0.0500	0.2283	1	1	0.815	53	82	0
150	1	619	1	1	1	0.0500	0.2283	0	0	0.809	0	0	0
150	1	620	0	2	2	0.0500	0.2283	1	1	0.515	8	0	82
150	1	621	0	1	1	0.0500	0.2283	0	1	0.599	8	82	82
150	1	622	0	2	2	0.0500	0.2283	1	1	0.464	9	0	82
150	1	623	1	2	3	0.0500	0.2283	1	1	1.238	50	82	0
150	1	624	0	1	1	0.0500	0.2283	0	1	0.527	8	82	82
150	1	625	0	2	2	0.0500	0.2283	1	1	0.628	7	0	82
150	1	626	1	2	3	0.0500	0.2283	0	0	0.588	0	0	0
150	1	627	1	1	1	0.0500	0.2283	0	1	0.661	69	0	0
150	1	628	1	1	3	0.0500	0.2283	0	1	0.820	53	0	0
150	1	629	1	1	3	0.0500	0.2283	0	1	0.749	60	0	0
150	1	630	9	1	3	0.0500	0.2283	1	0	0.680	0	82	0
150	1	631	1	2	1	0.0500	0.2283	1	0	0.950	0	82	0
150	1	632	1	2	2	0.0500	0.2283	1	1	0.530	82	82	0
150	1	633	0	2	2	0.0500	0.2283	1	1	0.501	8	0	82
150	1	634	0	2	3	0.0500	0.2283	1	1	0.720	6	0	82
150	1	635	1	2	3	0.0500	0.2283	0	1	0.581	77	0	0
150	1	636	0	1	1	0.0500	0.2283	0	0	0.902	0	82	82
150	1	637	9	1	3	0.0500	0.2283	0	1	0.594	0	0	0
150	1	638	1	2	2	0.0500	0.2283	1	1	0.451	90	82	0
150	1	639	1	1	3	0.0500	0.2283	0	1	0.666	68	0	0
150	1	640	1	1	1	0.0500	0.2283	1	1	0.938	50	0	82
150	1	641	0	2	2	0.0500	0.2283	0	1	0.633	7	82	82
150	1	642	1	2	3	0.0500	0.2283	1	1	0.584	77	82	0
150	1	643	0	1	2	0.0500	0.2283	1	0	0.953	0	82	0
150	1	644	1	1	3	0.0500	0.2283	0	1	0.910	50	0	0
150	1	645	0	1	1	0.0500	0.2283	1	0	1.261	0	82	0
150	1	646	0	1	3	0.0500	0.2283	0	1	0.642	7	82	82
150	1	647	1	2	3	0.0500	0.2283	1	1	0.705	64	82	0
150	1	648	9	2	2	0.0500	0.2283	1	1	0.526	0	82	0
150	1	649	1	1	1	0.0500	0.2283	0	1	0.516	83	0	0
150	1	650	1	2	2	0.0500	0.2283	0	1	0.504	85	0	0
150	1	651	0	2	2	0.0500	0.2283	1	1	0.548	8	0	82
150	1	652	0	1	3	0.0500	0.2283	1	1	0.767	6	82	0
150	1	653	9	1	3	0.0500	0.2283	1	1	0.755	0	0	82
150	1	654	0	2	3	0.0500	0.2283	0	1	0.807	5	82	82
150	1	655	0	1	3	0.0500	0.2283	0	1	0.871	5	82	82
150	1	656	0	1	1	0.0500	0.2283	1	0	0.892	0	82	0
150	1	657	1	1	1	0.0500	0.2283	0	1	0.674	68	0	0
150	1	658	1	1	3	0.0500	0.2283	1	1	1.050	50	0	82
150	1	659	1	2	3	0.0500	0.2283	1	1	0.752	60	82	0
150	1	660	1	2	2	0.0500	0.2283	1	1	0.757	59	82	0
150	1	661	1	2	3	0.0500	0.2283	0	1	0.649	70	0	0
150	1	662	1	1	1	0.0500	0.2283	0	1	0.625	73	0	0
150	1	663	9	1	3	0.0500	0.2283	1	0	1.424	0	82	0
150	1	664	1	2	3	0.0500	0.2283	1	1	0.577	77	82	0
150	1	665	0	1	3	0.0500	0.2283	0	1	0.659	7	82	82
150	1	666	1	1	3	0.0500	0.2283	0	1	0.689	66	0	0
150	1	667	0	2	2	0.0500	0.2283	0	1	0.510	8	82	82
150	1	668	1	1	1	0.0500	0.2283	1	1	0.716	63	0	82
150	1	669	0	2	3	0.0500	0.2283	1	1	1.008	5	0	82
150	1	670	1	1	1	0.0500	0.2283	0	1	0.641	71	0	0
150	1	671	9	2	2	0.0500	0.2283	1	1	0.522	0	0	82
150	1	672	1	2	2	0.0500	0.2283	1	1	0.431	92	82	0
150	1	673	0	1	1	0.0500	0.2283	1	1	0.639	7	82	0
150	1	674	0	2	3	0.0500	0.2283	0	1	0.848	5	82	82
150	1	675	0	1	1	0.0500	0.2283	1	1	1.672	5	82	0
150	1	676	1	2	3	0.0500	0.2283	0	1	0.582	77	0	0
150	1	677	0	1	3	0.0500	0.2283	0	1	0.560	8	82	82
150	1	678	0	2	2	0.0500	0.2283	1	1	0.451	9	0	82
150	1	679	0	2	2	0.0500	0.2283	0	1	0.579	8	82	82
150	1	680	0	2	3	0.0500	0.2283	0	1	0.479	9	82	82
150	1	681	9	2	3	0.0500	0.2283	1	1	0.536	0	0	82
150	1	682	1	2	2	0.0500	0.2283	0	1	0.461	89	0	0
150	1	683	9	2	2	0.0500	0.2283	0	1	0.426	0	0	0
150	1	684	0	2	1	0.0500	0.2283	0	0	0.650	0	82	82
150	1	685	0	1	3	0.0500	0.2283	1	1	0.912	5	82	0
150	1	686	0	2	3	0.0500	0.2283	1	1	0.923	5	0	82
150	1	687	1	1	3	0.0500	0.2283	1	1	0.698	65	0	82
150	1	688	0	1	1	0.0500	0.2283	1	1	0.670	7	82	0
150	1	689	1	2	3	0.0500	0.2283	0	1	0.684	67	0	0
150	1	690	0	1	3	0.0500	0.2283	0	1	0.579	8	82	82
150	1	691	9	1	3	0.0500	0.2283	0	1	0.663	0	0	0
150	1	692	9	2	2	0.0500	0.2283	0	1	0.751	0	0	0
150	1	693	1	2	3	0.0500	0.2283	0	1	0.570	78	0	0
150	1	694	1	2	3	0.0500	0.2283	0	1	0.532	82	0	0
150	1	695	0	2	3	0.0500	0.2283	0	1	0.545	8	82	82
150	1	696	1	2	2	0.0500	0.2283	0	1	0.494	86	0	0
150	1	697	1	2	3	0.0500	0.2283	0	1	0.491	86	0	0
150	1	698	0	1	2	0.0500	0.2283	1	0	0.994	0	82	0
150	1	699	1	1	3	0.0500	0.2283	1	0	0.819	0	0	82
150	1	700	0	2	2	0.0500	0.2283	0	1	0.475	9	82	82
150	1	701	1	1	3	0.0500	0.2283	0	1	0.741	61	0	0
150	1	702	9	1	1	0.0500	0.2283	1	0	0.872	0	82	0
150	1	703	0	1	3	0.0500	0.2283	1	1	0.797	6	82	0
150	1	704	0	2	2	0.0500	0.2283	0	1	0.439	9	82	82
150	1	705	0	1	1	0.0500	0.2283	1	1	0.605	7	82	0
150	1	706	1	1	2	0.0500	0.2283	1	1	1.057	50	0	82
150	1	707	1	2	1	0.0500	0.2283	0	1	0.840	51	0	0
150	1	708	1	2	2	0.0500	0.2283	0	1	0.423	93	0	0
150	1	709	0	1	3	0.0500	0.2283	1	0	0.792	0	82	0
150	1	710	1	1	3	0.0500	0.2283	1	0	0.874	0	0	82
150	1	711	1	1	1	0.0500	0.2283	1	0	1.633	0	0	82
150	1	712	1	1	1	0.0500	0.2283	1	1	0.747	60	0	82
150	1	713	1	2	3	0.0500	0.2283	1	1	0.647	70	82	0
150	1	714	9	1	2	0.0500	0.2283	0	1	1.072	0	0	0
150	1	715	1	1	1	0.0500	0.2283	0	1	0.560	79	0	0
150	1	716	1	1	3	0.0500	0.2283	1	1	0.637	71	0	82
150	1	717	0	2	3	0.0500	0.2283	0	1	1.245	5	82	82
150	1	718	1	1	3	0.0500	0.2283	1	1	0.844	51	0	82
150	1	719	1	1	1	0.0500	0.2283	0	1	0.645	71	0	0
150	1	720	0	1	1	0.0500	0.2283	0	1	0.475	9	82	82
