sub	sess	t	rew	loc	cue	co1	co2	or	resp	rt	rew_tot	left_col	right_col
106	1	1	1	2	3	0.0649	0.0765	1	1	0.625	73	82	0
106	1	2	9	1	3	0.0649	0.0765	1	0	0.647	0	0	82
106	1	3	0	2	2	0.0649	0.0765	1	1	0.586	8	0	82
106	1	4	1	1	3	0.0649	0.0765	0	1	0.487	86	0	0
106	1	5	1	1	3	0.0649	0.0765	0	1	0.500	85	0	0
106	1	6	1	2	2	0.0649	0.0765	0	1	0.466	88	0	0
106	1	7	1	1	1	0.0649	0.0765	0	1	0.505	84	0	0
106	1	8	1	1	2	0.0649	0.0765	0	1	0.598	75	0	0
106	1	9	1	2	3	0.0649	0.0765	1	1	0.699	65	82	0
106	1	10	9	2	3	0.0649	0.0765	1	1	0.590	0	0	82
106	1	11	0	1	2	0.0649	0.0765	1	1	0.751	6	82	0
106	1	12	0	1	3	0.0649	0.0765	1	1	0.553	8	82	0
106	1	13	9	2	1	0.0649	0.0765	1	1	0.753	0	82	0
106	1	14	0	2	3	0.0649	0.0765	1	1	0.885	5	0	82
106	1	15	9	2	3	0.0649	0.0765	0	1	0.475	0	0	0
106	1	16	0	2	3	0.0649	0.0765	1	1	0.616	7	0	82
106	1	17	1	2	3	0.0649	0.0765	1	1	0.471	88	82	0
106	1	18	0	2	1	0.0649	0.0765	0	1	0.520	8	82	82
106	1	19	0	1	1	0.0649	0.0765	0	1	0.515	8	82	82
106	1	20	1	2	1	0.0649	0.0765	0	1	0.438	91	0	0
106	1	21	9	2	1	0.0649	0.0765	0	1	0.444	0	82	82
106	1	22	0	1	1	0.0649	0.0765	0	1	0.603	7	82	82
106	1	23	0	1	3	0.0649	0.0765	0	1	0.523	8	82	82
106	1	24	0	1	1	0.0649	0.0765	0	1	0.502	8	82	82
106	1	25	1	1	1	0.0649	0.0765	0	1	0.482	87	0	0
106	1	26	9	1	1	0.0649	0.0765	1	1	0.526	0	0	82
106	1	27	0	2	1	0.0649	0.0765	1	1	0.571	8	0	82
106	1	28	1	2	3	0.0649	0.0765	0	1	0.502	85	0	0
106	1	29	1	2	2	0.0649	0.0765	0	1	0.530	82	0	0
106	1	30	1	2	2	0.0649	0.0765	1	1	0.495	85	82	0
106	1	31	0	1	3	0.0649	0.0765	0	1	0.421	9	82	82
106	1	32	0	2	3	0.0649	0.0765	0	1	0.486	9	82	82
106	1	33	9	1	1	0.0649	0.0765	1	0	0.445	0	0	82
106	1	34	9	2	3	0.0649	0.0765	1	1	0.651	0	82	0
106	1	35	0	2	1	0.0649	0.0765	0	1	0.534	8	82	82
106	1	36	0	2	1	0.0649	0.0765	1	1	0.537	8	0	82
106	1	37	0	1	1	0.0649	0.0765	1	0	0.443	0	82	0
106	1	38	1	2	3	0.0649	0.0765	1	1	0.529	82	82	0
106	1	39	0	1	3	0.0649	0.0765	1	0	0.495	0	82	0
106	1	40	0	1	3	0.0649	0.0765	1	0	0.581	0	82	0
106	1	41	1	2	3	0.0649	0.0765	0	1	0.486	86	0	0
106	1	42	9	2	2	0.0649	0.0765	0	0	0.507	0	82	82
106	1	43	0	2	3	0.0649	0.0765	1	1	0.556	8	0	82
106	1	44	0	1	3	0.0649	0.0765	1	1	0.547	8	82	0
106	1	45	0	2	3	0.0649	0.0765	1	1	0.700	6	0	82
106	1	46	1	1	1	0.0649	0.0765	1	1	0.617	73	0	82
106	1	47	1	2	2	0.0649	0.0765	1	1	0.875	50	82	0
106	1	48	0	2	2	0.0649	0.0765	0	1	0.481	9	82	82
106	1	49	1	2	2	0.0649	0.0765	1	1	0.473	88	82	0
106	1	50	0	1	3	0.0649	0.0765	1	1	0.539	8	82	0
106	1	51	0	2	3	0.0649	0.0765	0	1	0.443	9	82	82
106	1	52	0	2	2	0.0649	0.0765	1	1	0.493	9	0	82
106	1	53	9	2	1	0.0649	0.0765	1	1	0.525	0	0	82
106	1	54	1	2	2	0.0649	0.0765	0	0	0.587	0	0	0
106	1	55	0	1	1	0.0649	0.0765	1	1	0.518	8	82	0
106	1	56	0	1	1	0.0649	0.0765	1	1	0.569	8	82	0
106	1	57	0	1	1	0.0649	0.0765	1	1	0.653	7	82	0
106	1	58	1	1	3	0.0649	0.0765	1	1	0.500	85	0	82
106	1	59	1	2	2	0.0649	0.0765	1	0	0.579	0	82	0
106	1	60	0	1	1	0.0649	0.0765	0	1	0.566	8	82	82
106	1	61	0	1	3	0.0649	0.0765	0	1	0.649	7	82	82
106	1	62	1	1	3	0.0649	0.0765	0	1	0.475	88	0	0
106	1	63	0	2	2	0.0649	0.0765	1	1	0.539	8	0	82
106	1	64	1	1	3	0.0649	0.0765	0	1	0.488	86	0	0
106	1	65	0	2	3	0.0649	0.0765	0	1	0.751	6	82	82
106	1	66	0	1	1	0.0649	0.0765	1	0	0.540	0	82	0
106	1	67	1	1	3	0.0649	0.0765	1	1	0.500	85	0	82
106	1	68	9	1	1	0.0649	0.0765	0	1	0.731	0	0	0
106	1	69	0	1	3	0.0649	0.0765	1	0	0.545	0	82	0
106	1	70	0	2	2	0.0649	0.0765	1	1	0.645	7	0	82
106	1	71	0	2	1	0.0649	0.0765	0	0	0.643	0	82	82
106	1	72	9	1	3	0.0649	0.0765	1	0	0.715	0	82	0
106	1	73	9	1	3	0.0649	0.0765	0	1	0.505	0	0	0
106	1	74	1	1	1	0.0649	0.0765	0	1	0.529	82	0	0
106	1	75	9	1	3	0.0649	0.0765	0	1	0.487	0	0	0
106	1	76	0	1	3	0.0649	0.0765	0	1	0.418	9	82	82
106	1	77	9	1	1	0.0649	0.0765	0	1	0.457	0	82	82
106	1	78	9	2	3	0.0649	0.0765	0	1	0.451	0	82	82
106	1	79	0	2	2	0.0649	0.0765	1	1	0.475	9	0	82
106	1	80	1	1	3	0.0649	0.0765	1	1	0.480	87	0	82
106	1	81	0	2	1	0.0649	0.0765	0	1	0.482	9	82	82
106	1	82	9	1	2	0.0649	0.0765	1	0	0.439	0	0	82
106	1	83	0	1	3	0.0649	0.0765	0	0	0.495	0	82	82
106	1	84	1	2	2	0.0649	0.0765	1	0	0.733	0	82	0
106	1	85	9	1	1	0.0649	0.0765	0	1	0.728	0	82	82
106	1	86	1	2	3	0.0649	0.0765	0	1	0.516	83	0	0
106	1	87	1	1	3	0.0649	0.0765	1	1	0.493	86	0	82
106	1	88	9	2	3	0.0649	0.0765	1	1	0.631	0	0	82
106	1	89	0	2	3	0.0649	0.0765	1	1	0.615	7	0	82
106	1	90	9	2	2	0.0649	0.0765	0	1	0.494	0	0	0
106	1	91	1	1	1	0.0649	0.0765	0	1	0.546	80	0	0
106	1	92	9	1	3	0.0649	0.0765	1	0	1.272	0	0	82
106	1	93	0	2	2	0.0649	0.0765	0	1	0.523	8	82	82
106	1	94	1	1	2	0.0649	0.0765	0	0	0.556	0	0	0
106	1	95	0	1	3	0.0649	0.0765	0	1	0.441	9	82	82
106	1	96	1	2	3	0.0649	0.0765	1	0	0.636	0	82	0
106	1	97	0	2	2	0.0649	0.0765	0	1	0.523	8	82	82
106	1	98	0	2	2	0.0649	0.0765	1	1	0.530	8	0	82
106	1	99	9	2	2	0.0649	0.0765	1	1	0.464	0	0	82
106	1	100	1	2	3	0.0649	0.0765	1	1	0.548	80	82	0
106	1	101	9	2	2	0.0649	0.0765	1	1	0.544	0	0	82
106	1	102	9	2	3	0.0649	0.0765	0	1	0.438	0	82	82
106	1	103	1	2	3	0.0649	0.0765	1	1	0.522	83	82	0
106	1	104	1	2	3	0.0649	0.0765	1	1	0.635	72	82	0
106	1	105	0	2	2	0.0649	0.0765	1	1	0.465	9	0	82
106	1	106	9	1	3	0.0649	0.0765	1	0	0.623	0	0	82
106	1	107	9	2	3	0.0649	0.0765	0	1	0.509	0	0	0
106	1	108	9	2	2	0.0649	0.0765	1	1	0.484	0	0	82
106	1	109	0	1	3	0.0649	0.0765	1	0	0.613	0	82	0
106	1	110	0	1	1	0.0649	0.0765	1	1	0.597	8	82	0
106	1	111	1	2	1	0.0649	0.0765	1	1	0.548	80	82	0
106	1	112	0	1	1	0.0649	0.0765	0	1	0.439	9	82	82
106	1	113	9	1	2	0.0649	0.0765	0	0	0.691	0	0	0
106	1	114	0	2	3	0.0649	0.0765	1	0	0.689	0	0	82
106	1	115	0	2	2	0.0649	0.0765	0	1	0.580	8	82	82
106	1	116	1	2	2	0.0649	0.0765	0	1	0.522	83	0	0
106	1	117	1	1	1	0.0649	0.0765	0	1	0.589	76	0	0
106	1	118	1	1	1	0.0649	0.0765	0	1	0.433	92	0	0
106	1	119	1	2	3	0.0649	0.0765	0	1	0.583	77	0	0
106	1	120	1	2	2	0.0649	0.0765	1	1	0.644	71	82	0
106	1	121	9	1	1	0.0649	0.0765	1	0	0.671	0	82	0
106	1	122	1	2	3	0.0649	0.0765	0	1	0.377	97	0	0
106	1	123	0	1	1	0.0649	0.0765	0	1	0.511	8	82	82
106	1	124	1	2	2	0.0649	0.0765	0	1	0.463	89	0	0
106	1	125	0	2	1	0.0649	0.0765	1	1	0.463	9	0	82
106	1	126	0	2	3	0.0649	0.0765	1	0	0.402	0	0	82
106	1	127	0	2	3	0.0649	0.0765	1	1	0.462	9	0	82
106	1	128	1	1	1	0.0649	0.0765	1	1	0.669	68	0	82
106	1	129	9	1	3	0.0649	0.0765	1	0	0.564	0	82	0
106	1	130	9	1	3	0.0649	0.0765	0	1	0.661	0	82	82
106	1	131	1	1	3	0.0649	0.0765	0	1	0.596	75	0	0
106	1	132	1	2	1	0.0649	0.0765	1	0	0.489	0	82	0
106	1	133	1	1	1	0.0649	0.0765	0	1	0.555	79	0	0
106	1	134	1	1	3	0.0649	0.0765	1	1	0.467	88	0	82
106	1	135	0	1	1	0.0649	0.0765	1	1	0.597	8	82	0
106	1	136	9	2	2	0.0649	0.0765	1	1	0.694	0	82	0
106	1	137	9	2	3	0.0649	0.0765	1	1	0.441	0	0	82
106	1	138	1	2	1	0.0649	0.0765	1	0	0.452	0	82	0
106	1	139	0	2	2	0.0649	0.0765	1	1	0.485	9	0	82
106	1	140	1	2	3	0.0649	0.0765	0	1	0.522	83	0	0
106	1	141	0	2	3	0.0649	0.0765	1	1	0.580	8	0	82
106	1	142	1	2	1	0.0649	0.0765	0	1	0.498	85	0	0
106	1	143	9	2	3	0.0649	0.0765	1	1	0.566	0	0	82
106	1	144	9	2	2	0.0649	0.0765	0	1	0.424	0	0	0
106	1	145	1	1	3	0.0649	0.0765	1	1	0.541	81	0	82
106	1	146	0	1	3	0.0649	0.0765	0	1	0.488	9	82	82
106	1	147	9	1	1	0.0649	0.0765	0	1	0.448	0	82	82
106	1	148	1	1	3	0.0649	0.0765	1	1	0.699	65	0	82
106	1	149	1	2	2	0.0649	0.0765	1	1	0.626	72	82	0
106	1	150	0	1	1	0.0649	0.0765	1	1	0.472	9	82	0
106	1	151	1	2	2	0.0649	0.0765	0	1	0.445	90	0	0
106	1	152	1	1	1	0.0649	0.0765	0	1	0.489	86	0	0
106	1	153	9	2	2	0.0649	0.0765	1	1	0.408	0	82	0
106	1	154	1	1	2	0.0649	0.0765	0	0	0.471	0	0	0
106	1	155	1	1	2	0.0649	0.0765	1	0	0.726	0	0	82
106	1	156	0	1	3	0.0649	0.0765	0	1	0.578	8	82	82
106	1	157	1	2	2	0.0649	0.0765	0	0	0.709	0	0	0
106	1	158	0	1	1	0.0649	0.0765	1	1	0.582	8	82	0
106	1	159	1	2	3	0.0649	0.0765	0	1	0.525	83	0	0
106	1	160	9	2	2	0.0649	0.0765	0	0	0.540	0	0	0
106	1	161	0	1	2	0.0649	0.0765	1	1	0.459	9	82	0
106	1	162	9	2	2	0.0649	0.0765	1	1	0.491	0	0	82
106	1	163	1	2	2	0.0649	0.0765	1	1	0.541	81	82	0
106	1	164	0	1	3	0.0649	0.0765	1	1	0.490	9	82	0
106	1	165	9	2	3	0.0649	0.0765	0	1	0.466	0	82	82
106	1	166	9	1	1	0.0649	0.0765	1	1	0.582	0	0	82
106	1	167	9	2	3	0.0649	0.0765	1	1	0.521	0	82	0
106	1	168	9	1	3	0.0649	0.0765	0	1	0.464	0	82	82
106	1	169	1	1	3	0.0649	0.0765	1	0	0.588	0	0	82
106	1	170	1	2	3	0.0649	0.0765	0	1	0.476	87	0	0
106	1	171	1	1	1	0.0649	0.0765	1	0	0.486	0	0	82
106	1	172	0	1	1	0.0649	0.0765	1	1	0.646	7	82	0
106	1	173	0	2	2	0.0649	0.0765	1	1	0.516	8	0	82
106	1	174	1	1	1	0.0649	0.0765	1	1	0.506	84	0	82
106	1	175	0	1	1	0.0649	0.0765	0	1	0.495	9	82	82
106	1	176	9	1	1	0.0649	0.0765	0	1	0.466	0	0	0
106	1	177	0	1	1	0.0649	0.0765	0	1	0.433	9	82	82
106	1	178	1	2	1	0.0649	0.0765	1	1	0.517	83	82	0
106	1	179	0	2	2	0.0649	0.0765	1	1	0.487	9	0	82
106	1	180	0	2	2	0.0649	0.0765	1	1	0.445	9	0	82
106	1	181	0	2	2	0.0649	0.0765	1	1	0.537	8	0	82
106	1	182	1	2	3	0.0649	0.0765	1	1	0.395	96	82	0
106	1	183	0	2	2	0.0649	0.0765	0	1	0.475	9	82	82
106	1	184	1	1	1	0.0649	0.0765	0	1	0.564	79	0	0
106	1	185	9	1	3	0.0649	0.0765	1	0	0.436	0	82	0
106	1	186	0	2	3	0.0649	0.0765	0	1	0.441	9	82	82
106	1	187	0	1	1	0.0649	0.0765	1	1	0.526	8	82	0
106	1	188	0	1	1	0.0649	0.0765	0	1	0.395	10	82	82
106	1	189	1	2	3	0.0649	0.0765	0	1	0.473	88	0	0
106	1	190	0	2	3	0.0649	0.0765	0	1	0.539	8	82	82
106	1	191	0	2	3	0.0649	0.0765	0	0	0.409	0	82	82
106	1	192	1	2	3	0.0649	0.0765	1	1	0.455	89	82	0
106	1	193	1	1	1	0.0649	0.0765	1	1	0.538	81	0	82
106	1	194	1	1	1	0.0649	0.0765	0	1	0.544	81	0	0
106	1	195	1	1	3	0.0649	0.0765	1	1	0.444	91	0	82
106	1	196	0	1	3	0.0649	0.0765	1	0	0.514	0	82	0
106	1	197	1	2	3	0.0649	0.0765	0	1	0.628	72	0	0
106	1	198	1	1	1	0.0649	0.0765	1	1	0.500	85	0	82
106	1	199	0	2	3	0.0649	0.0765	0	0	0.539	0	82	82
106	1	200	0	1	3	0.0649	0.0765	1	0	0.510	0	82	0
106	1	201	0	1	1	0.0649	0.0765	0	0	0.485	0	82	82
106	1	202	0	2	3	0.0649	0.0765	0	1	0.458	9	82	82
106	1	203	1	1	2	0.0649	0.0765	0	0	0.442	0	0	0
106	1	204	0	1	3	0.0649	0.0765	0	1	0.581	8	82	82
106	1	205	1	1	1	0.0649	0.0765	1	1	0.584	77	0	82
106	1	206	0	1	2	0.0649	0.0765	1	1	0.463	9	82	0
106	1	207	0	2	3	0.0649	0.0765	0	1	0.487	9	82	82
106	1	208	1	1	3	0.0649	0.0765	1	1	0.523	83	0	82
106	1	209	1	2	1	0.0649	0.0765	0	1	0.439	91	0	0
106	1	210	1	1	1	0.0649	0.0765	1	1	0.838	51	0	82
106	1	211	0	1	2	0.0649	0.0765	0	1	0.397	10	82	82
106	1	212	1	1	3	0.0649	0.0765	1	1	0.407	94	0	82
106	1	213	1	1	1	0.0649	0.0765	1	1	0.508	84	0	82
106	1	214	0	2	2	0.0649	0.0765	1	1	0.706	6	0	82
106	1	215	0	2	2	0.0649	0.0765	1	1	0.577	8	0	82
106	1	216	1	1	1	0.0649	0.0765	0	1	0.427	92	0	0
106	1	217	0	1	1	0.0649	0.0765	1	0	0.448	0	82	0
106	1	218	1	2	2	0.0649	0.0765	1	1	0.431	92	82	0
106	1	219	0	1	1	0.0649	0.0765	0	1	0.481	9	82	82
106	1	220	1	1	2	0.0649	0.0765	1	1	0.513	84	0	82
106	1	221	0	2	2	0.0649	0.0765	0	1	0.452	9	82	82
106	1	222	1	2	2	0.0649	0.0765	0	1	0.445	91	0	0
106	1	223	1	1	1	0.0649	0.0765	0	1	0.412	94	0	0
106	1	224	1	1	1	0.0649	0.0765	1	1	0.476	87	0	82
106	1	225	9	2	2	0.0649	0.0765	1	1	0.547	0	82	0
106	1	226	1	2	3	0.0649	0.0765	0	1	0.372	98	0	0
106	1	227	0	2	2	0.0649	0.0765	0	1	0.413	9	82	82
106	1	228	9	1	1	0.0649	0.0765	0	1	0.406	0	0	0
106	1	229	9	2	2	0.0649	0.0765	0	1	0.405	0	82	82
106	1	230	0	2	2	0.0649	0.0765	1	1	0.421	9	0	82
106	1	231	9	1	3	0.0649	0.0765	0	1	0.438	0	0	0
106	1	232	1	1	1	0.0649	0.0765	1	1	0.417	93	0	82
106	1	233	0	1	3	0.0649	0.0765	0	1	0.375	10	82	82
106	1	234	1	1	3	0.0649	0.0765	0	1	0.407	94	0	0
106	1	235	1	2	2	0.0649	0.0765	1	1	0.417	93	82	0
106	1	236	1	2	3	0.0649	0.0765	0	1	0.457	89	0	0
106	1	237	9	1	3	0.0649	0.0765	0	0	0.478	0	82	82
106	1	238	0	2	1	0.0649	0.0765	1	0	0.463	0	0	82
106	1	239	1	2	2	0.0649	0.0765	1	1	0.432	92	82	0
106	1	240	9	2	2	0.0649	0.0765	0	1	0.422	0	82	82
106	1	241	0	2	2	0.0649	0.0765	0	1	0.438	9	82	82
106	1	242	1	1	1	0.0649	0.0765	1	1	0.383	97	0	82
106	1	243	0	1	2	0.0649	0.0765	0	1	0.423	9	82	82
106	1	244	1	1	1	0.0649	0.0765	1	1	0.393	96	0	82
106	1	245	0	2	2	0.0649	0.0765	0	1	0.339	10	82	82
106	1	246	9	2	2	0.0649	0.0765	1	1	0.422	0	82	0
106	1	247	1	2	2	0.0649	0.0765	0	1	0.339	100	0	0
106	1	248	1	1	1	0.0649	0.0765	0	1	0.460	89	0	0
106	1	249	0	1	3	0.0649	0.0765	1	1	0.472	9	82	0
106	1	250	0	1	1	0.0649	0.0765	0	1	0.440	9	82	82
106	1	251	0	1	1	0.0649	0.0765	0	1	0.389	10	82	82
106	1	252	0	2	3	0.0649	0.0765	1	1	0.434	9	0	82
106	1	253	0	1	1	0.0649	0.0765	0	1	0.442	9	82	82
106	1	254	0	1	1	0.0649	0.0765	1	0	0.399	0	82	0
106	1	255	1	2	3	0.0649	0.0765	1	1	0.406	94	82	0
106	1	256	0	2	2	0.0649	0.0765	0	1	0.385	10	82	82
106	1	257	1	2	2	0.0649	0.0765	0	1	0.401	95	0	0
106	1	258	9	1	1	0.0649	0.0765	1	1	0.521	0	82	0
106	1	259	1	2	3	0.0649	0.0765	0	1	0.427	92	0	0
106	1	260	0	2	3	0.0649	0.0765	1	1	0.451	9	0	82
106	1	261	1	1	3	0.0649	0.0765	0	1	0.354	100	0	0
106	1	262	0	1	3	0.0649	0.0765	1	1	0.509	8	82	0
106	1	263	0	1	2	0.0649	0.0765	0	1	0.405	9	82	82
106	1	264	9	2	3	0.0649	0.0765	1	1	0.444	0	82	0
106	1	265	9	1	3	0.0649	0.0765	1	0	0.383	0	0	82
106	1	266	1	2	3	0.0649	0.0765	1	1	0.447	90	82	0
106	1	267	0	1	3	0.0649	0.0765	1	1	0.352	10	82	0
106	1	268	9	1	1	0.0649	0.0765	1	0	0.456	0	82	0
106	1	269	9	2	3	0.0649	0.0765	0	1	0.448	0	82	82
106	1	270	0	2	3	0.0649	0.0765	0	1	0.409	9	82	82
106	1	271	1	2	2	0.0649	0.0765	0	1	0.441	91	0	0
106	1	272	1	2	2	0.0649	0.0765	0	1	0.606	74	0	0
106	1	273	9	1	3	0.0649	0.0765	1	1	0.455	0	82	0
106	1	274	0	2	3	0.0649	0.0765	0	1	0.377	10	82	82
106	1	275	1	1	3	0.0649	0.0765	0	1	0.518	83	0	0
106	1	276	0	2	2	0.0649	0.0765	0	1	0.706	6	82	82
106	1	277	1	1	3	0.0649	0.0765	1	1	0.611	74	0	82
106	1	278	0	2	2	0.0649	0.0765	1	0	0.558	0	0	82
106	1	279	0	2	3	0.0649	0.0765	0	0	0.519	0	82	82
106	1	280	9	1	3	0.0649	0.0765	0	1	0.388	0	0	0
106	1	281	0	2	3	0.0649	0.0765	0	1	0.325	10	82	82
106	1	282	0	2	3	0.0649	0.0765	1	1	0.377	10	0	82
106	1	283	1	2	2	0.0649	0.0765	1	1	0.457	89	82	0
106	1	284	9	2	3	0.0649	0.0765	0	1	0.385	0	0	0
106	1	285	1	1	3	0.0649	0.0765	0	0	0.557	0	0	0
106	1	286	9	1	1	0.0649	0.0765	1	0	0.329	0	0	82
106	1	287	1	1	1	0.0649	0.0765	0	1	0.336	100	0	0
106	1	288	1	1	2	0.0649	0.0765	1	1	0.438	91	0	82
106	1	289	1	2	3	0.0649	0.0765	0	1	0.473	88	0	0
106	1	290	9	1	1	0.0649	0.0765	0	0	0.492	0	0	0
106	1	291	0	1	2	0.0649	0.0765	0	1	0.477	9	82	82
106	1	292	0	1	3	0.0649	0.0765	1	1	0.494	9	82	0
106	1	293	1	2	2	0.0649	0.0765	1	0	0.496	0	82	0
106	1	294	1	2	2	0.0649	0.0765	0	1	0.522	83	0	0
106	1	295	1	1	3	0.0649	0.0765	1	1	0.685	67	0	82
106	1	296	1	2	3	0.0649	0.0765	1	1	0.592	76	82	0
106	1	297	9	1	3	0.0649	0.0765	0	1	0.421	0	82	82
106	1	298	0	2	3	0.0649	0.0765	0	1	0.597	8	82	82
106	1	299	0	1	3	0.0649	0.0765	1	1	0.444	9	82	0
106	1	300	0	1	3	0.0649	0.0765	0	1	0.379	10	82	82
106	1	301	0	1	3	0.0649	0.0765	0	1	0.415	9	82	82
106	1	302	0	2	3	0.0649	0.0765	1	1	0.371	10	0	82
106	1	303	1	2	3	0.0649	0.0765	1	0	0.439	0	82	0
106	1	304	9	2	1	0.0649	0.0765	0	1	0.450	0	0	0
106	1	305	0	1	3	0.0649	0.0765	0	0	0.637	0	82	82
106	1	306	1	1	3	0.0649	0.0765	0	1	0.498	85	0	0
106	1	307	0	2	2	0.0649	0.0765	0	0	0.444	0	82	82
106	1	308	0	2	3	0.0649	0.0765	0	1	0.414	9	82	82
106	1	309	1	1	3	0.0649	0.0765	1	1	0.496	85	0	82
106	1	310	1	1	1	0.0649	0.0765	1	0	0.518	0	0	82
106	1	311	1	2	2	0.0649	0.0765	1	1	0.546	80	82	0
106	1	312	1	2	2	0.0649	0.0765	1	0	0.468	0	82	0
106	1	313	1	2	1	0.0649	0.0765	0	0	0.678	0	0	0
106	1	314	0	1	3	0.0649	0.0765	0	1	0.498	9	82	82
106	1	315	0	1	1	0.0649	0.0765	1	1	0.615	7	82	0
106	1	316	1	2	2	0.0649	0.0765	0	1	0.562	79	0	0
106	1	317	1	2	3	0.0649	0.0765	0	1	0.472	88	0	0
106	1	318	1	1	3	0.0649	0.0765	0	1	0.572	78	0	0
106	1	319	0	2	2	0.0649	0.0765	0	1	0.522	8	82	82
106	1	320	1	1	3	0.0649	0.0765	0	1	0.628	72	0	0
106	1	321	0	1	2	0.0649	0.0765	1	1	0.601	7	82	0
106	1	322	1	1	3	0.0649	0.0765	0	1	0.371	98	0	0
106	1	323	1	2	2	0.0649	0.0765	1	1	0.410	94	82	0
106	1	324	0	2	3	0.0649	0.0765	1	1	0.435	9	0	82
106	1	325	1	1	1	0.0649	0.0765	0	1	0.373	98	0	0
106	1	326	1	1	1	0.0649	0.0765	1	0	0.409	0	0	82
106	1	327	1	1	3	0.0649	0.0765	1	1	0.969	50	0	82
106	1	328	0	1	1	0.0649	0.0765	1	0	0.366	0	82	0
106	1	329	1	1	1	0.0649	0.0765	1	1	0.619	73	0	82
106	1	330	0	2	3	0.0649	0.0765	1	1	0.432	9	0	82
106	1	331	9	1	1	0.0649	0.0765	0	1	0.517	0	82	82
106	1	332	1	1	3	0.0649	0.0765	1	0	0.541	0	0	82
106	1	333	9	1	1	0.0649	0.0765	1	0	0.501	0	82	0
106	1	334	0	1	3	0.0649	0.0765	0	1	0.589	8	82	82
106	1	335	0	1	1	0.0649	0.0765	1	1	0.524	8	82	0
106	1	336	0	1	1	0.0649	0.0765	0	1	0.366	10	82	82
106	1	337	1	2	2	0.0649	0.0765	0	0	0.539	0	0	0
106	1	338	9	2	2	0.0649	0.0765	0	1	0.532	0	82	82
106	1	339	1	1	3	0.0649	0.0765	0	1	0.600	75	0	0
106	1	340	0	1	1	0.0649	0.0765	0	1	0.480	9	82	82
106	1	341	9	2	3	0.0649	0.0765	1	0	0.737	0	82	0
106	1	342	0	2	3	0.0649	0.0765	1	0	0.500	0	0	82
106	1	343	0	1	3	0.0649	0.0765	1	1	0.469	9	82	0
106	1	344	0	2	3	0.0649	0.0765	0	1	0.422	9	82	82
106	1	345	1	1	3	0.0649	0.0765	0	1	0.410	94	0	0
106	1	346	0	2	2	0.0649	0.0765	0	1	0.356	10	82	82
106	1	347	1	1	2	0.0649	0.0765	1	1	0.477	87	0	82
106	1	348	1	2	2	0.0649	0.0765	0	1	0.430	92	0	0
106	1	349	0	2	2	0.0649	0.0765	0	1	0.327	10	82	82
106	1	350	1	1	1	0.0649	0.0765	0	1	0.391	96	0	0
106	1	351	1	2	3	0.0649	0.0765	1	1	0.410	94	82	0
106	1	352	0	2	2	0.0649	0.0765	0	1	0.423	9	82	82
106	1	353	9	1	2	0.0649	0.0765	1	1	0.479	0	82	0
106	1	354	0	1	3	0.0649	0.0765	0	1	0.388	10	82	82
106	1	355	1	2	3	0.0649	0.0765	0	1	0.389	96	0	0
106	1	356	9	2	3	0.0649	0.0765	0	1	0.378	0	0	0
106	1	357	9	2	2	0.0649	0.0765	0	1	0.389	0	0	0
106	1	358	1	2	3	0.0649	0.0765	1	0	0.569	0	82	0
106	1	359	1	1	3	0.0649	0.0765	0	1	0.506	84	0	0
106	1	360	9	1	2	0.0649	0.0765	0	1	0.371	0	82	82
106	1	361	1	2	2	0.0649	0.0765	0	1	0.422	93	0	0
106	1	362	0	2	2	0.0649	0.0765	0	1	0.466	9	82	82
106	1	363	1	1	1	0.0649	0.0765	0	1	0.457	89	0	0
106	1	364	0	1	3	0.0649	0.0765	0	1	0.439	9	82	82
106	1	365	1	1	1	0.0649	0.0765	1	1	0.475	87	0	82
106	1	366	9	1	1	0.0649	0.0765	0	1	0.464	0	82	82
106	1	367	1	1	2	0.0649	0.0765	0	1	0.465	88	0	0
106	1	368	0	2	3	0.0649	0.0765	1	1	0.376	10	0	82
106	1	369	1	1	3	0.0649	0.0765	1	1	0.600	75	0	82
106	1	370	0	1	1	0.0649	0.0765	0	1	0.413	9	82	82
106	1	371	9	2	2	0.0649	0.0765	0	0	0.358	0	82	82
106	1	372	1	1	3	0.0649	0.0765	0	1	0.422	93	0	0
106	1	373	1	1	3	0.0649	0.0765	0	1	0.494	86	0	0
106	1	374	0	1	3	0.0649	0.0765	0	0	0.698	0	82	82
106	1	375	0	1	1	0.0649	0.0765	1	0	0.609	0	82	0
106	1	376	0	2	3	0.0649	0.0765	1	0	0.575	0	0	82
106	1	377	0	1	1	0.0649	0.0765	0	1	0.530	8	82	82
106	1	378	0	1	1	0.0649	0.0765	0	1	0.362	10	82	82
106	1	379	0	1	2	0.0649	0.0765	0	1	0.627	7	82	82
106	1	380	0	1	3	0.0649	0.0765	1	1	0.431	9	82	0
106	1	381	0	1	1	0.0649	0.0765	0	1	0.457	9	82	82
106	1	382	0	2	2	0.0649	0.0765	0	1	0.445	9	82	82
106	1	383	1	1	2	0.0649	0.0765	0	1	0.495	85	0	0
106	1	384	9	2	2	0.0649	0.0765	0	0	0.461	0	0	0
106	1	385	0	2	2	0.0649	0.0765	0	1	0.468	9	82	82
106	1	386	0	2	3	0.0649	0.0765	1	1	0.545	8	0	82
106	1	387	1	2	2	0.0649	0.0765	0	0	0.378	0	0	0
106	1	388	1	2	3	0.0649	0.0765	0	1	0.344	100	0	0
106	1	389	1	2	2	0.0649	0.0765	0	1	0.436	91	0	0
106	1	390	9	1	3	0.0649	0.0765	0	1	0.529	0	0	0
106	1	391	0	2	3	0.0649	0.0765	0	1	0.393	10	82	82
106	1	392	1	2	2	0.0649	0.0765	1	1	0.442	91	82	0
106	1	393	1	2	3	0.0649	0.0765	0	1	0.372	98	0	0
106	1	394	0	2	2	0.0649	0.0765	0	1	0.402	9	82	82
106	1	395	0	2	3	0.0649	0.0765	1	0	0.523	0	0	82
106	1	396	0	2	3	0.0649	0.0765	1	1	0.423	9	0	82
106	1	397	0	1	3	0.0649	0.0765	1	1	0.394	10	82	0
106	1	398	9	2	3	0.0649	0.0765	1	1	0.517	0	0	82
106	1	399	1	2	2	0.0649	0.0765	0	0	0.472	0	0	0
106	1	400	0	1	1	0.0649	0.0765	0	1	0.491	9	82	82
106	1	401	0	2	2	0.0649	0.0765	0	1	0.384	10	82	82
106	1	402	1	2	2	0.0649	0.0765	0	0	0.325	0	0	0
106	1	403	1	2	3	0.0649	0.0765	0	1	0.404	95	0	0
106	1	404	1	1	3	0.0649	0.0765	1	1	0.585	76	0	82
106	1	405	1	1	3	0.0649	0.0765	0	1	0.323	100	0	0
106	1	406	1	2	2	0.0649	0.0765	1	1	0.325	100	82	0
106	1	407	0	1	1	0.0649	0.0765	0	1	0.385	10	82	82
106	1	408	9	2	2	0.0649	0.0765	1	1	0.433	0	82	0
106	1	409	1	2	2	0.0649	0.0765	1	1	0.423	93	82	0
106	1	410	1	1	3	0.0649	0.0765	0	1	0.455	90	0	0
106	1	411	0	1	3	0.0649	0.0765	1	1	0.471	9	82	0
106	1	412	0	1	3	0.0649	0.0765	0	1	0.434	9	82	82
106	1	413	0	1	3	0.0649	0.0765	0	1	0.376	10	82	82
106	1	414	9	2	2	0.0649	0.0765	0	1	0.601	0	0	0
106	1	415	0	1	3	0.0649	0.0765	0	1	0.421	9	82	82
106	1	416	0	2	2	0.0649	0.0765	0	1	0.402	9	82	82
106	1	417	9	2	2	0.0649	0.0765	0	1	0.415	0	82	82
106	1	418	0	1	1	0.0649	0.0765	0	1	0.417	9	82	82
106	1	419	9	2	3	0.0649	0.0765	0	0	0.451	0	82	82
106	1	420	1	1	1	0.0649	0.0765	0	1	0.464	89	0	0
106	1	421	9	1	3	0.0649	0.0765	1	1	0.555	0	0	82
106	1	422	1	1	3	0.0649	0.0765	1	1	0.579	77	0	82
106	1	423	9	1	3	0.0649	0.0765	0	1	0.773	0	0	0
106	1	424	0	1	1	0.0649	0.0765	0	1	0.379	10	82	82
106	1	425	9	2	3	0.0649	0.0765	0	1	0.427	0	82	82
106	1	426	1	2	2	0.0649	0.0765	0	1	0.470	88	0	0
106	1	427	0	2	2	0.0649	0.0765	1	1	0.669	7	0	82
106	1	428	0	1	3	0.0649	0.0765	1	1	0.433	9	82	0
106	1	429	0	2	3	0.0649	0.0765	1	0	0.372	0	0	82
106	1	430	1	2	3	0.0649	0.0765	1	1	0.488	86	82	0
106	1	431	0	1	1	0.0649	0.0765	0	1	0.508	8	82	82
106	1	432	1	2	3	0.0649	0.0765	1	0	0.434	0	82	0
106	1	433	0	2	2	0.0649	0.0765	0	1	0.435	9	82	82
106	1	434	0	2	2	0.0649	0.0765	0	1	0.477	9	82	82
106	1	435	0	1	1	0.0649	0.0765	1	1	0.509	8	82	0
106	1	436	1	2	3	0.0649	0.0765	0	1	0.489	86	0	0
106	1	437	1	1	3	0.0649	0.0765	0	1	0.591	76	0	0
106	1	438	0	2	3	0.0649	0.0765	0	1	0.437	9	82	82
106	1	439	0	2	3	0.0649	0.0765	1	1	0.479	9	0	82
106	1	440	1	2	3	0.0649	0.0765	0	1	0.344	100	0	0
106	1	441	1	2	1	0.0649	0.0765	0	1	0.434	92	0	0
106	1	442	1	1	2	0.0649	0.0765	1	1	0.499	85	0	82
106	1	443	0	1	3	0.0649	0.0765	1	0	0.398	0	82	0
106	1	444	1	2	2	0.0649	0.0765	1	1	0.425	93	82	0
106	1	445	1	1	1	0.0649	0.0765	0	1	0.437	91	0	0
106	1	446	0	1	3	0.0649	0.0765	1	1	0.486	9	82	0
106	1	447	0	1	3	0.0649	0.0765	1	1	0.422	9	82	0
106	1	448	1	2	3	0.0649	0.0765	1	1	0.419	93	82	0
106	1	449	9	1	1	0.0649	0.0765	1	0	0.329	0	0	82
106	1	450	0	2	2	0.0649	0.0765	1	1	0.392	10	0	82
106	1	451	0	2	2	0.0649	0.0765	1	1	0.351	10	0	82
106	1	452	9	1	3	0.0649	0.0765	0	0	0.347	0	82	82
106	1	453	0	2	1	0.0649	0.0765	1	1	0.451	9	0	82
106	1	454	0	1	3	0.0649	0.0765	0	1	0.444	9	82	82
106	1	455	9	1	3	0.0649	0.0765	1	0	0.485	0	0	82
106	1	456	0	2	1	0.0649	0.0765	1	1	0.342	10	0	82
106	1	457	0	2	3	0.0649	0.0765	1	1	0.468	9	0	82
106	1	458	1	1	1	0.0649	0.0765	0	1	0.345	100	0	0
106	1	459	1	2	3	0.0649	0.0765	0	1	0.437	91	0	0
106	1	460	0	1	1	0.0649	0.0765	1	1	0.479	9	82	0
106	1	461	9	2	1	0.0649	0.0765	0	1	0.349	0	82	82
106	1	462	0	1	3	0.0649	0.0765	0	1	0.424	9	82	82
106	1	463	0	2	3	0.0649	0.0765	0	1	0.364	10	82	82
106	1	464	1	1	3	0.0649	0.0765	0	1	0.415	94	0	0
106	1	465	9	1	1	0.0649	0.0765	0	1	0.529	0	0	0
106	1	466	1	2	3	0.0649	0.0765	1	1	0.450	90	82	0
106	1	467	9	1	2	0.0649	0.0765	1	1	0.385	0	82	0
106	1	468	0	1	2	0.0649	0.0765	1	1	0.421	9	82	0
106	1	469	0	2	1	0.0649	0.0765	0	1	0.365	10	82	82
106	1	470	0	2	3	0.0649	0.0765	1	1	0.360	10	0	82
106	1	471	0	1	1	0.0649	0.0765	1	0	0.394	0	82	0
106	1	472	0	2	2	0.0649	0.0765	1	1	0.398	10	0	82
106	1	473	9	1	3	0.0649	0.0765	0	0	0.374	0	82	82
106	1	474	9	1	1	0.0649	0.0765	0	1	0.442	0	0	0
106	1	475	1	1	2	0.0649	0.0765	0	0	0.491	0	0	0
106	1	476	1	2	3	0.0649	0.0765	1	1	0.493	86	82	0
106	1	477	0	1	3	0.0649	0.0765	0	1	0.400	9	82	82
106	1	478	9	2	2	0.0649	0.0765	1	1	0.489	0	0	82
106	1	479	9	2	3	0.0649	0.0765	1	1	0.481	0	82	0
106	1	480	1	1	3	0.0649	0.0765	0	1	0.399	95	0	0
106	1	481	0	1	3	0.0649	0.0765	0	1	0.508	8	82	82
106	1	482	1	1	3	0.0649	0.0765	0	1	0.402	95	0	0
106	1	483	1	2	2	0.0649	0.0765	0	1	0.427	92	0	0
106	1	484	0	1	3	0.0649	0.0765	1	1	0.403	9	82	0
106	1	485	0	1	1	0.0649	0.0765	0	1	0.434	9	82	82
106	1	486	9	1	3	0.0649	0.0765	1	1	0.494	0	0	82
106	1	487	0	1	3	0.0649	0.0765	0	1	0.572	8	82	82
106	1	488	9	1	3	0.0649	0.0765	1	1	0.401	0	82	0
106	1	489	9	1	1	0.0649	0.0765	0	1	0.515	0	82	82
106	1	490	0	2	3	0.0649	0.0765	0	1	0.459	9	82	82
106	1	491	0	2	3	0.0649	0.0765	1	0	0.522	0	0	82
106	1	492	1	1	1	0.0649	0.0765	1	1	0.456	89	0	82
106	1	493	1	1	3	0.0649	0.0765	0	1	0.393	96	0	0
106	1	494	0	2	2	0.0649	0.0765	1	0	0.451	0	0	82
106	1	495	1	1	1	0.0649	0.0765	0	0	0.601	0	0	0
106	1	496	9	2	3	0.0649	0.0765	0	1	0.384	0	0	0
106	1	497	9	1	1	0.0649	0.0765	1	0	0.543	0	82	0
106	1	498	0	1	1	0.0649	0.0765	1	1	0.494	9	82	0
106	1	499	9	2	3	0.0649	0.0765	1	1	0.406	0	82	0
106	1	500	1	1	3	0.0649	0.0765	1	1	0.567	78	0	82
106	1	501	1	2	3	0.0649	0.0765	0	1	0.317	100	0	0
106	1	502	0	1	2	0.0649	0.0765	0	0	0.373	0	82	82
106	1	503	9	2	3	0.0649	0.0765	1	0	0.373	0	0	82
106	1	504	1	2	2	0.0649	0.0765	0	1	0.463	89	0	0
106	1	505	9	1	2	0.0649	0.0765	0	0	0.385	0	0	0
106	1	506	1	1	1	0.0649	0.0765	0	1	0.493	86	0	0
106	1	507	0	1	3	0.0649	0.0765	0	1	0.455	9	82	82
106	1	508	1	2	3	0.0649	0.0765	0	0	0.514	0	0	0
106	1	509	0	2	2	0.0649	0.0765	1	1	0.638	7	0	82
106	1	510	0	1	1	0.0649	0.0765	1	0	0.430	0	82	0
106	1	511	1	1	1	0.0649	0.0765	1	1	0.515	84	0	82
106	1	512	0	1	1	0.0649	0.0765	1	1	0.546	8	82	0
106	1	513	9	1	2	0.0649	0.0765	1	1	0.471	0	0	82
106	1	514	9	2	3	0.0649	0.0765	0	1	0.346	0	0	0
106	1	515	0	2	2	0.0649	0.0765	1	1	0.469	9	0	82
106	1	516	1	2	2	0.0649	0.0765	1	1	0.488	86	82	0
106	1	517	1	1	2	0.0649	0.0765	0	0	0.476	0	0	0
106	1	518	0	1	3	0.0649	0.0765	1	0	0.396	0	82	0
106	1	519	1	2	2	0.0649	0.0765	1	1	0.526	82	82	0
106	1	520	1	1	1	0.0649	0.0765	0	1	0.646	70	0	0
106	1	521	0	1	1	0.0649	0.0765	1	0	0.417	0	82	0
106	1	522	1	2	2	0.0649	0.0765	0	1	0.608	74	0	0
106	1	523	9	2	2	0.0649	0.0765	0	1	0.479	0	0	0
106	1	524	0	2	3	0.0649	0.0765	0	1	0.463	9	82	82
106	1	525	9	2	2	0.0649	0.0765	1	1	0.474	0	0	82
106	1	526	1	1	1	0.0649	0.0765	1	0	0.389	0	0	82
106	1	527	0	2	1	0.0649	0.0765	0	1	0.522	8	82	82
106	1	528	1	2	2	0.0649	0.0765	0	1	0.443	91	0	0
106	1	529	1	2	2	0.0649	0.0765	1	1	0.430	92	82	0
106	1	530	9	2	2	0.0649	0.0765	1	1	0.440	0	82	0
106	1	531	0	2	3	0.0649	0.0765	0	1	0.440	9	82	82
106	1	532	0	1	1	0.0649	0.0765	1	0	0.441	0	82	0
106	1	533	1	2	1	0.0649	0.0765	1	1	0.481	87	82	0
106	1	534	1	2	3	0.0649	0.0765	1	1	0.528	82	82	0
106	1	535	1	2	2	0.0649	0.0765	1	1	0.580	77	82	0
106	1	536	1	1	1	0.0649	0.0765	1	0	0.469	0	0	82
106	1	537	1	2	2	0.0649	0.0765	0	1	0.871	50	0	0
106	1	538	1	2	3	0.0649	0.0765	1	1	0.485	86	82	0
106	1	539	1	2	3	0.0649	0.0765	1	0	0.462	0	82	0
106	1	540	1	2	3	0.0649	0.0765	1	1	0.470	88	82	0
106	1	541	1	1	1	0.0649	0.0765	0	0	0.506	0	0	0
106	1	542	1	1	3	0.0649	0.0765	1	0	0.428	0	0	82
106	1	543	1	1	3	0.0649	0.0765	1	0	0.369	0	0	82
106	1	544	1	2	3	0.0649	0.0765	0	1	0.485	87	0	0
106	1	545	1	1	1	0.0649	0.0765	1	0	0.542	0	0	82
106	1	546	9	1	3	0.0649	0.0765	1	1	0.436	0	0	82
106	1	547	9	2	2	0.0649	0.0765	1	1	0.589	0	82	0
106	1	548	9	2	3	0.0649	0.0765	1	0	0.575	0	0	82
106	1	549	0	1	2	0.0649	0.0765	0	1	0.435	9	82	82
106	1	550	0	2	1	0.0649	0.0765	0	1	0.414	9	82	82
106	1	551	9	2	1	0.0649	0.0765	1	1	0.497	0	0	82
106	1	552	1	2	1	0.0649	0.0765	1	1	0.636	71	82	0
106	1	553	0	2	2	0.0649	0.0765	0	1	0.536	8	82	82
106	1	554	9	2	3	0.0649	0.0765	0	1	0.586	0	0	0
106	1	555	1	1	1	0.0649	0.0765	1	0	0.476	0	0	82
106	1	556	0	2	3	0.0649	0.0765	0	1	0.953	5	82	82
106	1	557	0	1	3	0.0649	0.0765	1	1	0.552	8	82	0
106	1	558	0	2	2	0.0649	0.0765	1	1	0.826	5	0	82
106	1	559	0	1	1	0.0649	0.0765	0	1	0.541	8	82	82
106	1	560	0	1	3	0.0649	0.0765	0	1	0.566	8	82	82
106	1	561	0	2	3	0.0649	0.0765	1	1	0.537	8	0	82
106	1	562	0	2	2	0.0649	0.0765	1	1	0.433	9	0	82
106	1	563	9	2	1	0.0649	0.0765	0	1	0.399	0	0	0
106	1	564	0	2	3	0.0649	0.0765	0	1	0.490	9	82	82
106	1	565	9	1	3	0.0649	0.0765	0	1	0.537	0	82	82
106	1	566	0	2	2	0.0649	0.0765	0	1	0.552	8	82	82
106	1	567	0	2	3	0.0649	0.0765	1	1	0.443	9	0	82
106	1	568	1	1	3	0.0649	0.0765	0	1	0.458	89	0	0
106	1	569	1	2	1	0.0649	0.0765	0	1	0.377	97	0	0
106	1	570	9	2	2	0.0649	0.0765	1	1	0.494	0	82	0
106	1	571	0	2	2	0.0649	0.0765	1	1	0.505	8	0	82
106	1	572	1	2	3	0.0649	0.0765	0	1	0.476	87	0	0
106	1	573	1	2	3	0.0649	0.0765	1	1	0.341	100	82	0
106	1	574	0	2	2	0.0649	0.0765	1	1	0.426	9	0	82
106	1	575	1	2	1	0.0649	0.0765	0	1	0.471	88	0	0
106	1	576	9	1	3	0.0649	0.0765	1	1	0.436	0	82	0
106	1	577	9	2	3	0.0649	0.0765	1	1	0.566	0	82	0
106	1	578	0	1	1	0.0649	0.0765	1	1	0.720	6	82	0
106	1	579	0	2	2	0.0649	0.0765	0	1	0.431	9	82	82
106	1	580	1	1	1	0.0649	0.0765	0	1	0.434	92	0	0
106	1	581	0	1	3	0.0649	0.0765	0	1	0.591	8	82	82
106	1	582	9	2	3	0.0649	0.0765	0	1	0.465	0	82	82
106	1	583	1	2	1	0.0649	0.0765	0	1	0.504	85	0	0
106	1	584	1	1	3	0.0649	0.0765	1	1	0.512	84	0	82
106	1	585	1	1	3	0.0649	0.0765	1	1	0.413	94	0	82
106	1	586	1	2	1	0.0649	0.0765	1	1	0.396	95	82	0
106	1	587	1	2	2	0.0649	0.0765	0	1	0.455	90	0	0
106	1	588	1	2	3	0.0649	0.0765	1	1	0.391	96	82	0
106	1	589	0	1	1	0.0649	0.0765	1	1	0.451	9	82	0
106	1	590	1	2	3	0.0649	0.0765	1	1	0.436	91	82	0
106	1	591	1	1	1	0.0649	0.0765	1	1	0.433	92	0	82
106	1	592	0	2	3	0.0649	0.0765	0	1	0.415	9	82	82
106	1	593	9	2	3	0.0649	0.0765	0	0	0.433	0	0	0
106	1	594	1	2	2	0.0649	0.0765	0	1	0.330	100	0	0
106	1	595	1	1	2	0.0649	0.0765	1	0	0.385	0	0	82
106	1	596	0	1	1	0.0649	0.0765	1	0	0.544	0	82	0
106	1	597	1	1	3	0.0649	0.0765	0	1	0.422	93	0	0
106	1	598	0	2	3	0.0649	0.0765	0	1	0.409	9	82	82
106	1	599	9	1	1	0.0649	0.0765	1	1	0.479	0	82	0
106	1	600	0	1	1	0.0649	0.0765	0	1	0.388	10	82	82
106	1	601	1	2	2	0.0649	0.0765	0	1	0.396	95	0	0
106	1	602	1	2	3	0.0649	0.0765	0	1	0.430	92	0	0
106	1	603	1	1	1	0.0649	0.0765	0	1	0.440	91	0	0
106	1	604	1	1	2	0.0649	0.0765	1	1	0.402	95	0	82
106	1	605	0	1	3	0.0649	0.0765	0	0	0.438	0	82	82
106	1	606	1	2	3	0.0649	0.0765	0	1	0.404	95	0	0
106	1	607	1	1	1	0.0649	0.0765	0	0	0.501	0	0	0
106	1	608	1	2	1	0.0649	0.0765	1	1	0.509	84	82	0
106	1	609	1	1	1	0.0649	0.0765	0	1	0.383	97	0	0
106	1	610	9	2	2	0.0649	0.0765	1	1	0.397	0	0	82
106	1	611	0	1	3	0.0649	0.0765	0	1	0.686	7	82	82
106	1	612	1	1	3	0.0649	0.0765	1	1	0.426	92	0	82
106	1	613	9	1	3	0.0649	0.0765	0	1	0.379	0	0	0
106	1	614	0	2	3	0.0649	0.0765	0	1	0.663	7	82	82
106	1	615	1	1	1	0.0649	0.0765	1	1	0.443	91	0	82
106	1	616	0	1	1	0.0649	0.0765	0	1	0.338	10	82	82
106	1	617	1	1	3	0.0649	0.0765	0	1	0.433	92	0	0
106	1	618	1	1	1	0.0649	0.0765	1	0	0.387	0	0	82
106	1	619	1	1	2	0.0649	0.0765	1	1	0.387	96	0	82
106	1	620	9	2	3	0.0649	0.0765	0	0	0.344	0	82	82
106	1	621	1	1	1	0.0649	0.0765	1	0	0.435	0	0	82
106	1	622	0	2	3	0.0649	0.0765	1	1	0.374	10	0	82
106	1	623	1	2	3	0.0649	0.0765	0	1	0.317	100	0	0
106	1	624	0	1	3	0.0649	0.0765	1	1	0.408	9	82	0
106	1	625	1	1	3	0.0649	0.0765	1	0	0.381	0	0	82
106	1	626	0	2	3	0.0649	0.0765	0	1	0.450	9	82	82
106	1	627	0	1	2	0.0649	0.0765	0	1	0.465	9	82	82
106	1	628	0	2	2	0.0649	0.0765	0	0	0.437	0	82	82
106	1	629	0	1	3	0.0649	0.0765	1	0	0.439	0	82	0
106	1	630	0	2	2	0.0649	0.0765	1	1	0.379	10	0	82
106	1	631	0	2	1	0.0649	0.0765	1	1	0.406	9	0	82
106	1	632	1	2	3	0.0649	0.0765	0	1	0.352	100	0	0
106	1	633	0	2	3	0.0649	0.0765	0	1	0.506	8	82	82
106	1	634	9	1	3	0.0649	0.0765	1	1	0.435	0	82	0
106	1	635	1	1	1	0.0649	0.0765	1	0	0.401	0	0	82
106	1	636	1	1	3	0.0649	0.0765	0	1	0.440	91	0	0
106	1	637	0	2	2	0.0649	0.0765	1	1	0.434	9	0	82
106	1	638	1	1	3	0.0649	0.0765	1	1	0.501	85	0	82
106	1	639	0	1	1	0.0649	0.0765	1	0	0.526	0	82	0
106	1	640	0	1	2	0.0649	0.0765	1	1	0.493	9	82	0
106	1	641	1	2	2	0.0649	0.0765	1	0	0.525	0	82	0
106	1	642	0	2	2	0.0649	0.0765	0	1	0.483	9	82	82
106	1	643	0	2	3	0.0649	0.0765	1	1	0.392	10	0	82
106	1	644	9	1	1	0.0649	0.0765	0	0	0.504	0	82	82
106	1	645	0	1	3	0.0649	0.0765	1	1	0.481	9	82	0
106	1	646	1	1	1	0.0649	0.0765	0	1	0.437	91	0	0
106	1	647	0	1	3	0.0649	0.0765	0	1	0.361	10	82	82
106	1	648	1	1	3	0.0649	0.0765	0	1	0.493	86	0	0
106	1	649	1	2	2	0.0649	0.0765	1	1	0.500	85	82	0
106	1	650	1	2	3	0.0649	0.0765	1	1	0.575	77	82	0
106	1	651	0	1	1	0.0649	0.0765	1	0	0.419	0	82	0
106	1	652	9	1	2	0.0649	0.0765	0	1	0.474	0	82	82
106	1	653	9	2	2	0.0649	0.0765	1	1	0.361	0	0	82
106	1	654	1	1	1	0.0649	0.0765	1	1	0.703	65	0	82
106	1	655	1	1	3	0.0649	0.0765	1	1	0.394	96	0	82
106	1	656	0	2	3	0.0649	0.0765	0	1	0.536	8	82	82
106	1	657	0	1	2	0.0649	0.0765	1	1	0.350	10	82	0
106	1	658	0	2	2	0.0649	0.0765	1	1	0.485	9	0	82
106	1	659	9	1	1	0.0649	0.0765	0	1	0.369	0	82	82
106	1	660	1	1	3	0.0649	0.0765	1	1	0.390	96	0	82
106	1	661	9	1	1	0.0649	0.0765	1	1	0.521	0	0	82
106	1	662	0	2	2	0.0649	0.0765	1	1	0.466	9	0	82
106	1	663	1	1	1	0.0649	0.0765	0	1	0.359	99	0	0
106	1	664	9	2	2	0.0649	0.0765	0	0	0.404	0	0	0
106	1	665	9	1	3	0.0649	0.0765	1	1	0.497	0	82	0
106	1	666	1	2	3	0.0649	0.0765	1	0	0.478	0	82	0
106	1	667	1	2	3	0.0649	0.0765	0	1	0.453	90	0	0
106	1	668	1	1	1	0.0649	0.0765	0	0	0.474	0	0	0
106	1	669	0	1	1	0.0649	0.0765	1	1	0.552	8	82	0
106	1	670	0	2	3	0.0649	0.0765	0	1	0.376	10	82	82
106	1	671	1	2	2	0.0649	0.0765	0	0	0.646	0	0	0
106	1	672	9	1	1	0.0649	0.0765	1	1	0.623	0	0	82
106	1	673	0	2	3	0.0649	0.0765	1	1	0.547	8	0	82
106	1	674	1	2	2	0.0649	0.0765	1	1	0.529	82	82	0
106	1	675	9	2	2	0.0649	0.0765	0	1	0.557	0	82	82
106	1	676	0	2	1	0.0649	0.0765	0	1	0.394	10	82	82
106	1	677	1	2	2	0.0649	0.0765	1	1	0.436	91	82	0
106	1	678	0	2	3	0.0649	0.0765	0	1	0.371	10	82	82
106	1	679	1	2	3	0.0649	0.0765	1	1	0.484	87	82	0
106	1	680	0	2	3	0.0649	0.0765	1	1	0.478	9	0	82
106	1	681	0	2	2	0.0649	0.0765	0	1	1.316	5	82	82
106	1	682	1	1	1	0.0649	0.0765	1	1	0.480	87	0	82
106	1	683	1	2	2	0.0649	0.0765	0	1	0.411	94	0	0
106	1	684	1	1	1	0.0649	0.0765	0	1	0.445	91	0	0
106	1	685	9	1	1	0.0649	0.0765	0	1	0.377	0	0	0
106	1	686	1	2	2	0.0649	0.0765	1	1	0.514	84	82	0
106	1	687	9	1	1	0.0649	0.0765	0	1	0.378	0	0	0
106	1	688	0	1	3	0.0649	0.0765	1	1	0.371	10	82	0
106	1	689	1	1	3	0.0649	0.0765	1	0	0.377	0	0	82
106	1	690	0	1	3	0.0649	0.0765	1	0	0.460	0	82	0
106	1	691	0	2	2	0.0649	0.0765	0	0	0.391	0	82	82
106	1	692	1	1	3	0.0649	0.0765	1	0	0.442	0	0	82
106	1	693	0	2	2	0.0649	0.0765	1	1	0.388	10	0	82
106	1	694	9	1	3	0.0649	0.0765	0	0	0.468	0	0	0
106	1	695	0	2	2	0.0649	0.0765	0	1	0.463	9	82	82
106	1	696	0	1	1	0.0649	0.0765	0	1	0.438	9	82	82
106	1	697	1	2	3	0.0649	0.0765	1	1	0.425	93	82	0
106	1	698	0	1	2	0.0649	0.0765	1	0	0.394	0	82	0
106	1	699	1	1	3	0.0649	0.0765	0	1	0.541	81	0	0
106	1	700	9	1	1	0.0649	0.0765	1	0	0.403	0	82	0
106	1	701	9	2	2	0.0649	0.0765	0	1	0.365	0	82	82
106	1	702	9	1	1	0.0649	0.0765	1	0	0.391	0	0	82
106	1	703	9	1	3	0.0649	0.0765	0	0	0.424	0	82	82
106	1	704	1	2	2	0.0649	0.0765	1	1	0.776	57	82	0
106	1	705	1	2	2	0.0649	0.0765	1	1	0.465	89	82	0
106	1	706	1	1	3	0.0649	0.0765	0	1	0.443	91	0	0
106	1	707	1	2	3	0.0649	0.0765	0	1	0.444	91	0	0
106	1	708	1	1	3	0.0649	0.0765	1	1	0.429	92	0	82
106	1	709	0	1	1	0.0649	0.0765	1	0	0.486	0	82	0
106	1	710	1	1	1	0.0649	0.0765	1	0	0.419	0	0	82
106	1	711	9	2	1	0.0649	0.0765	1	1	0.799	0	82	0
106	1	712	1	1	1	0.0649	0.0765	1	1	0.799	55	0	82
106	1	713	0	2	1	0.0649	0.0765	1	1	0.553	8	0	82
106	1	714	9	1	1	0.0649	0.0765	1	1	0.456	0	82	0
106	1	715	1	2	2	0.0649	0.0765	1	1	0.493	86	82	0
106	1	716	0	1	1	0.0649	0.0765	0	0	0.434	0	82	82
106	1	717	9	2	3	0.0649	0.0765	1	1	0.527	0	0	82
106	1	718	0	1	3	0.0649	0.0765	1	1	0.498	9	82	0
106	1	719	9	2	3	0.0649	0.0765	1	1	0.440	0	82	0
106	1	720	0	1	1	0.0649	0.0765	0	1	0.531	8	82	82
