sub	sess	t	rew	loc	cue	co1	co2	or	resp	rt	rew_tot	left_col	right_col
45	1	1	1	2	2	0.5073	0.4233	1	1	0.934	50	0	82
45	1	2	1	1	2	0.5073	0.4233	0	1	0.866	50	82	82
45	1	3	0	1	3	0.5073	0.4233	0	1	0.714	6	0	0
45	1	4	1	2	2	0.5073	0.4233	1	1	0.624	73	0	82
45	1	5	0	2	2	0.5073	0.4233	1	0	0.975	0	82	0
45	1	6	0	2	3	0.5073	0.4233	0	1	0.911	5	0	0
45	1	7	9	2	1	0.5073	0.4233	1	1	0.359	0	0	82
45	1	8	1	2	3	0.5073	0.4233	1	1	0.674	68	0	82
45	1	9	1	1	1	0.5073	0.4233	1	1	1.207	50	82	0
45	1	10	9	2	3	0.5073	0.4233	0	1	0.774	0	0	0
45	1	11	1	2	3	0.5073	0.4233	1	1	1.117	50	0	82
45	1	12	0	1	3	0.5073	0.4233	0	1	0.854	5	0	0
45	1	13	1	2	3	0.5073	0.4233	1	1	0.608	74	0	82
45	1	14	9	2	3	0.5073	0.4233	1	1	0.600	0	82	0
45	1	15	0	2	3	0.5073	0.4233	1	1	0.377	10	82	0
45	1	16	9	2	3	0.5073	0.4233	0	1	0.776	0	0	0
45	1	17	0	1	3	0.5073	0.4233	0	1	1.495	5	0	0
45	1	18	0	2	3	0.5073	0.4233	0	1	0.716	6	0	0
45	1	19	1	2	3	0.5073	0.4233	0	1	0.773	58	82	82
45	1	20	1	2	1	0.5073	0.4233	1	1	0.570	78	0	82
45	1	21	1	1	3	0.5073	0.4233	0	1	0.974	50	82	82
45	1	22	1	2	3	0.5073	0.4233	1	1	0.436	91	0	82
45	1	23	1	2	3	0.5073	0.4233	1	1	0.561	79	0	82
45	1	24	1	2	2	0.5073	0.4233	0	1	0.509	84	82	82
45	1	25	0	1	3	0.5073	0.4233	0	0	0.679	0	0	0
45	1	26	1	1	1	0.5073	0.4233	1	1	0.874	50	82	0
45	1	27	1	2	3	0.5073	0.4233	0	1	0.625	72	82	82
45	1	28	9	1	2	0.5073	0.4233	0	0	0.856	0	82	82
45	1	29	0	1	3	0.5073	0.4233	1	1	0.743	6	0	82
45	1	30	0	2	2	0.5073	0.4233	0	1	0.633	7	0	0
45	1	31	9	2	3	0.5073	0.4233	0	1	0.413	0	82	82
45	1	32	0	2	3	0.5073	0.4233	0	1	0.540	8	0	0
45	1	33	1	2	3	0.5073	0.4233	0	1	0.659	69	82	82
45	1	34	0	1	1	0.5073	0.4233	0	1	0.696	7	0	0
45	1	35	0	1	3	0.5073	0.4233	0	0	-0.016	0	0	0
45	1	36	9	1	3	0.5073	0.4233	1	0	0.444	0	82	0
45	1	37	0	1	3	0.5073	0.4233	1	1	0.570	8	0	82
45	1	38	1	2	3	0.5073	0.4233	0	0	0.554	0	82	82
45	1	39	9	2	3	0.5073	0.4233	1	0	0.814	0	82	0
45	1	40	9	2	3	0.5073	0.4233	1	1	0.634	0	0	82
45	1	41	1	2	2	0.5073	0.4233	0	1	0.531	82	82	82
45	1	42	1	1	3	0.5073	0.4233	0	0	0.596	0	82	82
45	1	43	0	2	2	0.5073	0.4233	1	0	0.745	0	82	0
45	1	44	0	2	1	0.5073	0.4233	1	1	0.565	8	82	0
45	1	45	0	2	3	0.5073	0.4233	1	1	0.553	8	82	0
45	1	46	1	2	2	0.5073	0.4233	0	1	0.850	50	82	82
45	1	47	0	1	2	0.5073	0.4233	0	1	0.972	5	0	0
45	1	48	1	1	3	0.5073	0.4233	0	1	0.956	50	82	82
45	1	49	0	1	3	0.5073	0.4233	0	1	0.682	7	0	0
45	1	50	0	1	3	0.5073	0.4233	0	1	0.669	7	0	0
45	1	51	1	2	1	0.5073	0.4233	0	1	0.800	55	82	82
45	1	52	0	2	2	0.5073	0.4233	1	1	0.761	6	82	0
45	1	53	0	2	2	0.5073	0.4233	0	1	0.555	8	0	0
45	1	54	0	2	2	0.5073	0.4233	1	0	0.696	0	82	0
45	1	55	0	1	3	0.5073	0.4233	0	1	0.620	7	0	0
45	1	56	0	1	3	0.5073	0.4233	1	1	1.446	5	0	82
45	1	57	1	2	3	0.5073	0.4233	1	1	0.730	62	0	82
45	1	58	1	2	1	0.5073	0.4233	0	1	1.068	50	82	82
45	1	59	1	2	2	0.5073	0.4233	1	1	0.669	68	0	82
45	1	60	0	2	3	0.5073	0.4233	1	1	0.602	7	82	0
45	1	61	0	2	3	0.5073	0.4233	1	1	0.796	6	82	0
45	1	62	0	2	1	0.5073	0.4233	0	1	0.537	8	0	0
45	1	63	0	1	1	0.5073	0.4233	0	1	0.653	7	0	0
45	1	64	1	2	2	0.5073	0.4233	0	1	0.576	77	82	82
45	1	65	0	2	2	0.5073	0.4233	1	0	0.646	0	82	0
45	1	66	1	1	1	0.5073	0.4233	1	0	0.727	0	82	0
45	1	67	0	2	3	0.5073	0.4233	0	1	0.610	7	0	0
45	1	68	1	1	3	0.5073	0.4233	0	0	0.848	0	82	82
45	1	69	1	2	3	0.5073	0.4233	0	1	0.574	78	82	82
45	1	70	0	1	1	0.5073	0.4233	0	1	0.695	7	0	0
45	1	71	0	1	2	0.5073	0.4233	1	1	0.597	8	0	82
45	1	72	0	2	3	0.5073	0.4233	0	1	0.631	7	0	0
45	1	73	1	2	3	0.5073	0.4233	1	1	0.558	79	0	82
45	1	74	0	2	2	0.5073	0.4233	0	1	0.687	7	0	0
45	1	75	1	1	1	0.5073	0.4233	1	1	0.837	51	82	0
45	1	76	1	2	3	0.5073	0.4233	0	1	0.685	66	82	82
45	1	77	0	1	1	0.5073	0.4233	1	1	0.711	6	0	82
45	1	78	1	2	2	0.5073	0.4233	1	0	0.574	0	0	82
45	1	79	1	2	1	0.5073	0.4233	1	0	0.596	0	0	82
45	1	80	9	1	3	0.5073	0.4233	1	0	0.855	0	0	82
45	1	81	0	1	1	0.5073	0.4233	1	1	0.708	6	0	82
45	1	82	0	1	1	0.5073	0.4233	1	1	0.623	7	0	82
45	1	83	9	1	3	0.5073	0.4233	1	1	0.666	0	82	0
45	1	84	1	1	1	0.5073	0.4233	0	0	0.740	0	82	82
45	1	85	9	2	2	0.5073	0.4233	1	0	0.915	0	82	0
45	1	86	0	1	1	0.5073	0.4233	1	1	0.748	6	0	82
45	1	87	1	1	1	0.5073	0.4233	0	1	1.064	50	82	82
45	1	88	9	2	2	0.5073	0.4233	0	1	0.635	0	82	82
45	1	89	1	2	2	0.5073	0.4233	1	1	0.435	91	0	82
45	1	90	0	1	1	0.5073	0.4233	0	1	1.038	5	0	0
45	1	91	9	1	1	0.5073	0.4233	0	1	0.621	0	0	0
45	1	92	9	2	2	0.5073	0.4233	1	1	0.689	0	82	0
45	1	93	0	1	2	0.5073	0.4233	0	1	0.925	5	0	0
45	1	94	9	2	3	0.5073	0.4233	0	1	0.769	0	82	82
45	1	95	1	2	2	0.5073	0.4233	0	1	0.632	72	82	82
45	1	96	9	1	3	0.5073	0.4233	1	1	0.864	0	0	82
45	1	97	1	1	3	0.5073	0.4233	1	1	0.440	91	82	0
45	1	98	0	1	1	0.5073	0.4233	1	1	1.000	5	0	82
45	1	99	9	1	3	0.5073	0.4233	0	0	0.616	0	0	0
45	1	100	1	1	3	0.5073	0.4233	0	0	0.683	0	82	82
45	1	101	1	2	2	0.5073	0.4233	0	1	0.738	61	82	82
45	1	102	1	1	1	0.5073	0.4233	0	1	0.846	50	82	82
45	1	103	9	2	2	0.5073	0.4233	1	0	1.102	0	0	82
45	1	104	1	1	1	0.5073	0.4233	0	1	0.904	50	82	82
45	1	105	9	2	3	0.5073	0.4233	0	1	0.817	0	82	82
45	1	106	9	2	2	0.5073	0.4233	0	1	0.635	0	0	0
45	1	107	1	1	2	0.5073	0.4233	0	1	1.079	50	82	82
45	1	108	0	2	3	0.5073	0.4233	1	1	1.306	5	82	0
45	1	109	1	1	3	0.5073	0.4233	1	1	0.764	59	82	0
45	1	110	1	2	3	0.5073	0.4233	0	1	0.565	79	82	82
45	1	111	9	1	1	0.5073	0.4233	1	1	0.532	0	82	0
45	1	112	0	2	3	0.5073	0.4233	0	1	0.532	8	0	0
45	1	113	9	2	2	0.5073	0.4233	0	1	0.735	0	82	82
45	1	114	1	1	1	0.5073	0.4233	1	1	0.470	88	82	0
45	1	115	1	1	1	0.5073	0.4233	0	0	0.687	0	82	82
45	1	116	1	1	3	0.5073	0.4233	0	1	0.757	59	82	82
45	1	117	0	1	1	0.5073	0.4233	0	1	0.512	8	0	0
45	1	118	0	1	1	0.5073	0.4233	1	1	1.085	5	0	82
45	1	119	9	1	3	0.5073	0.4233	0	1	0.829	0	82	82
45	1	120	0	2	1	0.5073	0.4233	1	1	0.666	7	82	0
45	1	121	0	1	1	0.5073	0.4233	1	1	0.955	5	0	82
45	1	122	0	1	3	0.5073	0.4233	0	0	0.674	0	0	0
45	1	123	0	2	3	0.5073	0.4233	1	0	0.920	0	82	0
45	1	124	0	2	3	0.5073	0.4233	0	0	1.808	0	0	0
45	1	125	0	1	1	0.5073	0.4233	1	1	1.103	5	0	82
45	1	126	0	2	2	0.5073	0.4233	0	1	0.604	7	0	0
45	1	127	0	1	1	0.5073	0.4233	0	1	1.027	5	0	0
45	1	128	1	1	3	0.5073	0.4233	0	1	0.756	59	82	82
45	1	129	1	1	1	0.5073	0.4233	1	0	0.962	0	82	0
45	1	130	1	1	3	0.5073	0.4233	0	1	0.755	59	82	82
45	1	131	1	2	3	0.5073	0.4233	0	1	0.573	78	82	82
45	1	132	0	1	3	0.5073	0.4233	1	1	1.017	5	0	82
45	1	133	0	1	3	0.5073	0.4233	1	0	0.858	0	0	82
45	1	134	1	1	3	0.5073	0.4233	1	1	0.465	88	82	0
45	1	135	9	1	3	0.5073	0.4233	0	0	0.822	0	82	82
45	1	136	0	2	2	0.5073	0.4233	1	0	2.250	0	82	0
45	1	137	9	1	1	0.5073	0.4233	1	1	0.812	0	82	0
45	1	138	1	2	2	0.5073	0.4233	1	1	0.849	50	0	82
45	1	139	1	2	2	0.5073	0.4233	0	1	0.904	50	82	82
45	1	140	0	2	2	0.5073	0.4233	0	1	0.654	7	0	0
45	1	141	9	1	3	0.5073	0.4233	0	1	0.424	0	0	0
45	1	142	0	1	3	0.5073	0.4233	1	1	0.899	5	0	82
45	1	143	1	1	2	0.5073	0.4233	0	1	0.643	71	82	82
45	1	144	9	1	1	0.5073	0.4233	1	1	0.731	0	0	82
45	1	145	1	1	1	0.5073	0.4233	0	1	0.717	63	82	82
45	1	146	0	1	3	0.5073	0.4233	1	1	0.806	5	0	82
45	1	147	1	2	1	0.5073	0.4233	1	1	0.563	79	0	82
45	1	148	1	1	1	0.5073	0.4233	0	1	0.913	50	82	82
45	1	149	0	1	1	0.5073	0.4233	1	1	0.793	6	0	82
45	1	150	9	1	1	0.5073	0.4233	0	0	0.882	0	0	0
45	1	151	1	2	3	0.5073	0.4233	0	1	0.569	78	82	82
45	1	152	9	1	1	0.5073	0.4233	0	1	0.846	0	82	82
45	1	153	0	1	1	0.5073	0.4233	0	1	0.545	8	0	0
45	1	154	0	1	3	0.5073	0.4233	1	0	0.599	0	0	82
45	1	155	1	1	2	0.5073	0.4233	1	1	0.607	74	82	0
45	1	156	1	2	3	0.5073	0.4233	1	1	0.465	89	0	82
45	1	157	0	2	2	0.5073	0.4233	1	1	0.616	7	82	0
45	1	158	9	2	2	0.5073	0.4233	0	1	0.352	0	0	0
45	1	159	1	1	3	0.5073	0.4233	1	1	0.773	58	82	0
45	1	160	9	2	3	0.5073	0.4233	1	1	1.344	0	82	0
45	1	161	9	2	3	0.5073	0.4233	1	1	0.569	0	82	0
45	1	162	1	2	2	0.5073	0.4233	0	0	0.702	0	82	82
45	1	163	0	1	3	0.5073	0.4233	0	1	0.895	5	0	0
45	1	164	0	2	3	0.5073	0.4233	1	1	1.203	5	82	0
45	1	165	9	2	2	0.5073	0.4233	1	1	1.942	0	0	82
45	1	166	0	2	2	0.5073	0.4233	1	1	2.064	5	82	0
45	1	167	1	2	2	0.5073	0.4233	0	1	0.679	67	82	82
45	1	168	0	1	1	0.5073	0.4233	0	1	0.985	5	0	0
45	1	169	1	2	2	0.5073	0.4233	1	1	0.587	76	0	82
45	1	170	9	1	1	0.5073	0.4233	0	1	0.995	0	82	82
45	1	171	0	1	1	0.5073	0.4233	1	1	1.101	5	0	82
45	1	172	0	1	3	0.5073	0.4233	0	1	0.945	5	0	0
45	1	173	1	2	2	0.5073	0.4233	1	1	0.482	87	0	82
45	1	174	1	1	1	0.5073	0.4233	0	1	1.039	50	82	82
45	1	175	0	1	1	0.5073	0.4233	1	0	0.812	0	0	82
45	1	176	1	2	3	0.5073	0.4233	1	1	0.420	93	0	82
45	1	177	1	2	3	0.5073	0.4233	0	1	0.627	72	82	82
45	1	178	1	2	3	0.5073	0.4233	0	1	0.520	83	82	82
45	1	179	1	1	3	0.5073	0.4233	1	1	0.580	77	82	0
45	1	180	1	1	3	0.5073	0.4233	1	1	1.530	50	82	0
45	1	181	1	1	1	0.5073	0.4233	0	0	0.624	0	82	82
45	1	182	0	1	2	0.5073	0.4233	1	0	0.285	0	0	82
45	1	183	9	1	2	0.5073	0.4233	0	0	0.677	0	0	0
45	1	184	9	2	1	0.5073	0.4233	1	1	0.881	0	82	0
45	1	185	0	2	3	0.5073	0.4233	1	1	0.532	8	82	0
45	1	186	0	2	2	0.5073	0.4233	0	0	0.695	0	0	0
45	1	187	0	2	2	0.5073	0.4233	0	1	0.316	10	0	0
45	1	188	0	1	1	0.5073	0.4233	0	1	0.510	8	0	0
45	1	189	9	1	3	0.5073	0.4233	0	0	0.575	0	82	82
45	1	190	0	1	1	0.5073	0.4233	0	1	1.155	5	0	0
45	1	191	1	2	2	0.5073	0.4233	1	1	0.636	71	0	82
45	1	192	1	2	3	0.5073	0.4233	0	1	0.702	65	82	82
45	1	193	1	1	3	0.5073	0.4233	0	1	1.427	50	82	82
45	1	194	1	1	3	0.5073	0.4233	1	1	0.582	77	82	0
45	1	195	1	1	1	0.5073	0.4233	0	0	0.846	0	82	82
45	1	196	1	1	3	0.5073	0.4233	1	1	0.417	93	82	0
45	1	197	9	1	1	0.5073	0.4233	0	1	0.842	0	0	0
45	1	198	0	2	2	0.5073	0.4233	1	1	1.106	5	82	0
45	1	199	0	2	3	0.5073	0.4233	0	1	0.692	7	0	0
45	1	200	9	2	2	0.5073	0.4233	1	0	0.775	0	82	0
45	1	201	0	2	3	0.5073	0.4233	1	1	0.452	9	82	0
45	1	202	0	2	2	0.5073	0.4233	1	1	0.558	8	82	0
45	1	203	1	2	2	0.5073	0.4233	0	1	0.569	78	82	82
45	1	204	0	1	3	0.5073	0.4233	1	1	0.672	7	0	82
45	1	205	1	1	1	0.5073	0.4233	1	1	0.557	79	82	0
45	1	206	0	1	3	0.5073	0.4233	0	0	0.722	0	0	0
45	1	207	1	1	1	0.5073	0.4233	0	0	0.545	0	82	82
45	1	208	9	1	1	0.5073	0.4233	1	1	0.785	0	0	82
45	1	209	0	1	3	0.5073	0.4233	1	0	0.560	0	0	82
45	1	210	0	1	2	0.5073	0.4233	0	0	0.977	0	0	0
45	1	211	1	2	1	0.5073	0.4233	0	1	0.571	78	82	82
45	1	212	0	2	2	0.5073	0.4233	0	1	0.566	8	0	0
45	1	213	1	2	2	0.5073	0.4233	0	1	0.470	88	82	82
45	1	214	0	2	2	0.5073	0.4233	1	1	0.937	5	82	0
45	1	215	1	1	3	0.5073	0.4233	0	1	0.902	50	82	82
45	1	216	0	1	1	0.5073	0.4233	1	1	0.734	6	0	82
45	1	217	9	2	1	0.5073	0.4233	0	1	0.613	0	0	0
45	1	218	1	1	1	0.5073	0.4233	0	1	0.563	79	82	82
45	1	219	9	2	2	0.5073	0.4233	0	1	0.506	0	82	82
45	1	220	0	2	3	0.5073	0.4233	0	1	0.675	7	0	0
45	1	221	1	1	1	0.5073	0.4233	1	1	0.703	65	82	0
45	1	222	0	1	1	0.5073	0.4233	0	1	0.496	9	0	0
45	1	223	9	2	3	0.5073	0.4233	1	0	0.287	0	0	82
45	1	224	0	2	3	0.5073	0.4233	1	1	0.247	10	82	0
45	1	225	9	1	3	0.5073	0.4233	1	0	0.384	0	0	82
45	1	226	9	1	3	0.5073	0.4233	1	1	0.592	0	82	0
45	1	227	1	1	3	0.5073	0.4233	1	1	0.595	75	82	0
45	1	228	0	2	2	0.5073	0.4233	0	1	0.364	10	0	0
45	1	229	1	1	1	0.5073	0.4233	0	0	0.578	0	82	82
45	1	230	0	2	3	0.5073	0.4233	1	0	0.730	0	82	0
45	1	231	1	1	1	0.5073	0.4233	0	0	0.678	0	82	82
45	1	232	1	2	3	0.5073	0.4233	1	1	0.486	86	0	82
45	1	233	9	1	1	0.5073	0.4233	0	1	1.244	0	0	0
45	1	234	1	1	3	0.5073	0.4233	1	1	0.511	84	82	0
45	1	235	0	2	1	0.5073	0.4233	0	0	1.721	0	0	0
45	1	236	0	1	3	0.5073	0.4233	1	0	0.793	0	0	82
45	1	237	1	1	3	0.5073	0.4233	0	0	0.816	0	82	82
45	1	238	9	1	1	0.5073	0.4233	0	0	0.663	0	82	82
45	1	239	9	2	2	0.5073	0.4233	1	1	1.013	0	82	0
45	1	240	1	1	3	0.5073	0.4233	1	1	0.540	81	82	0
45	1	241	0	1	1	0.5073	0.4233	1	1	0.959	5	0	82
45	1	242	9	1	3	0.5073	0.4233	0	1	1.305	0	82	82
45	1	243	1	1	3	0.5073	0.4233	0	0	0.871	0	82	82
45	1	244	0	1	1	0.5073	0.4233	0	0	0.620	0	0	0
45	1	245	0	1	3	0.5073	0.4233	0	0	0.563	0	0	0
45	1	246	1	1	1	0.5073	0.4233	1	1	1.036	50	82	0
45	1	247	0	1	2	0.5073	0.4233	1	1	1.081	5	0	82
45	1	248	0	2	2	0.5073	0.4233	0	1	0.814	5	0	0
45	1	249	0	1	3	0.5073	0.4233	0	1	1.018	5	0	0
45	1	250	1	2	2	0.5073	0.4233	1	1	0.498	85	0	82
45	1	251	9	1	3	0.5073	0.4233	0	1	0.686	0	0	0
45	1	252	1	1	3	0.5073	0.4233	0	1	0.735	61	82	82
45	1	253	0	1	3	0.5073	0.4233	1	1	0.915	5	0	82
45	1	254	0	1	2	0.5073	0.4233	0	0	1.407	0	0	0
45	1	255	0	2	2	0.5073	0.4233	0	0	0.544	0	0	0
45	1	256	0	1	1	0.5073	0.4233	0	0	0.657	0	0	0
45	1	257	9	1	3	0.5073	0.4233	0	0	0.569	0	0	0
45	1	258	0	2	2	0.5073	0.4233	0	1	0.594	8	0	0
45	1	259	1	1	3	0.5073	0.4233	0	1	0.512	84	82	82
45	1	260	1	1	2	0.5073	0.4233	1	1	0.532	82	82	0
45	1	261	1	1	3	0.5073	0.4233	0	0	0.555	0	82	82
45	1	262	0	2	3	0.5073	0.4233	1	0	1.280	0	82	0
45	1	263	0	2	3	0.5073	0.4233	1	1	0.893	5	82	0
45	1	264	0	2	3	0.5073	0.4233	0	0	0.740	0	0	0
45	1	265	0	1	1	0.5073	0.4233	1	1	1.239	5	0	82
45	1	266	0	1	3	0.5073	0.4233	0	0	0.817	0	0	0
45	1	267	1	1	3	0.5073	0.4233	1	1	0.556	79	82	0
45	1	268	0	2	3	0.5073	0.4233	1	1	1.375	5	82	0
45	1	269	0	1	1	0.5073	0.4233	1	1	1.030	5	0	82
45	1	270	1	2	2	0.5073	0.4233	1	1	0.774	58	0	82
45	1	271	0	2	3	0.5073	0.4233	1	1	1.120	5	82	0
45	1	272	9	1	3	0.5073	0.4233	1	0	1.118	0	0	82
45	1	273	0	2	1	0.5073	0.4233	1	1	0.851	5	82	0
45	1	274	1	1	3	0.5073	0.4233	0	1	0.778	57	82	82
45	1	275	1	1	1	0.5073	0.4233	1	1	0.515	84	82	0
45	1	276	1	2	2	0.5073	0.4233	1	1	0.420	93	0	82
45	1	277	1	2	3	0.5073	0.4233	1	1	0.409	94	0	82
45	1	278	1	2	2	0.5073	0.4233	0	1	0.522	83	82	82
45	1	279	0	2	2	0.5073	0.4233	1	1	0.708	6	82	0
45	1	280	0	2	2	0.5073	0.4233	0	0	0.526	0	0	0
45	1	281	0	1	3	0.5073	0.4233	0	0	0.364	0	0	0
45	1	282	0	2	2	0.5073	0.4233	0	0	0.006	0	0	0
45	1	283	9	1	2	0.5073	0.4233	1	1	0.444	0	82	0
45	1	284	9	2	2	0.5073	0.4233	0	1	0.515	0	82	82
45	1	285	1	2	2	0.5073	0.4233	0	0	0.558	0	82	82
45	1	286	1	1	3	0.5073	0.4233	1	1	0.400	95	82	0
45	1	287	0	1	3	0.5073	0.4233	1	1	0.472	9	0	82
45	1	288	0	2	3	0.5073	0.4233	0	0	0.383	0	0	0
45	1	289	9	2	2	0.5073	0.4233	0	0	0.256	0	0	0
45	1	290	0	1	3	0.5073	0.4233	1	1	3.153	5	0	82
45	1	291	9	2	1	0.5073	0.4233	0	1	0.451	0	82	82
45	1	292	1	2	3	0.5073	0.4233	0	1	0.457	89	82	82
45	1	293	0	1	1	0.5073	0.4233	1	1	0.673	7	0	82
45	1	294	9	2	3	0.5073	0.4233	1	1	0.495	0	0	82
45	1	295	1	1	2	0.5073	0.4233	0	0	0.776	0	82	82
45	1	296	1	1	1	0.5073	0.4233	1	1	0.376	97	82	0
45	1	297	0	1	1	0.5073	0.4233	0	0	0.290	0	0	0
45	1	298	0	1	3	0.5073	0.4233	1	1	2.684	5	0	82
45	1	299	0	2	2	0.5073	0.4233	0	0	0.376	0	0	0
45	1	300	0	2	3	0.5073	0.4233	1	1	1.868	5	82	0
45	1	301	9	1	1	0.5073	0.4233	1	1	0.344	0	82	0
45	1	302	0	2	2	0.5073	0.4233	0	0	-0.134	0	0	0
45	1	303	9	1	1	0.5073	0.4233	0	0	1.106	0	82	82
45	1	304	1	2	3	0.5073	0.4233	0	0	2.688	0	82	82
45	1	305	0	2	2	0.5073	0.4233	1	1	0.335	10	82	0
45	1	306	1	1	1	0.5073	0.4233	1	1	0.669	68	82	0
45	1	307	1	2	3	0.5073	0.4233	1	1	0.379	97	0	82
45	1	308	9	2	2	0.5073	0.4233	1	1	0.386	0	0	82
45	1	309	0	2	2	0.5073	0.4233	1	1	0.532	8	82	0
45	1	310	0	2	2	0.5073	0.4233	1	1	0.527	8	82	0
45	1	311	1	2	1	0.5073	0.4233	1	1	0.317	100	0	82
45	1	312	0	2	1	0.5073	0.4233	0	1	0.585	8	0	0
45	1	313	1	1	2	0.5073	0.4233	1	1	0.272	100	82	0
45	1	314	1	2	3	0.5073	0.4233	0	0	0.368	0	82	82
45	1	315	1	2	2	0.5073	0.4233	0	0	0.239	0	82	82
45	1	316	1	2	2	0.5073	0.4233	1	1	0.382	97	0	82
45	1	317	0	2	3	0.5073	0.4233	0	1	0.237	10	0	0
45	1	318	0	2	3	0.5073	0.4233	0	1	0.049	10	0	0
45	1	319	1	2	2	0.5073	0.4233	1	1	0.013	100	0	82
45	1	320	1	2	2	0.5073	0.4233	0	0	0.164	0	82	82
45	1	321	9	2	3	0.5073	0.4233	0	0	0.353	0	0	0
45	1	322	9	1	2	0.5073	0.4233	1	1	0.240	0	0	82
45	1	323	0	1	2	0.5073	0.4233	1	1	0.349	10	0	82
45	1	324	1	1	1	0.5073	0.4233	1	1	0.364	99	82	0
45	1	325	9	1	1	0.5073	0.4233	1	1	0.292	0	0	82
45	1	326	1	1	1	0.5073	0.4233	1	1	1.979	50	82	0
45	1	327	1	2	2	0.5073	0.4233	0	0	0.374	0	82	82
45	1	328	9	2	2	0.5073	0.4233	1	1	0.421	0	0	82
45	1	329	1	1	1	0.5073	0.4233	1	1	-0.034	100	82	0
45	1	330	0	2	3	0.5073	0.4233	0	0	0.284	0	0	0
45	1	331	1	1	3	0.5073	0.4233	1	1	0.783	57	82	0
45	1	332	0	2	3	0.5073	0.4233	0	1	0.001	10	0	0
45	1	333	9	1	1	0.5073	0.4233	1	1	0.363	0	82	0
45	1	334	0	2	2	0.5073	0.4233	1	0	1.414	0	82	0
45	1	335	9	2	3	0.5073	0.4233	0	1	1.422	0	82	82
45	1	336	9	2	3	0.5073	0.4233	1	1	0.284	0	0	82
45	1	337	1	2	3	0.5073	0.4233	0	0	0.329	0	82	82
45	1	338	9	2	3	0.5073	0.4233	0	0	0.547	0	0	0
45	1	339	1	1	1	0.5073	0.4233	0	0	-0.035	0	82	82
45	1	340	1	1	3	0.5073	0.4233	1	1	0.374	98	82	0
45	1	341	1	2	3	0.5073	0.4233	1	1	0.281	100	0	82
45	1	342	1	2	2	0.5073	0.4233	1	1	0.349	100	0	82
45	1	343	1	2	3	0.5073	0.4233	1	1	0.304	100	0	82
45	1	344	0	2	1	0.5073	0.4233	1	1	0.649	7	82	0
45	1	345	1	2	1	0.5073	0.4233	0	1	0.481	87	82	82
45	1	346	0	1	1	0.5073	0.4233	0	1	0.561	8	0	0
45	1	347	0	2	1	0.5073	0.4233	0	0	0.260	0	0	0
45	1	348	9	2	2	0.5073	0.4233	0	0	0.201	0	0	0
45	1	349	0	1	3	0.5073	0.4233	1	1	1.380	5	0	82
45	1	350	1	2	2	0.5073	0.4233	1	1	0.239	100	0	82
45	1	351	0	1	1	0.5073	0.4233	0	0	0.126	0	0	0
45	1	352	1	2	3	0.5073	0.4233	1	1	-0.092	100	0	82
45	1	353	1	1	3	0.5073	0.4233	1	1	-0.015	100	82	0
45	1	354	1	1	1	0.5073	0.4233	1	1	1.404	50	82	0
45	1	355	9	1	1	0.5073	0.4233	1	1	0.548	0	0	82
45	1	356	9	1	3	0.5073	0.4233	1	1	1.338	0	82	0
45	1	357	0	2	3	0.5073	0.4233	0	0	0.258	0	0	0
45	1	358	1	1	2	0.5073	0.4233	1	0	0.629	0	82	0
45	1	359	1	1	1	0.5073	0.4233	0	1	1.241	50	82	82
45	1	360	1	2	3	0.5073	0.4233	1	1	0.457	89	0	82
45	1	361	1	1	1	0.5073	0.4233	1	1	0.422	93	82	0
45	1	362	1	2	3	0.5073	0.4233	0	1	0.515	84	82	82
45	1	363	0	1	1	0.5073	0.4233	0	0	0.543	0	0	0
45	1	364	9	1	1	0.5073	0.4233	1	1	0.648	0	0	82
45	1	365	1	1	2	0.5073	0.4233	1	1	0.378	97	82	0
45	1	366	1	2	3	0.5073	0.4233	0	0	0.167	0	82	82
45	1	367	0	2	2	0.5073	0.4233	1	1	0.360	10	82	0
45	1	368	0	1	1	0.5073	0.4233	0	0	0.324	0	0	0
45	1	369	1	2	2	0.5073	0.4233	0	0	0.327	0	82	82
45	1	370	1	1	3	0.5073	0.4233	1	1	0.381	97	82	0
45	1	371	9	2	3	0.5073	0.4233	1	1	0.386	0	82	0
45	1	372	9	2	3	0.5073	0.4233	1	1	0.308	0	0	82
45	1	373	0	1	2	0.5073	0.4233	1	1	0.313	10	0	82
45	1	374	1	2	2	0.5073	0.4233	1	1	0.415	94	0	82
45	1	375	0	2	2	0.5073	0.4233	1	1	0.641	7	82	0
45	1	376	0	2	2	0.5073	0.4233	1	1	0.294	10	82	0
45	1	377	0	1	3	0.5073	0.4233	1	1	0.264	10	0	82
45	1	378	1	2	3	0.5073	0.4233	1	1	0.054	100	0	82
45	1	379	0	1	3	0.5073	0.4233	0	0	-0.035	0	0	0
45	1	380	0	1	1	0.5073	0.4233	0	0	0.499	0	0	0
45	1	381	9	2	1	0.5073	0.4233	1	1	0.228	0	82	0
45	1	382	9	1	3	0.5073	0.4233	1	1	0.289	0	0	82
45	1	383	9	1	1	0.5073	0.4233	1	1	0.693	0	0	82
45	1	384	0	1	3	0.5073	0.4233	1	1	0.455	9	0	82
45	1	385	1	1	3	0.5073	0.4233	0	0	0.242	0	82	82
45	1	386	9	2	3	0.5073	0.4233	0	0	0.485	0	0	0
45	1	387	1	2	3	0.5073	0.4233	1	1	0.303	100	0	82
45	1	388	0	2	3	0.5073	0.4233	1	1	0.268	10	82	0
45	1	389	0	2	2	0.5073	0.4233	0	0	0.366	0	0	0
45	1	390	1	1	3	0.5073	0.4233	1	1	0.101	100	82	0
45	1	391	1	1	3	0.5073	0.4233	0	0	0.414	0	82	82
45	1	392	1	1	3	0.5073	0.4233	1	1	-0.097	100	82	0
45	1	393	0	2	2	0.5073	0.4233	1	1	0.542	8	82	0
45	1	394	9	1	1	0.5073	0.4233	1	1	0.446	0	0	82
45	1	395	0	2	3	0.5073	0.4233	1	1	0.179	10	82	0
45	1	396	9	2	2	0.5073	0.4233	1	1	0.400	0	0	82
45	1	397	0	1	1	0.5073	0.4233	0	0	0.250	0	0	0
45	1	398	1	1	1	0.5073	0.4233	0	1	1.040	50	82	82
45	1	399	1	2	2	0.5073	0.4233	0	0	0.569	0	82	82
45	1	400	0	2	1	0.5073	0.4233	1	1	0.657	7	82	0
45	1	401	9	1	3	0.5073	0.4233	1	0	0.874	0	0	82
45	1	402	0	1	1	0.5073	0.4233	1	1	0.726	6	0	82
45	1	403	0	2	3	0.5073	0.4233	0	1	0.556	8	0	0
45	1	404	0	2	1	0.5073	0.4233	1	1	1.051	5	82	0
45	1	405	9	1	1	0.5073	0.4233	1	1	0.457	0	82	0
45	1	406	1	1	3	0.5073	0.4233	0	0	0.553	0	82	82
45	1	407	1	2	3	0.5073	0.4233	1	1	0.438	91	0	82
45	1	408	0	2	1	0.5073	0.4233	1	1	0.506	8	82	0
45	1	409	0	2	2	0.5073	0.4233	1	1	0.451	9	82	0
45	1	410	0	2	2	0.5073	0.4233	0	0	0.335	0	0	0
45	1	411	9	1	2	0.5073	0.4233	1	1	0.299	0	0	82
45	1	412	9	2	2	0.5073	0.4233	0	0	0.346	0	82	82
45	1	413	0	1	3	0.5073	0.4233	1	1	0.078	10	0	82
45	1	414	0	1	3	0.5073	0.4233	0	1	0.658	7	0	0
45	1	415	1	2	2	0.5073	0.4233	1	0	0.584	0	0	82
45	1	416	0	1	1	0.5073	0.4233	1	1	0.448	9	0	82
45	1	417	1	1	1	0.5073	0.4233	0	0	0.558	0	82	82
45	1	418	1	1	3	0.5073	0.4233	1	0	0.366	0	82	0
45	1	419	1	1	3	0.5073	0.4233	0	0	0.070	0	82	82
45	1	420	0	1	3	0.5073	0.4233	0	0	-0.072	0	0	0
45	1	421	1	1	1	0.5073	0.4233	1	1	0.409	94	82	0
45	1	422	1	2	3	0.5073	0.4233	1	1	0.433	92	0	82
45	1	423	1	2	3	0.5073	0.4233	1	1	0.361	99	0	82
45	1	424	1	1	3	0.5073	0.4233	0	1	0.550	80	82	82
45	1	425	1	1	3	0.5073	0.4233	1	1	0.379	97	82	0
45	1	426	0	1	3	0.5073	0.4233	1	0	0.624	0	0	82
45	1	427	0	2	2	0.5073	0.4233	1	1	0.307	10	82	0
45	1	428	9	1	3	0.5073	0.4233	0	0	0.362	0	82	82
45	1	429	0	2	3	0.5073	0.4233	1	1	0.384	10	82	0
45	1	430	1	2	3	0.5073	0.4233	0	0	0.360	0	82	82
45	1	431	9	1	3	0.5073	0.4233	1	0	0.294	0	82	0
45	1	432	1	1	1	0.5073	0.4233	1	1	0.322	100	82	0
45	1	433	0	1	3	0.5073	0.4233	1	0	0.500	0	0	82
45	1	434	0	1	1	0.5073	0.4233	0	0	0.616	0	0	0
45	1	435	1	1	2	0.5073	0.4233	0	0	0.280	0	82	82
45	1	436	0	1	3	0.5073	0.4233	0	0	2.154	0	0	0
45	1	437	1	1	2	0.5073	0.4233	1	1	0.129	100	82	0
45	1	438	1	1	1	0.5073	0.4233	1	1	0.376	97	82	0
45	1	439	0	1	1	0.5073	0.4233	0	1	0.677	7	0	0
45	1	440	1	2	2	0.5073	0.4233	0	1	0.642	71	82	82
45	1	441	9	2	1	0.5073	0.4233	1	1	0.417	0	0	82
45	1	442	9	1	2	0.5073	0.4233	0	0	0.305	0	82	82
45	1	443	1	1	1	0.5073	0.4233	0	1	0.693	66	82	82
45	1	444	1	1	3	0.5073	0.4233	0	1	0.670	68	82	82
45	1	445	0	2	3	0.5073	0.4233	0	0	0.996	0	0	0
45	1	446	9	2	2	0.5073	0.4233	1	1	0.496	0	82	0
45	1	447	0	2	1	0.5073	0.4233	0	0	0.320	0	0	0
45	1	448	0	2	2	0.5073	0.4233	0	0	0.661	0	0	0
45	1	449	9	1	3	0.5073	0.4233	1	1	0.507	0	0	82
45	1	450	0	2	3	0.5073	0.4233	0	0	0.940	0	0	0
45	1	451	9	1	3	0.5073	0.4233	0	1	0.343	0	82	82
45	1	452	0	1	2	0.5073	0.4233	1	1	2.900	5	0	82
45	1	453	1	1	1	0.5073	0.4233	0	1	0.772	58	82	82
45	1	454	0	1	3	0.5073	0.4233	1	1	0.845	5	0	82
45	1	455	9	2	3	0.5073	0.4233	1	1	0.534	0	0	82
45	1	456	1	1	3	0.5073	0.4233	1	1	0.517	83	82	0
45	1	457	1	2	3	0.5073	0.4233	1	1	0.398	95	0	82
45	1	458	9	1	3	0.5073	0.4233	1	0	0.561	0	0	82
45	1	459	1	2	1	0.5073	0.4233	1	1	0.238	100	0	82
45	1	460	1	1	3	0.5073	0.4233	0	0	0.365	0	82	82
45	1	461	9	2	3	0.5073	0.4233	0	0	0.278	0	82	82
45	1	462	1	1	3	0.5073	0.4233	1	1	0.457	89	82	0
45	1	463	9	1	3	0.5073	0.4233	1	1	0.406	0	82	0
45	1	464	9	1	1	0.5073	0.4233	0	0	0.232	0	0	0
45	1	465	0	2	3	0.5073	0.4233	0	1	0.469	9	0	0
45	1	466	0	1	1	0.5073	0.4233	1	1	1.006	5	0	82
45	1	467	9	1	1	0.5073	0.4233	0	0	0.574	0	0	0
45	1	468	9	1	1	0.5073	0.4233	0	1	0.929	0	82	82
45	1	469	0	2	2	0.5073	0.4233	1	1	0.552	8	82	0
45	1	470	0	1	1	0.5073	0.4233	0	0	0.688	0	0	0
45	1	471	9	1	3	0.5073	0.4233	1	1	0.339	0	82	0
45	1	472	0	1	1	0.5073	0.4233	1	1	0.300	10	0	82
45	1	473	1	2	3	0.5073	0.4233	1	1	0.337	100	0	82
45	1	474	1	2	3	0.5073	0.4233	0	0	0.323	0	82	82
45	1	475	0	2	3	0.5073	0.4233	0	0	0.297	0	0	0
45	1	476	0	1	1	0.5073	0.4233	0	0	2.277	0	0	0
45	1	477	1	1	1	0.5073	0.4233	0	0	0.384	0	82	82
45	1	478	1	1	3	0.5073	0.4233	0	0	0.320	0	82	82
45	1	479	9	2	3	0.5073	0.4233	0	0	0.638	0	82	82
45	1	480	1	1	1	0.5073	0.4233	1	1	0.489	86	82	0
45	1	481	0	2	3	0.5073	0.4233	1	1	0.471	9	82	0
45	1	482	1	2	2	0.5073	0.4233	0	0	0.279	0	82	82
45	1	483	0	1	2	0.5073	0.4233	0	0	0.953	0	0	0
45	1	484	9	2	2	0.5073	0.4233	1	1	0.375	0	82	0
45	1	485	0	2	2	0.5073	0.4233	0	0	-0.122	0	0	0
45	1	486	1	1	1	0.5073	0.4233	1	1	0.327	100	82	0
45	1	487	1	2	2	0.5073	0.4233	1	1	0.352	100	0	82
45	1	488	0	1	1	0.5073	0.4233	1	1	0.277	10	0	82
45	1	489	1	2	1	0.5073	0.4233	0	0	0.297	0	82	82
45	1	490	9	2	3	0.5073	0.4233	0	0	0.244	0	82	82
45	1	491	9	1	1	0.5073	0.4233	1	1	0.450	0	82	0
45	1	492	1	2	2	0.5073	0.4233	1	1	0.303	100	0	82
45	1	493	0	2	3	0.5073	0.4233	1	0	0.607	0	82	0
45	1	494	1	1	3	0.5073	0.4233	1	1	0.108	100	82	0
45	1	495	0	2	3	0.5073	0.4233	1	1	0.171	10	82	0
45	1	496	0	2	3	0.5073	0.4233	0	0	0.851	0	0	0
45	1	497	1	2	2	0.5073	0.4233	1	1	0.052	100	0	82
45	1	498	0	1	3	0.5073	0.4233	1	1	0.200	10	0	82
45	1	499	0	1	3	0.5073	0.4233	1	1	0.018	10	0	82
45	1	500	0	2	2	0.5073	0.4233	0	0	0.053	0	0	0
45	1	501	0	2	3	0.5073	0.4233	1	1	0.254	10	82	0
45	1	502	1	1	3	0.5073	0.4233	1	1	0.236	100	82	0
45	1	503	0	1	1	0.5073	0.4233	1	1	0.190	10	0	82
45	1	504	9	1	1	0.5073	0.4233	1	1	0.344	0	82	0
45	1	505	0	2	3	0.5073	0.4233	0	0	0.236	0	0	0
45	1	506	0	1	2	0.5073	0.4233	1	1	-0.008	10	0	82
45	1	507	0	2	2	0.5073	0.4233	0	0	0.359	0	0	0
45	1	508	1	1	3	0.5073	0.4233	1	1	0.317	100	82	0
45	1	509	9	1	3	0.5073	0.4233	0	0	0.071	0	0	0
45	1	510	0	2	2	0.5073	0.4233	0	0	0.221	0	0	0
45	1	511	0	1	2	0.5073	0.4233	0	0	0.697	0	0	0
45	1	512	1	2	2	0.5073	0.4233	0	0	0.004	0	82	82
45	1	513	0	1	1	0.5073	0.4233	0	0	0.819	0	0	0
45	1	514	9	1	1	0.5073	0.4233	1	1	0.111	0	0	82
45	1	515	1	2	2	0.5073	0.4233	1	1	0.251	100	0	82
45	1	516	1	1	1	0.5073	0.4233	1	1	0.847	50	82	0
45	1	517	1	2	3	0.5073	0.4233	1	1	0.152	100	0	82
45	1	518	1	1	1	0.5073	0.4233	1	1	0.220	100	82	0
45	1	519	0	1	1	0.5073	0.4233	0	0	0.076	0	0	0
45	1	520	1	2	3	0.5073	0.4233	0	0	0.308	0	82	82
45	1	521	0	2	2	0.5073	0.4233	0	0	0.283	0	0	0
45	1	522	1	1	3	0.5073	0.4233	0	0	0.198	0	82	82
45	1	523	1	1	3	0.5073	0.4233	0	0	0.423	0	82	82
45	1	524	0	2	2	0.5073	0.4233	1	1	0.252	10	82	0
45	1	525	1	1	2	0.5073	0.4233	0	0	0.590	0	82	82
45	1	526	0	1	1	0.5073	0.4233	1	0	0.609	0	0	82
45	1	527	1	1	3	0.5073	0.4233	0	1	0.982	50	82	82
45	1	528	1	2	1	0.5073	0.4233	0	1	0.534	82	82	82
45	1	529	1	2	2	0.5073	0.4233	0	1	0.606	74	82	82
45	1	530	0	2	2	0.5073	0.4233	1	1	0.735	6	82	0
45	1	531	1	1	3	0.5073	0.4233	1	1	0.478	87	82	0
45	1	532	0	2	3	0.5073	0.4233	0	1	0.166	10	0	0
45	1	533	1	2	1	0.5073	0.4233	1	1	0.317	100	0	82
45	1	534	0	2	1	0.5073	0.4233	0	0	0.635	0	0	0
45	1	535	9	2	3	0.5073	0.4233	0	0	0.243	0	0	0
45	1	536	1	2	2	0.5073	0.4233	1	0	0.352	0	0	82
45	1	537	0	1	1	0.5073	0.4233	1	1	0.691	7	0	82
45	1	538	1	1	1	0.5073	0.4233	1	1	0.329	100	82	0
45	1	539	0	2	3	0.5073	0.4233	1	1	0.666	7	82	0
45	1	540	0	1	3	0.5073	0.4233	0	0	0.335	0	0	0
45	1	541	9	1	2	0.5073	0.4233	0	0	0.258	0	0	0
45	1	542	9	1	1	0.5073	0.4233	0	0	1.505	0	82	82
45	1	543	1	2	2	0.5073	0.4233	1	0	0.390	0	0	82
45	1	544	1	2	3	0.5073	0.4233	1	1	0.289	100	0	82
45	1	545	0	2	2	0.5073	0.4233	0	0	0.604	0	0	0
45	1	546	1	2	3	0.5073	0.4233	1	1	0.380	97	0	82
45	1	547	1	2	2	0.5073	0.4233	1	1	0.292	100	0	82
45	1	548	0	2	2	0.5073	0.4233	1	1	0.738	6	82	0
45	1	549	0	2	3	0.5073	0.4233	1	1	0.525	8	82	0
45	1	550	9	2	3	0.5073	0.4233	1	1	0.362	0	0	82
45	1	551	1	2	3	0.5073	0.4233	0	0	0.407	0	82	82
45	1	552	1	2	3	0.5073	0.4233	0	0	0.234	0	82	82
45	1	553	1	2	2	0.5073	0.4233	0	1	0.293	100	82	82
45	1	554	1	2	2	0.5073	0.4233	0	0	0.563	0	82	82
45	1	555	1	2	2	0.5073	0.4233	0	1	0.411	94	82	82
45	1	556	0	2	1	0.5073	0.4233	0	1	0.375	10	0	0
45	1	557	1	2	2	0.5073	0.4233	0	1	0.437	91	82	82
45	1	558	0	1	3	0.5073	0.4233	0	1	0.211	10	0	0
45	1	559	0	2	3	0.5073	0.4233	0	1	0.255	10	0	0
45	1	560	0	2	3	0.5073	0.4233	1	1	0.534	8	82	0
45	1	561	9	2	2	0.5073	0.4233	1	0	0.249	0	0	82
45	1	562	0	1	3	0.5073	0.4233	0	0	0.075	0	0	0
45	1	563	1	2	2	0.5073	0.4233	0	1	0.450	90	82	82
45	1	564	9	2	3	0.5073	0.4233	1	0	0.588	0	82	0
45	1	565	1	1	2	0.5073	0.4233	0	0	0.835	0	82	82
45	1	566	1	1	1	0.5073	0.4233	1	1	0.417	93	82	0
45	1	567	9	1	3	0.5073	0.4233	0	0	1.693	0	0	0
45	1	568	1	2	2	0.5073	0.4233	1	1	0.317	100	0	82
45	1	569	0	1	2	0.5073	0.4233	1	0	0.626	0	0	82
45	1	570	9	2	2	0.5073	0.4233	0	0	0.497	0	0	0
45	1	571	0	1	1	0.5073	0.4233	1	1	0.440	9	0	82
45	1	572	0	1	3	0.5073	0.4233	1	1	0.477	9	0	82
45	1	573	0	2	3	0.5073	0.4233	0	0	0.322	0	0	0
45	1	574	9	2	3	0.5073	0.4233	1	1	0.400	0	82	0
45	1	575	1	2	3	0.5073	0.4233	1	1	0.456	89	0	82
45	1	576	1	1	3	0.5073	0.4233	1	1	0.328	100	82	0
45	1	577	9	1	3	0.5073	0.4233	0	1	0.736	0	82	82
45	1	578	9	2	2	0.5073	0.4233	1	1	0.510	0	82	0
45	1	579	1	2	2	0.5073	0.4233	1	1	0.274	100	0	82
45	1	580	1	2	3	0.5073	0.4233	1	1	0.352	100	0	82
45	1	581	0	2	3	0.5073	0.4233	0	0	0.490	0	0	0
45	1	582	0	1	3	0.5073	0.4233	1	1	0.203	10	0	82
45	1	583	9	1	1	0.5073	0.4233	0	0	0.659	0	0	0
45	1	584	0	1	3	0.5073	0.4233	0	0	2.093	0	0	0
45	1	585	9	1	3	0.5073	0.4233	0	0	0.625	0	0	0
45	1	586	1	2	2	0.5073	0.4233	0	0	0.396	0	82	82
45	1	587	9	1	1	0.5073	0.4233	0	1	1.018	0	82	82
45	1	588	1	1	1	0.5073	0.4233	1	1	0.364	99	82	0
45	1	589	1	1	3	0.5073	0.4233	0	1	0.859	50	82	82
45	1	590	1	1	1	0.5073	0.4233	0	1	0.644	71	82	82
45	1	591	9	2	3	0.5073	0.4233	0	0	0.585	0	82	82
45	1	592	0	2	3	0.5073	0.4233	1	1	0.836	5	82	0
45	1	593	1	2	3	0.5073	0.4233	0	1	0.643	71	82	82
45	1	594	1	2	2	0.5073	0.4233	1	1	0.442	91	0	82
45	1	595	9	1	1	0.5073	0.4233	0	1	0.629	0	82	82
45	1	596	1	2	3	0.5073	0.4233	1	1	0.403	95	0	82
45	1	597	0	1	3	0.5073	0.4233	0	1	0.543	8	0	0
45	1	598	1	1	2	0.5073	0.4233	1	1	0.411	94	82	0
45	1	599	0	1	3	0.5073	0.4233	1	0	0.628	0	0	82
45	1	600	1	2	2	0.5073	0.4233	0	1	0.567	78	82	82
45	1	601	1	1	1	0.5073	0.4233	1	1	0.352	100	82	0
45	1	602	9	2	3	0.5073	0.4233	0	0	0.523	0	0	0
45	1	603	0	2	2	0.5073	0.4233	0	0	0.648	0	0	0
45	1	604	1	1	1	0.5073	0.4233	0	0	0.665	0	82	82
45	1	605	0	2	3	0.5073	0.4233	0	0	0.261	0	0	0
45	1	606	0	2	3	0.5073	0.4233	1	1	0.577	8	82	0
45	1	607	0	1	1	0.5073	0.4233	0	0	0.264	0	0	0
45	1	608	1	1	1	0.5073	0.4233	0	1	0.646	70	82	82
45	1	609	0	2	3	0.5073	0.4233	0	0	0.601	0	0	0
45	1	610	1	2	3	0.5073	0.4233	0	1	0.624	73	82	82
45	1	611	9	2	2	0.5073	0.4233	0	1	0.604	0	82	82
45	1	612	9	2	2	0.5073	0.4233	0	0	1.512	0	0	0
45	1	613	1	1	3	0.5073	0.4233	1	1	0.306	100	82	0
45	1	614	1	1	3	0.5073	0.4233	1	1	0.470	88	82	0
45	1	615	1	2	3	0.5073	0.4233	0	1	0.539	81	82	82
45	1	616	1	1	1	0.5073	0.4233	1	1	0.322	100	82	0
45	1	617	9	1	1	0.5073	0.4233	1	1	0.305	0	82	0
45	1	618	1	1	3	0.5073	0.4233	0	1	0.755	59	82	82
45	1	619	1	2	1	0.5073	0.4233	1	0	0.378	0	0	82
45	1	620	0	1	1	0.5073	0.4233	1	1	0.640	7	0	82
45	1	621	9	1	3	0.5073	0.4233	1	1	0.291	0	82	0
45	1	622	9	2	2	0.5073	0.4233	1	1	0.295	0	0	82
45	1	623	1	2	2	0.5073	0.4233	0	1	0.728	62	82	82
45	1	624	0	1	3	0.5073	0.4233	0	0	0.742	0	0	0
45	1	625	0	1	1	0.5073	0.4233	0	0	0.492	0	0	0
45	1	626	9	1	2	0.5073	0.4233	1	1	0.348	0	82	0
45	1	627	1	2	3	0.5073	0.4233	0	1	0.587	76	82	82
45	1	628	0	1	3	0.5073	0.4233	1	1	0.673	7	0	82
45	1	629	1	2	2	0.5073	0.4233	1	0	0.390	0	0	82
45	1	630	0	2	3	0.5073	0.4233	1	1	0.319	10	82	0
45	1	631	1	1	1	0.5073	0.4233	1	1	0.348	100	82	0
45	1	632	0	2	3	0.5073	0.4233	0	0	0.263	0	0	0
45	1	633	9	1	3	0.5073	0.4233	0	0	1.766	0	0	0
45	1	634	0	1	1	0.5073	0.4233	0	0	0.274	0	0	0
45	1	635	1	2	3	0.5073	0.4233	1	1	0.510	84	0	82
45	1	636	0	1	2	0.5073	0.4233	0	0	0.619	0	0	0
45	1	637	1	1	3	0.5073	0.4233	0	1	0.788	56	82	82
45	1	638	9	2	3	0.5073	0.4233	0	0	0.375	0	0	0
45	1	639	0	1	3	0.5073	0.4233	0	1	0.723	6	0	0
45	1	640	9	2	2	0.5073	0.4233	1	1	0.395	0	0	82
45	1	641	1	2	2	0.5073	0.4233	1	1	0.373	98	0	82
45	1	642	9	2	3	0.5073	0.4233	1	1	0.514	0	82	0
45	1	643	1	1	1	0.5073	0.4233	1	1	0.357	99	82	0
45	1	644	9	2	2	0.5073	0.4233	0	0	0.373	0	82	82
45	1	645	0	2	2	0.5073	0.4233	1	1	0.508	8	82	0
45	1	646	0	1	3	0.5073	0.4233	0	0	0.279	0	0	0
45	1	647	1	1	1	0.5073	0.4233	0	0	0.576	0	82	82
45	1	648	1	1	1	0.5073	0.4233	0	1	0.524	83	82	82
45	1	649	1	2	3	0.5073	0.4233	1	1	0.421	93	0	82
45	1	650	0	2	2	0.5073	0.4233	1	1	0.618	7	82	0
45	1	651	1	1	3	0.5073	0.4233	0	1	0.697	65	82	82
45	1	652	1	1	3	0.5073	0.4233	1	1	0.505	85	82	0
45	1	653	0	2	1	0.5073	0.4233	0	0	0.401	0	0	0
45	1	654	0	2	3	0.5073	0.4233	1	1	0.597	8	82	0
45	1	655	0	2	2	0.5073	0.4233	0	0	0.336	0	0	0
45	1	656	1	1	1	0.5073	0.4233	0	1	0.674	68	82	82
45	1	657	9	2	2	0.5073	0.4233	0	1	0.645	0	0	0
45	1	658	1	1	3	0.5073	0.4233	1	1	0.437	91	82	0
45	1	659	1	1	1	0.5073	0.4233	0	1	0.729	62	82	82
45	1	660	0	2	2	0.5073	0.4233	1	1	0.548	8	82	0
45	1	661	1	2	3	0.5073	0.4233	0	0	0.273	0	82	82
45	1	662	1	2	1	0.5073	0.4233	0	1	0.517	83	82	82
45	1	663	9	2	1	0.5073	0.4233	0	0	0.130	0	0	0
45	1	664	1	2	1	0.5073	0.4233	1	1	0.516	83	0	82
45	1	665	1	2	1	0.5073	0.4233	0	1	0.476	87	82	82
45	1	666	1	1	2	0.5073	0.4233	1	1	0.570	78	82	0
45	1	667	0	2	2	0.5073	0.4233	0	1	0.621	7	0	0
45	1	668	1	1	3	0.5073	0.4233	0	1	0.772	58	82	82
45	1	669	0	1	1	0.5073	0.4233	0	0	0.486	0	0	0
45	1	670	1	2	2	0.5073	0.4233	0	1	0.664	69	82	82
45	1	671	9	1	3	0.5073	0.4233	0	1	0.653	0	82	82
45	1	672	9	2	2	0.5073	0.4233	0	0	0.265	0	0	0
45	1	673	0	1	1	0.5073	0.4233	1	1	0.622	7	0	82
45	1	674	0	1	3	0.5073	0.4233	1	1	0.565	8	0	82
45	1	675	1	1	1	0.5073	0.4233	1	0	0.698	0	82	0
45	1	676	0	2	2	0.5073	0.4233	1	1	0.673	7	82	0
45	1	677	1	1	1	0.5073	0.4233	0	1	0.720	63	82	82
45	1	678	0	1	1	0.5073	0.4233	1	1	0.668	7	0	82
45	1	679	0	1	1	0.5073	0.4233	1	1	0.615	7	0	82
45	1	680	0	2	2	0.5073	0.4233	0	0	-0.090	0	0	0
45	1	681	0	2	2	0.5073	0.4233	0	0	0.271	0	0	0
45	1	682	0	1	3	0.5073	0.4233	1	1	0.829	5	0	82
45	1	683	0	1	3	0.5073	0.4233	0	0	0.441	0	0	0
45	1	684	1	2	3	0.5073	0.4233	0	1	0.572	78	82	82
45	1	685	1	1	1	0.5073	0.4233	0	1	0.538	81	82	82
45	1	686	1	1	1	0.5073	0.4233	0	1	0.509	84	82	82
45	1	687	0	2	3	0.5073	0.4233	0	0	0.087	0	0	0
45	1	688	0	1	3	0.5073	0.4233	1	0	0.517	0	0	82
45	1	689	0	1	1	0.5073	0.4233	0	0	0.232	0	0	0
45	1	690	0	1	2	0.5073	0.4233	0	0	-0.096	0	0	0
45	1	691	9	2	1	0.5073	0.4233	0	1	0.522	0	82	82
45	1	692	1	1	2	0.5073	0.4233	0	0	0.621	0	82	82
45	1	693	0	2	2	0.5073	0.4233	1	1	0.549	8	82	0
45	1	694	0	2	2	0.5073	0.4233	1	1	0.520	8	82	0
45	1	695	1	1	1	0.5073	0.4233	0	1	0.511	84	82	82
45	1	696	1	2	2	0.5073	0.4233	1	0	0.612	0	0	82
45	1	697	0	1	3	0.5073	0.4233	0	0	0.273	0	0	0
45	1	698	1	2	3	0.5073	0.4233	1	1	0.345	100	0	82
45	1	699	0	2	3	0.5073	0.4233	1	1	0.572	8	82	0
45	1	700	0	1	1	0.5073	0.4233	1	1	0.297	10	0	82
45	1	701	0	1	1	0.5073	0.4233	1	1	0.492	9	0	82
45	1	702	0	2	3	0.5073	0.4233	1	1	0.353	10	82	0
45	1	703	9	2	2	0.5073	0.4233	0	1	0.555	0	82	82
45	1	704	0	1	3	0.5073	0.4233	1	1	0.487	9	0	82
45	1	705	1	2	2	0.5073	0.4233	0	1	0.696	65	82	82
45	1	706	0	2	3	0.5073	0.4233	0	1	0.608	7	0	0
45	1	707	0	1	3	0.5073	0.4233	0	0	1.425	0	0	0
45	1	708	0	1	3	0.5073	0.4233	0	0	-0.014	0	0	0
45	1	709	1	2	3	0.5073	0.4233	0	1	0.476	87	82	82
45	1	710	0	1	1	0.5073	0.4233	1	1	0.548	8	0	82
45	1	711	9	2	2	0.5073	0.4233	1	1	0.525	0	82	0
45	1	712	0	1	1	0.5073	0.4233	0	0	0.330	0	0	0
45	1	713	9	2	3	0.5073	0.4233	1	0	0.175	0	0	82
45	1	714	1	2	3	0.5073	0.4233	0	1	0.493	86	82	82
45	1	715	1	2	3	0.5073	0.4233	0	1	0.460	89	82	82
45	1	716	1	2	2	0.5073	0.4233	1	1	0.591	76	0	82
45	1	717	0	2	2	0.5073	0.4233	0	0	0.245	0	0	0
45	1	718	0	2	1	0.5073	0.4233	1	0	0.700	0	82	0
45	1	719	0	2	2	0.5073	0.4233	0	0	0.447	0	0	0
45	1	720	9	1	1	0.5073	0.4233	0	1	0.640	0	0	0
