sub	sess	t	rew	loc	cue	co1	co2	or	resp	rt	rew_tot	left_col	right_col
125	1	1	9	1	1	0.0848	0.3931	0	1	0.732	0	0	0
125	1	2	9	2	1	0.0848	0.3931	1	1	1.993	0	0	82
125	1	3	0	1	1	0.0848	0.3931	1	0	1.084	0	0	82
125	1	4	1	1	3	0.0848	0.3931	0	1	1.568	50	82	82
125	1	5	0	1	1	0.0848	0.3931	1	1	0.818	5	0	82
125	1	6	0	1	3	0.0848	0.3931	0	0	1.276	0	0	0
125	1	7	9	2	2	0.0848	0.3931	0	0	0.771	0	82	82
125	1	8	9	1	1	0.0848	0.3931	1	1	1.375	0	82	0
125	1	9	0	1	3	0.0848	0.3931	1	1	0.641	7	0	82
125	1	10	1	2	3	0.0848	0.3931	0	1	1.034	50	82	82
125	1	11	9	1	1	0.0848	0.3931	1	1	0.673	0	0	82
125	1	12	1	1	3	0.0848	0.3931	0	0	1.097	0	82	82
125	1	13	0	1	1	0.0848	0.3931	0	0	1.885	0	0	0
125	1	14	9	1	3	0.0848	0.3931	1	1	0.854	0	0	82
125	1	15	1	1	1	0.0848	0.3931	1	1	0.877	50	82	0
125	1	16	0	2	2	0.0848	0.3931	0	1	1.835	5	0	0
125	1	17	1	2	1	0.0848	0.3931	0	1	0.629	72	82	82
125	1	18	0	1	1	0.0848	0.3931	0	1	1.148	5	0	0
125	1	19	9	1	1	0.0848	0.3931	0	1	1.088	0	0	0
125	1	20	0	2	2	0.0848	0.3931	1	1	1.044	5	82	0
125	1	21	1	1	3	0.0848	0.3931	0	0	0.985	0	82	82
125	1	22	1	1	3	0.0848	0.3931	0	1	1.160	50	82	82
125	1	23	0	2	2	0.0848	0.3931	0	1	0.756	6	0	0
125	1	24	0	1	1	0.0848	0.3931	1	0	1.712	0	0	82
125	1	25	9	2	3	0.0848	0.3931	0	1	0.619	0	82	82
125	1	26	1	2	2	0.0848	0.3931	0	1	0.811	54	82	82
125	1	27	1	2	2	0.0848	0.3931	1	1	0.883	50	0	82
125	1	28	0	1	3	0.0848	0.3931	1	1	1.154	5	0	82
125	1	29	9	2	2	0.0848	0.3931	1	1	0.533	0	0	82
125	1	30	1	2	3	0.0848	0.3931	1	1	0.665	68	0	82
125	1	31	1	1	1	0.0848	0.3931	0	1	1.031	50	82	82
125	1	32	1	2	3	0.0848	0.3931	1	1	0.631	72	0	82
125	1	33	0	2	1	0.0848	0.3931	0	0	1.153	0	0	0
125	1	34	1	1	1	0.0848	0.3931	1	1	1.454	50	82	0
125	1	35	0	2	3	0.0848	0.3931	1	1	0.836	5	82	0
125	1	36	0	1	1	0.0848	0.3931	1	1	0.733	6	0	82
125	1	37	1	1	1	0.0848	0.3931	0	1	1.058	50	82	82
125	1	38	0	2	3	0.0848	0.3931	1	1	0.520	8	82	0
125	1	39	1	1	1	0.0848	0.3931	1	1	1.046	50	82	0
125	1	40	9	1	1	0.0848	0.3931	0	1	0.927	0	82	82
125	1	41	9	1	2	0.0848	0.3931	0	0	0.885	0	82	82
125	1	42	0	2	2	0.0848	0.3931	1	1	0.613	7	82	0
125	1	43	0	1	3	0.0848	0.3931	0	0	0.732	0	0	0
125	1	44	1	1	3	0.0848	0.3931	1	1	1.311	50	82	0
125	1	45	1	1	3	0.0848	0.3931	0	1	0.685	67	82	82
125	1	46	1	1	1	0.0848	0.3931	1	1	0.877	50	82	0
125	1	47	1	2	2	0.0848	0.3931	1	1	0.849	50	0	82
125	1	48	0	2	3	0.0848	0.3931	1	1	0.713	6	82	0
125	1	49	0	1	1	0.0848	0.3931	1	1	0.895	5	0	82
125	1	50	1	1	3	0.0848	0.3931	0	1	0.851	50	82	82
125	1	51	9	1	1	0.0848	0.3931	0	1	1.121	0	0	0
125	1	52	1	1	3	0.0848	0.3931	1	1	0.596	75	82	0
125	1	53	1	2	1	0.0848	0.3931	1	1	0.813	54	0	82
125	1	54	1	1	3	0.0848	0.3931	0	1	0.645	70	82	82
125	1	55	1	2	3	0.0848	0.3931	0	1	1.029	50	82	82
125	1	56	9	2	3	0.0848	0.3931	1	1	0.639	0	82	0
125	1	57	1	2	3	0.0848	0.3931	0	1	1.077	50	82	82
125	1	58	1	2	1	0.0848	0.3931	0	0	0.821	0	82	82
125	1	59	0	1	1	0.0848	0.3931	0	1	0.614	7	0	0
125	1	60	1	1	3	0.0848	0.3931	1	1	0.799	55	82	0
125	1	61	1	2	2	0.0848	0.3931	1	1	0.803	55	0	82
125	1	62	1	1	2	0.0848	0.3931	1	1	0.957	50	82	0
125	1	63	1	1	3	0.0848	0.3931	1	1	0.537	81	82	0
125	1	64	1	1	3	0.0848	0.3931	0	1	1.053	50	82	82
125	1	65	9	1	3	0.0848	0.3931	0	1	0.950	0	0	0
125	1	66	0	1	3	0.0848	0.3931	0	0	0.808	0	0	0
125	1	67	0	1	3	0.0848	0.3931	1	1	0.683	7	0	82
125	1	68	0	1	3	0.0848	0.3931	0	0	1.567	0	0	0
125	1	69	1	1	1	0.0848	0.3931	0	0	1.273	0	82	82
125	1	70	9	2	3	0.0848	0.3931	1	1	0.953	0	82	0
125	1	71	1	1	2	0.0848	0.3931	1	1	0.981	50	82	0
125	1	72	1	2	2	0.0848	0.3931	1	1	0.809	54	0	82
125	1	73	1	1	1	0.0848	0.3931	1	1	0.588	76	82	0
125	1	74	1	1	3	0.0848	0.3931	0	1	0.989	50	82	82
125	1	75	1	2	2	0.0848	0.3931	1	1	0.767	58	0	82
125	1	76	1	2	1	0.0848	0.3931	1	1	0.872	50	0	82
125	1	77	0	1	2	0.0848	0.3931	0	1	0.536	8	0	0
125	1	78	0	1	3	0.0848	0.3931	1	1	0.604	7	0	82
125	1	79	0	1	1	0.0848	0.3931	0	1	0.974	5	0	0
125	1	80	9	2	3	0.0848	0.3931	0	0	0.874	0	82	82
125	1	81	0	1	3	0.0848	0.3931	0	0	1.826	0	0	0
125	1	82	1	2	1	0.0848	0.3931	0	0	1.185	0	82	82
125	1	83	1	2	3	0.0848	0.3931	1	1	0.883	50	0	82
125	1	84	0	2	2	0.0848	0.3931	0	1	0.776	6	0	0
125	1	85	0	2	2	0.0848	0.3931	1	1	0.587	8	82	0
125	1	86	1	1	1	0.0848	0.3931	1	1	0.951	50	82	0
125	1	87	9	2	3	0.0848	0.3931	1	1	1.131	0	0	82
125	1	88	1	1	1	0.0848	0.3931	0	0	1.015	0	82	82
125	1	89	0	2	3	0.0848	0.3931	0	1	0.752	6	0	0
125	1	90	1	1	1	0.0848	0.3931	0	1	1.027	50	82	82
125	1	91	9	1	3	0.0848	0.3931	0	0	0.685	0	0	0
125	1	92	0	2	3	0.0848	0.3931	1	1	0.874	5	82	0
125	1	93	1	1	3	0.0848	0.3931	1	0	0.849	0	82	0
125	1	94	0	2	3	0.0848	0.3931	0	0	0.920	0	0	0
125	1	95	0	2	3	0.0848	0.3931	1	0	0.612	0	82	0
125	1	96	0	2	3	0.0848	0.3931	0	1	1.523	5	0	0
125	1	97	1	2	3	0.0848	0.3931	1	1	0.584	77	0	82
125	1	98	1	1	3	0.0848	0.3931	0	1	0.603	75	82	82
125	1	99	1	1	1	0.0848	0.3931	0	1	1.030	50	82	82
125	1	100	9	2	1	0.0848	0.3931	0	1	0.725	0	0	0
125	1	101	9	2	2	0.0848	0.3931	0	1	1.794	0	0	0
125	1	102	1	1	2	0.0848	0.3931	1	1	0.596	75	82	0
125	1	103	1	1	1	0.0848	0.3931	1	1	0.451	90	82	0
125	1	104	0	2	1	0.0848	0.3931	1	1	1.169	5	82	0
125	1	105	9	2	3	0.0848	0.3931	0	1	0.882	0	0	0
125	1	106	1	2	2	0.0848	0.3931	0	1	0.714	64	82	82
125	1	107	0	1	3	0.0848	0.3931	0	1	0.551	8	0	0
125	1	108	9	1	1	0.0848	0.3931	1	1	0.561	0	82	0
125	1	109	0	1	3	0.0848	0.3931	1	0	1.049	0	0	82
125	1	110	0	1	3	0.0848	0.3931	0	1	0.567	8	0	0
125	1	111	0	1	2	0.0848	0.3931	0	1	0.442	9	0	0
125	1	112	1	2	3	0.0848	0.3931	0	1	1.268	50	82	82
125	1	113	1	2	2	0.0848	0.3931	0	1	0.626	72	82	82
125	1	114	0	2	2	0.0848	0.3931	1	1	0.596	8	82	0
125	1	115	1	2	3	0.0848	0.3931	0	1	0.581	77	82	82
125	1	116	0	1	1	0.0848	0.3931	1	1	1.209	5	0	82
125	1	117	0	2	2	0.0848	0.3931	0	1	0.576	8	0	0
125	1	118	1	2	3	0.0848	0.3931	0	0	1.099	0	82	82
125	1	119	9	2	3	0.0848	0.3931	1	1	0.985	0	0	82
125	1	120	0	1	1	0.0848	0.3931	1	1	0.850	5	0	82
125	1	121	1	1	3	0.0848	0.3931	1	1	0.975	50	82	0
125	1	122	0	1	3	0.0848	0.3931	1	1	0.594	8	0	82
125	1	123	1	2	3	0.0848	0.3931	0	1	1.418	50	82	82
125	1	124	0	2	3	0.0848	0.3931	0	1	0.529	8	0	0
125	1	125	9	2	3	0.0848	0.3931	1	1	0.556	0	0	82
125	1	126	0	2	2	0.0848	0.3931	0	1	0.656	7	0	0
125	1	127	0	1	3	0.0848	0.3931	0	0	1.130	0	0	0
125	1	128	1	2	2	0.0848	0.3931	0	1	0.846	50	82	82
125	1	129	0	1	1	0.0848	0.3931	0	1	0.558	8	0	0
125	1	130	0	2	3	0.0848	0.3931	0	0	0.810	0	0	0
125	1	131	1	2	3	0.0848	0.3931	1	1	0.802	55	0	82
125	1	132	0	2	1	0.0848	0.3931	1	1	0.781	6	82	0
125	1	133	0	2	2	0.0848	0.3931	1	1	0.518	8	82	0
125	1	134	0	2	2	0.0848	0.3931	0	1	0.674	7	0	0
125	1	135	1	1	1	0.0848	0.3931	0	1	1.009	50	82	82
125	1	136	0	1	3	0.0848	0.3931	1	1	0.633	7	0	82
125	1	137	9	2	2	0.0848	0.3931	0	1	0.843	0	82	82
125	1	138	0	1	3	0.0848	0.3931	1	1	0.962	5	0	82
125	1	139	9	1	1	0.0848	0.3931	1	1	0.995	0	0	82
125	1	140	0	2	1	0.0848	0.3931	1	1	0.803	5	82	0
125	1	141	1	2	3	0.0848	0.3931	0	1	0.965	50	82	82
125	1	142	9	2	2	0.0848	0.3931	1	1	0.574	0	82	0
125	1	143	0	2	2	0.0848	0.3931	0	0	1.096	0	0	0
125	1	144	0	1	1	0.0848	0.3931	0	0	0.989	0	0	0
125	1	145	1	1	2	0.0848	0.3931	0	0	1.015	0	82	82
125	1	146	0	2	1	0.0848	0.3931	0	1	0.729	6	0	0
125	1	147	1	2	2	0.0848	0.3931	1	1	0.557	79	0	82
125	1	148	0	1	3	0.0848	0.3931	1	1	0.914	5	0	82
125	1	149	1	2	2	0.0848	0.3931	0	1	0.648	70	82	82
125	1	150	0	1	1	0.0848	0.3931	0	1	0.608	7	0	0
125	1	151	1	1	3	0.0848	0.3931	1	1	1.647	50	82	0
125	1	152	1	2	2	0.0848	0.3931	1	1	0.510	84	0	82
125	1	153	0	2	2	0.0848	0.3931	0	1	0.563	8	0	0
125	1	154	9	1	3	0.0848	0.3931	0	1	0.541	0	82	82
125	1	155	0	2	2	0.0848	0.3931	0	0	0.841	0	0	0
125	1	156	9	1	3	0.0848	0.3931	0	1	0.561	0	82	82
125	1	157	0	2	3	0.0848	0.3931	0	1	2.116	5	0	0
125	1	158	0	2	3	0.0848	0.3931	1	1	0.793	6	82	0
125	1	159	1	2	2	0.0848	0.3931	0	0	1.058	0	82	82
125	1	160	1	1	3	0.0848	0.3931	1	0	0.507	0	82	0
125	1	161	0	1	1	0.0848	0.3931	1	1	1.340	5	0	82
125	1	162	1	1	3	0.0848	0.3931	0	1	0.930	50	82	82
125	1	163	0	2	3	0.0848	0.3931	0	0	1.000	0	0	0
125	1	164	1	1	1	0.0848	0.3931	1	1	0.659	69	82	0
125	1	165	0	1	1	0.0848	0.3931	0	1	0.628	7	0	0
125	1	166	0	1	2	0.0848	0.3931	0	1	0.523	8	0	0
125	1	167	0	1	1	0.0848	0.3931	0	1	0.437	9	0	0
125	1	168	0	2	3	0.0848	0.3931	1	1	0.548	8	82	0
125	1	169	1	2	2	0.0848	0.3931	1	1	0.544	81	0	82
125	1	170	1	2	3	0.0848	0.3931	0	0	0.780	0	82	82
125	1	171	1	2	3	0.0848	0.3931	0	1	0.920	50	82	82
125	1	172	0	2	2	0.0848	0.3931	1	1	0.399	10	82	0
125	1	173	1	2	2	0.0848	0.3931	0	1	0.527	82	82	82
125	1	174	0	2	2	0.0848	0.3931	0	1	1.393	5	0	0
125	1	175	9	2	2	0.0848	0.3931	1	1	0.825	0	0	82
125	1	176	9	1	3	0.0848	0.3931	0	1	0.776	0	0	0
125	1	177	1	1	2	0.0848	0.3931	0	1	0.803	55	82	82
125	1	178	1	1	1	0.0848	0.3931	0	1	0.782	57	82	82
125	1	179	1	2	3	0.0848	0.3931	0	1	0.831	52	82	82
125	1	180	0	2	2	0.0848	0.3931	1	1	0.817	5	82	0
125	1	181	0	1	1	0.0848	0.3931	0	1	0.613	7	0	0
125	1	182	1	1	3	0.0848	0.3931	1	1	0.695	65	82	0
125	1	183	9	1	1	0.0848	0.3931	1	1	0.604	0	82	0
125	1	184	0	2	3	0.0848	0.3931	1	1	1.512	5	82	0
125	1	185	0	2	2	0.0848	0.3931	1	1	0.550	8	82	0
125	1	186	1	2	3	0.0848	0.3931	0	0	0.991	0	82	82
125	1	187	1	1	3	0.0848	0.3931	1	1	1.169	50	82	0
125	1	188	0	1	3	0.0848	0.3931	1	1	0.517	8	0	82
125	1	189	1	2	3	0.0848	0.3931	0	1	0.784	57	82	82
125	1	190	0	1	1	0.0848	0.3931	1	1	0.484	9	0	82
125	1	191	0	1	1	0.0848	0.3931	1	1	0.490	9	0	82
125	1	192	9	2	2	0.0848	0.3931	0	1	1.226	0	82	82
125	1	193	1	1	3	0.0848	0.3931	0	0	0.698	0	82	82
125	1	194	1	2	2	0.0848	0.3931	1	1	0.967	50	0	82
125	1	195	0	2	3	0.0848	0.3931	0	0	0.803	0	0	0
125	1	196	1	2	3	0.0848	0.3931	1	1	0.860	50	0	82
125	1	197	1	2	3	0.0848	0.3931	1	1	0.844	51	0	82
125	1	198	1	2	2	0.0848	0.3931	0	0	0.756	0	82	82
125	1	199	1	1	1	0.0848	0.3931	0	0	0.950	0	82	82
125	1	200	1	1	1	0.0848	0.3931	1	1	0.977	50	82	0
125	1	201	0	1	1	0.0848	0.3931	0	0	0.896	0	0	0
125	1	202	0	1	3	0.0848	0.3931	0	1	0.771	6	0	0
125	1	203	0	2	2	0.0848	0.3931	0	1	1.916	5	0	0
125	1	204	9	2	2	0.0848	0.3931	1	1	0.856	0	0	82
125	1	205	1	2	3	0.0848	0.3931	1	1	0.663	69	0	82
125	1	206	1	1	1	0.0848	0.3931	0	0	0.895	0	82	82
125	1	207	0	2	3	0.0848	0.3931	0	1	0.781	6	0	0
125	1	208	9	2	3	0.0848	0.3931	1	1	0.583	0	82	0
125	1	209	0	1	2	0.0848	0.3931	1	1	0.946	5	0	82
125	1	210	0	2	2	0.0848	0.3931	1	1	0.598	8	82	0
125	1	211	1	2	3	0.0848	0.3931	0	1	0.855	50	82	82
125	1	212	9	2	1	0.0848	0.3931	1	1	0.568	0	82	0
125	1	213	0	1	1	0.0848	0.3931	0	1	0.866	5	0	0
125	1	214	9	2	1	0.0848	0.3931	0	0	1.153	0	82	82
125	1	215	1	2	2	0.0848	0.3931	0	1	0.886	50	82	82
125	1	216	1	2	2	0.0848	0.3931	1	1	1.091	50	0	82
125	1	217	0	2	2	0.0848	0.3931	0	1	0.792	6	0	0
125	1	218	1	1	1	0.0848	0.3931	1	1	0.856	50	82	0
125	1	219	0	2	3	0.0848	0.3931	0	1	0.848	5	0	0
125	1	220	9	1	3	0.0848	0.3931	0	1	0.582	0	0	0
125	1	221	0	2	3	0.0848	0.3931	0	1	0.853	5	0	0
125	1	222	0	2	3	0.0848	0.3931	0	1	0.740	6	0	0
125	1	223	9	1	3	0.0848	0.3931	1	1	0.632	0	0	82
125	1	224	0	1	1	0.0848	0.3931	0	1	0.823	5	0	0
125	1	225	9	1	3	0.0848	0.3931	1	1	0.801	0	0	82
125	1	226	9	1	3	0.0848	0.3931	1	1	0.972	0	82	0
125	1	227	0	1	3	0.0848	0.3931	0	1	0.807	5	0	0
125	1	228	0	2	3	0.0848	0.3931	1	1	0.912	5	82	0
125	1	229	1	1	3	0.0848	0.3931	1	1	0.859	50	82	0
125	1	230	0	1	1	0.0848	0.3931	1	1	0.484	9	0	82
125	1	231	0	1	3	0.0848	0.3931	0	0	0.708	0	0	0
125	1	232	9	2	3	0.0848	0.3931	0	1	1.464	0	82	82
125	1	233	1	2	3	0.0848	0.3931	1	1	0.708	64	0	82
125	1	234	1	2	1	0.0848	0.3931	1	1	0.475	88	0	82
125	1	235	1	1	3	0.0848	0.3931	1	1	0.777	57	82	0
125	1	236	9	1	3	0.0848	0.3931	0	1	0.693	0	82	82
125	1	237	1	1	1	0.0848	0.3931	0	0	0.715	0	82	82
125	1	238	0	1	3	0.0848	0.3931	0	1	0.738	6	0	0
125	1	239	0	1	3	0.0848	0.3931	0	1	0.628	7	0	0
125	1	240	9	1	1	0.0848	0.3931	0	1	0.508	0	82	82
125	1	241	0	2	3	0.0848	0.3931	1	1	1.095	5	82	0
125	1	242	1	2	1	0.0848	0.3931	0	0	0.763	0	82	82
125	1	243	1	1	1	0.0848	0.3931	1	0	0.792	0	82	0
125	1	244	9	2	2	0.0848	0.3931	0	0	0.665	0	0	0
125	1	245	9	1	3	0.0848	0.3931	1	1	0.576	0	82	0
125	1	246	0	1	3	0.0848	0.3931	1	1	0.602	7	0	82
125	1	247	0	1	1	0.0848	0.3931	0	0	0.514	0	0	0
125	1	248	0	1	2	0.0848	0.3931	1	1	0.678	7	0	82
125	1	249	0	1	1	0.0848	0.3931	1	1	0.381	10	0	82
125	1	250	9	2	2	0.0848	0.3931	0	0	0.520	0	0	0
125	1	251	9	1	1	0.0848	0.3931	0	0	0.603	0	82	82
125	1	252	9	2	3	0.0848	0.3931	1	1	0.558	0	0	82
125	1	253	9	2	3	0.0848	0.3931	0	0	0.600	0	0	0
125	1	254	9	2	3	0.0848	0.3931	0	1	0.416	0	0	0
125	1	255	1	2	2	0.0848	0.3931	1	1	0.425	92	0	82
125	1	256	0	2	2	0.0848	0.3931	0	1	0.809	5	0	0
125	1	257	9	1	2	0.0848	0.3931	1	1	0.572	0	0	82
125	1	258	0	2	2	0.0848	0.3931	0	1	0.925	5	0	0
125	1	259	1	1	1	0.0848	0.3931	0	1	0.505	84	82	82
125	1	260	9	1	1	0.0848	0.3931	0	1	1.014	0	82	82
125	1	261	0	2	3	0.0848	0.3931	0	0	0.672	0	0	0
125	1	262	0	1	1	0.0848	0.3931	1	1	0.591	8	0	82
125	1	263	0	2	2	0.0848	0.3931	1	1	0.521	8	82	0
125	1	264	1	1	2	0.0848	0.3931	0	0	0.703	0	82	82
125	1	265	0	1	3	0.0848	0.3931	1	1	0.437	9	0	82
125	1	266	1	2	2	0.0848	0.3931	1	1	0.636	71	0	82
125	1	267	0	1	2	0.0848	0.3931	1	1	0.395	10	0	82
125	1	268	0	2	3	0.0848	0.3931	1	1	0.484	9	82	0
125	1	269	9	1	2	0.0848	0.3931	1	1	1.114	0	82	0
125	1	270	1	1	2	0.0848	0.3931	0	0	1.110	0	82	82
125	1	271	1	1	3	0.0848	0.3931	0	0	0.781	0	82	82
125	1	272	1	2	3	0.0848	0.3931	1	1	1.176	50	0	82
125	1	273	9	2	3	0.0848	0.3931	1	1	0.394	0	82	0
125	1	274	1	2	3	0.0848	0.3931	1	1	0.620	73	0	82
125	1	275	9	2	2	0.0848	0.3931	1	1	0.558	0	0	82
125	1	276	1	1	1	0.0848	0.3931	1	1	0.985	50	82	0
125	1	277	0	2	3	0.0848	0.3931	1	1	0.405	9	82	0
125	1	278	0	2	2	0.0848	0.3931	1	1	0.407	9	82	0
125	1	279	1	1	1	0.0848	0.3931	1	1	0.569	78	82	0
125	1	280	0	2	2	0.0848	0.3931	1	1	0.395	10	82	0
125	1	281	0	2	3	0.0848	0.3931	1	1	0.635	7	82	0
125	1	282	1	1	1	0.0848	0.3931	1	1	0.339	100	82	0
125	1	283	1	2	2	0.0848	0.3931	1	1	0.361	99	0	82
125	1	284	1	1	3	0.0848	0.3931	0	1	1.004	50	82	82
125	1	285	9	1	3	0.0848	0.3931	1	1	0.643	0	82	0
125	1	286	1	2	3	0.0848	0.3931	0	0	0.453	0	82	82
125	1	287	1	1	3	0.0848	0.3931	0	1	0.771	58	82	82
125	1	288	1	1	1	0.0848	0.3931	0	0	0.878	0	82	82
125	1	289	0	2	2	0.0848	0.3931	1	1	0.508	8	82	0
125	1	290	1	1	3	0.0848	0.3931	1	1	0.635	72	82	0
125	1	291	0	1	1	0.0848	0.3931	0	1	0.620	7	0	0
125	1	292	0	2	1	0.0848	0.3931	0	1	1.167	5	0	0
125	1	293	1	2	2	0.0848	0.3931	1	1	0.657	69	0	82
125	1	294	9	1	3	0.0848	0.3931	1	1	0.514	0	0	82
125	1	295	0	2	2	0.0848	0.3931	0	1	1.000	5	0	0
125	1	296	1	1	3	0.0848	0.3931	0	1	0.872	50	82	82
125	1	297	1	1	1	0.0848	0.3931	1	1	0.840	51	82	0
125	1	298	0	1	2	0.0848	0.3931	1	1	0.553	8	0	82
125	1	299	1	2	2	0.0848	0.3931	0	1	0.805	54	82	82
125	1	300	0	2	3	0.0848	0.3931	1	1	0.663	7	82	0
125	1	301	0	2	2	0.0848	0.3931	1	1	0.469	9	82	0
125	1	302	1	2	3	0.0848	0.3931	1	1	0.420	93	0	82
125	1	303	1	2	2	0.0848	0.3931	0	1	0.580	77	82	82
125	1	304	1	1	1	0.0848	0.3931	0	1	0.511	84	82	82
125	1	305	0	2	3	0.0848	0.3931	0	0	0.825	0	0	0
125	1	306	1	1	3	0.0848	0.3931	1	1	0.905	50	82	0
125	1	307	9	2	2	0.0848	0.3931	1	1	0.565	0	82	0
125	1	308	9	1	3	0.0848	0.3931	1	1	0.799	0	82	0
125	1	309	0	1	3	0.0848	0.3931	1	1	0.593	8	0	82
125	1	310	0	1	1	0.0848	0.3931	1	1	0.986	5	0	82
125	1	311	0	1	3	0.0848	0.3931	1	1	0.430	9	0	82
125	1	312	0	1	1	0.0848	0.3931	1	1	0.552	8	0	82
125	1	313	1	1	3	0.0848	0.3931	1	1	0.626	72	82	0
125	1	314	1	1	2	0.0848	0.3931	1	1	0.459	89	82	0
125	1	315	1	2	2	0.0848	0.3931	0	1	0.851	50	82	82
125	1	316	9	2	2	0.0848	0.3931	0	1	0.649	0	0	0
125	1	317	9	1	1	0.0848	0.3931	1	1	0.607	0	0	82
125	1	318	9	1	2	0.0848	0.3931	0	0	0.831	0	0	0
125	1	319	1	1	1	0.0848	0.3931	1	1	0.784	57	82	0
125	1	320	9	2	2	0.0848	0.3931	1	1	0.684	0	82	0
125	1	321	9	2	3	0.0848	0.3931	0	0	1.021	0	0	0
125	1	322	1	2	2	0.0848	0.3931	0	0	0.815	0	82	82
125	1	323	0	2	2	0.0848	0.3931	1	1	0.456	9	82	0
125	1	324	1	2	3	0.0848	0.3931	1	1	0.743	61	0	82
125	1	325	0	2	2	0.0848	0.3931	1	1	0.468	9	82	0
125	1	326	1	2	3	0.0848	0.3931	1	1	0.428	92	0	82
125	1	327	9	2	2	0.0848	0.3931	0	1	0.545	0	82	82
125	1	328	1	2	2	0.0848	0.3931	1	1	0.715	63	0	82
125	1	329	0	1	3	0.0848	0.3931	0	1	1.007	5	0	0
125	1	330	0	1	1	0.0848	0.3931	1	1	0.634	7	0	82
125	1	331	1	2	2	0.0848	0.3931	0	1	1.100	50	82	82
125	1	332	9	2	3	0.0848	0.3931	0	1	0.761	0	82	82
125	1	333	0	1	3	0.0848	0.3931	0	1	0.507	8	0	0
125	1	334	9	1	1	0.0848	0.3931	1	1	0.810	0	82	0
125	1	335	0	2	1	0.0848	0.3931	0	1	0.457	9	0	0
125	1	336	1	2	3	0.0848	0.3931	1	1	0.649	70	0	82
125	1	337	1	2	3	0.0848	0.3931	1	1	1.096	50	0	82
125	1	338	1	2	2	0.0848	0.3931	0	1	0.828	52	82	82
125	1	339	0	1	3	0.0848	0.3931	1	1	0.548	8	0	82
125	1	340	9	1	1	0.0848	0.3931	1	1	0.512	0	0	82
125	1	341	0	2	3	0.0848	0.3931	0	1	0.934	5	0	0
125	1	342	9	1	1	0.0848	0.3931	0	1	0.539	0	0	0
125	1	343	1	2	2	0.0848	0.3931	0	1	0.743	61	82	82
125	1	344	1	2	3	0.0848	0.3931	0	1	0.571	78	82	82
125	1	345	0	2	3	0.0848	0.3931	1	0	0.476	0	82	0
125	1	346	1	2	2	0.0848	0.3931	1	1	0.699	65	0	82
125	1	347	0	2	3	0.0848	0.3931	0	0	0.522	0	0	0
125	1	348	0	1	3	0.0848	0.3931	0	1	1.006	5	0	0
125	1	349	0	1	2	0.0848	0.3931	0	1	0.726	6	0	0
125	1	350	0	1	1	0.0848	0.3931	0	1	0.722	6	0	0
125	1	351	1	1	1	0.0848	0.3931	0	1	0.439	91	82	82
125	1	352	9	1	3	0.0848	0.3931	0	1	0.752	0	82	82
125	1	353	0	2	2	0.0848	0.3931	0	1	1.066	5	0	0
125	1	354	0	1	3	0.0848	0.3931	1	1	0.882	5	0	82
125	1	355	1	1	1	0.0848	0.3931	0	1	0.978	50	82	82
125	1	356	1	1	3	0.0848	0.3931	1	1	0.962	50	82	0
125	1	357	0	2	1	0.0848	0.3931	1	1	0.427	9	82	0
125	1	358	1	2	1	0.0848	0.3931	1	1	0.449	90	0	82
125	1	359	0	2	3	0.0848	0.3931	1	1	0.447	9	82	0
125	1	360	9	2	2	0.0848	0.3931	1	1	0.389	0	82	0
125	1	361	0	1	2	0.0848	0.3931	0	0	0.670	0	0	0
125	1	362	0	2	2	0.0848	0.3931	0	1	0.860	5	0	0
125	1	363	9	2	2	0.0848	0.3931	1	1	0.522	0	0	82
125	1	364	1	1	1	0.0848	0.3931	0	0	0.734	0	82	82
125	1	365	1	1	2	0.0848	0.3931	1	1	1.220	50	82	0
125	1	366	1	2	3	0.0848	0.3931	1	1	0.838	51	0	82
125	1	367	0	2	3	0.0848	0.3931	0	1	0.780	6	0	0
125	1	368	0	2	2	0.0848	0.3931	0	1	0.661	7	0	0
125	1	369	1	1	1	0.0848	0.3931	0	0	0.826	0	82	82
125	1	370	9	1	3	0.0848	0.3931	0	1	0.986	0	0	0
125	1	371	0	2	2	0.0848	0.3931	0	1	0.540	8	0	0
125	1	372	9	2	2	0.0848	0.3931	1	1	0.585	0	82	0
125	1	373	1	2	3	0.0848	0.3931	0	1	0.409	94	82	82
125	1	374	1	2	3	0.0848	0.3931	0	1	0.464	89	82	82
125	1	375	0	1	3	0.0848	0.3931	1	1	0.637	7	0	82
125	1	376	9	2	3	0.0848	0.3931	0	0	0.358	0	0	0
125	1	377	1	1	3	0.0848	0.3931	0	0	0.585	0	82	82
125	1	378	9	2	2	0.0848	0.3931	1	1	0.490	0	0	82
125	1	379	0	2	3	0.0848	0.3931	1	1	0.458	9	82	0
125	1	380	1	2	2	0.0848	0.3931	1	1	0.408	94	0	82
125	1	381	9	1	3	0.0848	0.3931	0	0	0.514	0	0	0
125	1	382	0	2	2	0.0848	0.3931	0	1	1.182	5	0	0
125	1	383	9	1	3	0.0848	0.3931	0	1	1.143	0	82	82
125	1	384	0	1	1	0.0848	0.3931	1	1	0.627	7	0	82
125	1	385	0	2	2	0.0848	0.3931	0	1	0.844	5	0	0
125	1	386	0	1	3	0.0848	0.3931	1	1	0.941	5	0	82
125	1	387	0	2	2	0.0848	0.3931	0	0	1.137	0	0	0
125	1	388	0	2	2	0.0848	0.3931	1	1	0.484	9	82	0
125	1	389	0	2	2	0.0848	0.3931	1	1	0.435	9	82	0
125	1	390	0	2	1	0.0848	0.3931	1	1	0.379	10	82	0
125	1	391	1	2	2	0.0848	0.3931	1	1	0.795	55	0	82
125	1	392	9	2	3	0.0848	0.3931	1	1	0.356	0	0	82
125	1	393	0	1	2	0.0848	0.3931	1	1	0.623	7	0	82
125	1	394	0	1	3	0.0848	0.3931	0	0	0.714	0	0	0
125	1	395	0	1	3	0.0848	0.3931	0	1	1.032	5	0	0
125	1	396	0	2	3	0.0848	0.3931	1	1	0.599	8	82	0
125	1	397	9	1	1	0.0848	0.3931	0	0	0.719	0	0	0
125	1	398	1	2	3	0.0848	0.3931	0	0	0.467	0	82	82
125	1	399	1	2	1	0.0848	0.3931	0	1	0.776	57	82	82
125	1	400	0	2	2	0.0848	0.3931	1	1	0.468	9	82	0
125	1	401	9	1	1	0.0848	0.3931	1	1	0.830	0	82	0
125	1	402	1	1	1	0.0848	0.3931	1	1	0.789	56	82	0
125	1	403	0	1	3	0.0848	0.3931	0	0	0.728	0	0	0
125	1	404	1	1	1	0.0848	0.3931	1	1	0.803	55	82	0
125	1	405	9	1	1	0.0848	0.3931	0	0	0.892	0	0	0
125	1	406	0	2	3	0.0848	0.3931	1	1	0.786	6	82	0
125	1	407	1	2	2	0.0848	0.3931	1	1	0.788	56	0	82
125	1	408	1	1	1	0.0848	0.3931	1	1	0.760	59	82	0
125	1	409	9	1	1	0.0848	0.3931	1	1	0.785	0	0	82
125	1	410	9	2	2	0.0848	0.3931	0	0	0.740	0	82	82
125	1	411	1	1	3	0.0848	0.3931	0	0	0.921	0	82	82
125	1	412	0	1	1	0.0848	0.3931	1	0	0.952	0	0	82
125	1	413	9	2	1	0.0848	0.3931	1	1	0.771	0	0	82
125	1	414	1	2	2	0.0848	0.3931	1	1	0.422	93	0	82
125	1	415	0	1	1	0.0848	0.3931	0	0	0.718	0	0	0
125	1	416	0	1	3	0.0848	0.3931	0	1	1.289	5	0	0
125	1	417	1	1	3	0.0848	0.3931	1	1	0.943	50	82	0
125	1	418	1	1	3	0.0848	0.3931	0	0	0.787	0	82	82
125	1	419	0	2	2	0.0848	0.3931	0	1	1.078	5	0	0
125	1	420	0	2	2	0.0848	0.3931	1	1	0.636	7	82	0
125	1	421	1	1	1	0.0848	0.3931	0	0	2.086	0	82	82
125	1	422	0	1	1	0.0848	0.3931	0	0	0.562	0	0	0
125	1	423	0	1	3	0.0848	0.3931	0	1	0.652	7	0	0
125	1	424	0	2	1	0.0848	0.3931	0	1	0.506	8	0	0
125	1	425	1	1	1	0.0848	0.3931	1	1	0.889	50	82	0
125	1	426	0	2	3	0.0848	0.3931	1	1	0.845	5	82	0
125	1	427	0	1	1	0.0848	0.3931	1	1	0.486	9	0	82
125	1	428	9	2	3	0.0848	0.3931	0	1	1.147	0	0	0
125	1	429	0	1	3	0.0848	0.3931	0	1	1.055	5	0	0
125	1	430	0	2	3	0.0848	0.3931	1	1	0.461	9	82	0
125	1	431	0	2	3	0.0848	0.3931	0	1	0.842	5	0	0
125	1	432	0	1	3	0.0848	0.3931	0	0	0.783	0	0	0
125	1	433	1	2	3	0.0848	0.3931	1	1	0.833	52	0	82
125	1	434	0	1	3	0.0848	0.3931	1	1	0.569	8	0	82
125	1	435	0	1	1	0.0848	0.3931	1	1	0.772	6	0	82
125	1	436	1	2	3	0.0848	0.3931	1	1	0.464	89	0	82
125	1	437	0	1	3	0.0848	0.3931	0	1	1.169	5	0	0
125	1	438	0	2	3	0.0848	0.3931	1	1	0.900	5	82	0
125	1	439	0	1	3	0.0848	0.3931	1	1	0.961	5	0	82
125	1	440	0	2	3	0.0848	0.3931	0	1	0.620	7	0	0
125	1	441	1	2	3	0.0848	0.3931	0	0	4.504	0	82	82
125	1	442	0	2	3	0.0848	0.3931	0	1	0.885	5	0	0
125	1	443	1	1	3	0.0848	0.3931	1	1	0.843	51	82	0
125	1	444	0	1	3	0.0848	0.3931	0	0	1.074	0	0	0
125	1	445	0	2	2	0.0848	0.3931	0	1	0.871	5	0	0
125	1	446	0	1	1	0.0848	0.3931	0	0	0.727	0	0	0
125	1	447	0	1	2	0.0848	0.3931	1	1	0.562	8	0	82
125	1	448	1	2	2	0.0848	0.3931	1	1	0.790	56	0	82
125	1	449	1	1	1	0.0848	0.3931	1	1	0.922	50	82	0
125	1	450	0	1	3	0.0848	0.3931	1	1	0.621	7	0	82
125	1	451	9	2	3	0.0848	0.3931	0	1	0.901	0	0	0
125	1	452	0	1	2	0.0848	0.3931	1	1	0.521	8	0	82
125	1	453	0	2	2	0.0848	0.3931	0	0	0.605	0	0	0
125	1	454	1	2	2	0.0848	0.3931	0	1	0.461	89	82	82
125	1	455	0	1	1	0.0848	0.3931	0	1	0.820	5	0	0
125	1	456	0	2	3	0.0848	0.3931	0	1	0.597	8	0	0
125	1	457	1	1	1	0.0848	0.3931	1	1	0.807	54	82	0
125	1	458	0	2	2	0.0848	0.3931	0	1	0.895	5	0	0
125	1	459	1	1	1	0.0848	0.3931	0	0	1.125	0	82	82
125	1	460	0	1	2	0.0848	0.3931	0	1	0.618	7	0	0
125	1	461	0	2	2	0.0848	0.3931	0	0	0.515	0	0	0
125	1	462	9	2	1	0.0848	0.3931	1	1	0.745	0	82	0
125	1	463	9	2	2	0.0848	0.3931	0	0	0.821	0	82	82
125	1	464	1	1	1	0.0848	0.3931	0	0	0.660	0	82	82
125	1	465	1	1	3	0.0848	0.3931	0	0	0.739	0	82	82
125	1	466	1	2	3	0.0848	0.3931	0	1	0.927	50	82	82
125	1	467	0	1	1	0.0848	0.3931	1	1	0.580	8	0	82
125	1	468	9	1	1	0.0848	0.3931	1	0	0.902	0	82	0
125	1	469	9	2	2	0.0848	0.3931	0	1	1.924	0	82	82
125	1	470	0	2	1	0.0848	0.3931	0	1	0.577	8	0	0
125	1	471	0	1	3	0.0848	0.3931	0	1	0.556	8	0	0
125	1	472	9	2	3	0.0848	0.3931	1	1	0.632	0	82	0
125	1	473	1	2	1	0.0848	0.3931	1	1	0.593	76	0	82
125	1	474	1	2	3	0.0848	0.3931	0	0	0.658	0	82	82
125	1	475	0	1	3	0.0848	0.3931	0	1	0.728	6	0	0
125	1	476	1	2	3	0.0848	0.3931	1	1	0.724	63	0	82
125	1	477	1	2	2	0.0848	0.3931	0	0	0.689	0	82	82
125	1	478	0	2	3	0.0848	0.3931	1	1	0.440	9	82	0
125	1	479	9	2	2	0.0848	0.3931	1	1	0.689	0	82	0
125	1	480	9	1	3	0.0848	0.3931	0	1	0.535	0	82	82
125	1	481	9	1	3	0.0848	0.3931	1	1	0.587	0	0	82
125	1	482	0	2	2	0.0848	0.3931	0	0	0.604	0	0	0
125	1	483	0	1	1	0.0848	0.3931	0	0	1.125	0	0	0
125	1	484	1	1	3	0.0848	0.3931	0	1	0.566	78	82	82
125	1	485	9	2	3	0.0848	0.3931	1	1	1.200	0	0	82
125	1	486	9	2	2	0.0848	0.3931	0	0	0.707	0	0	0
125	1	487	1	1	3	0.0848	0.3931	0	0	0.152	0	82	82
125	1	488	9	2	2	0.0848	0.3931	1	1	0.619	0	0	82
125	1	489	1	1	2	0.0848	0.3931	0	1	0.587	76	82	82
125	1	490	9	2	2	0.0848	0.3931	0	1	0.893	0	0	0
125	1	491	0	1	3	0.0848	0.3931	1	1	0.547	8	0	82
125	1	492	0	2	2	0.0848	0.3931	1	1	0.534	8	82	0
125	1	493	0	2	3	0.0848	0.3931	0	1	0.562	8	0	0
125	1	494	1	2	3	0.0848	0.3931	0	1	0.445	91	82	82
125	1	495	1	2	2	0.0848	0.3931	0	1	0.387	96	82	82
125	1	496	1	2	2	0.0848	0.3931	0	1	0.461	89	82	82
125	1	497	9	1	3	0.0848	0.3931	1	1	0.915	0	82	0
125	1	498	1	2	3	0.0848	0.3931	1	1	0.519	83	0	82
125	1	499	1	2	3	0.0848	0.3931	1	1	0.362	99	0	82
125	1	500	1	1	1	0.0848	0.3931	0	1	0.812	54	82	82
125	1	501	1	2	3	0.0848	0.3931	0	0	0.781	0	82	82
125	1	502	9	1	3	0.0848	0.3931	0	1	0.487	0	0	0
125	1	503	1	2	2	0.0848	0.3931	0	1	1.212	50	82	82
125	1	504	0	2	2	0.0848	0.3931	0	1	0.686	7	0	0
125	1	505	0	2	3	0.0848	0.3931	0	1	0.364	10	0	0
125	1	506	0	1	1	0.0848	0.3931	0	1	1.159	5	0	0
125	1	507	0	2	2	0.0848	0.3931	1	1	0.900	5	82	0
125	1	508	0	1	1	0.0848	0.3931	0	1	0.784	6	0	0
125	1	509	1	2	3	0.0848	0.3931	0	1	0.658	69	82	82
125	1	510	1	1	1	0.0848	0.3931	0	1	1.024	50	82	82
125	1	511	0	1	1	0.0848	0.3931	1	1	0.561	8	0	82
125	1	512	1	1	3	0.0848	0.3931	1	1	0.755	60	82	0
125	1	513	0	1	3	0.0848	0.3931	1	1	0.414	9	0	82
125	1	514	1	2	3	0.0848	0.3931	0	1	0.575	77	82	82
125	1	515	9	2	3	0.0848	0.3931	1	1	0.536	0	0	82
125	1	516	1	1	3	0.0848	0.3931	0	1	0.852	50	82	82
125	1	517	0	2	3	0.0848	0.3931	0	0	0.698	0	0	0
125	1	518	9	1	2	0.0848	0.3931	0	1	0.817	0	0	0
125	1	519	0	1	3	0.0848	0.3931	1	1	0.536	8	0	82
125	1	520	1	1	1	0.0848	0.3931	1	1	0.939	50	82	0
125	1	521	0	1	3	0.0848	0.3931	1	1	0.560	8	0	82
125	1	522	1	1	3	0.0848	0.3931	0	1	0.860	50	82	82
125	1	523	1	1	3	0.0848	0.3931	0	1	0.588	76	82	82
125	1	524	9	2	2	0.0848	0.3931	0	1	0.885	0	82	82
125	1	525	1	2	3	0.0848	0.3931	1	1	0.530	82	0	82
125	1	526	1	2	1	0.0848	0.3931	1	1	0.469	88	0	82
125	1	527	1	1	1	0.0848	0.3931	0	1	0.771	58	82	82
125	1	528	1	1	3	0.0848	0.3931	0	1	0.655	69	82	82
125	1	529	9	2	3	0.0848	0.3931	0	0	0.614	0	82	82
125	1	530	1	1	3	0.0848	0.3931	1	1	0.638	71	82	0
125	1	531	1	2	1	0.0848	0.3931	1	1	0.648	70	0	82
125	1	532	9	1	1	0.0848	0.3931	0	1	0.583	0	0	0
125	1	533	9	2	3	0.0848	0.3931	0	1	0.586	0	82	82
125	1	534	0	1	1	0.0848	0.3931	0	1	0.563	8	0	0
125	1	535	1	2	1	0.0848	0.3931	1	1	0.708	64	0	82
125	1	536	1	2	2	0.0848	0.3931	1	1	0.730	62	0	82
125	1	537	1	2	2	0.0848	0.3931	1	1	0.581	77	0	82
125	1	538	0	2	2	0.0848	0.3931	0	1	0.518	8	0	0
125	1	539	0	2	1	0.0848	0.3931	1	1	0.844	5	82	0
125	1	540	1	1	1	0.0848	0.3931	0	1	0.571	78	82	82
125	1	541	9	2	2	0.0848	0.3931	0	0	0.665	0	0	0
125	1	542	1	2	3	0.0848	0.3931	0	0	0.672	0	82	82
125	1	543	1	1	1	0.0848	0.3931	0	1	0.784	57	82	82
125	1	544	1	2	3	0.0848	0.3931	1	1	0.657	69	0	82
125	1	545	1	1	3	0.0848	0.3931	1	1	0.610	74	82	0
125	1	546	9	2	3	0.0848	0.3931	0	1	0.547	0	82	82
125	1	547	1	2	2	0.0848	0.3931	0	1	0.503	85	82	82
125	1	548	9	1	1	0.0848	0.3931	1	0	0.781	0	82	0
125	1	549	1	2	1	0.0848	0.3931	0	1	0.535	81	82	82
125	1	550	1	1	3	0.0848	0.3931	0	0	0.819	0	82	82
125	1	551	1	1	3	0.0848	0.3931	1	1	0.859	50	82	0
125	1	552	9	1	1	0.0848	0.3931	0	1	0.579	0	82	82
125	1	553	0	1	2	0.0848	0.3931	0	0	0.989	0	0	0
125	1	554	1	1	3	0.0848	0.3931	0	1	0.494	86	82	82
125	1	555	0	1	2	0.0848	0.3931	1	1	1.012	5	0	82
125	1	556	9	1	3	0.0848	0.3931	0	1	0.575	0	0	0
125	1	557	0	2	3	0.0848	0.3931	1	1	0.505	8	82	0
125	1	558	1	2	2	0.0848	0.3931	0	1	1.239	50	82	82
125	1	559	0	1	3	0.0848	0.3931	1	1	1.069	5	0	82
125	1	560	1	2	2	0.0848	0.3931	0	0	0.827	0	82	82
125	1	561	1	2	2	0.0848	0.3931	1	1	10.235	50	0	82
125	1	562	9	1	2	0.0848	0.3931	1	1	0.852	0	0	82
125	1	563	0	1	3	0.0848	0.3931	1	1	0.714	6	0	82
125	1	564	9	1	3	0.0848	0.3931	1	1	0.645	0	82	0
125	1	565	0	1	1	0.0848	0.3931	0	0	0.932	0	0	0
125	1	566	9	1	1	0.0848	0.3931	0	0	0.766	0	82	82
125	1	567	1	1	1	0.0848	0.3931	1	1	0.775	58	82	0
125	1	568	0	1	3	0.0848	0.3931	1	1	0.594	8	0	82
125	1	569	1	2	3	0.0848	0.3931	0	1	0.683	67	82	82
125	1	570	0	1	1	0.0848	0.3931	0	1	0.497	9	0	0
125	1	571	0	1	3	0.0848	0.3931	1	1	0.536	8	0	82
125	1	572	0	2	1	0.0848	0.3931	1	1	0.726	6	82	0
125	1	573	0	2	3	0.0848	0.3931	1	1	0.708	6	82	0
125	1	574	1	1	2	0.0848	0.3931	1	1	1.033	50	82	0
125	1	575	9	1	1	0.0848	0.3931	1	1	0.680	0	0	82
125	1	576	0	1	3	0.0848	0.3931	0	0	0.823	0	0	0
125	1	577	0	2	2	0.0848	0.3931	1	1	0.510	8	82	0
125	1	578	9	1	3	0.0848	0.3931	1	1	0.628	0	0	82
125	1	579	0	2	3	0.0848	0.3931	0	0	0.379	0	0	0
125	1	580	0	2	3	0.0848	0.3931	1	1	0.533	8	82	0
125	1	581	1	1	3	0.0848	0.3931	1	1	0.653	70	82	0
125	1	582	1	2	2	0.0848	0.3931	0	0	0.661	0	82	82
125	1	583	1	2	3	0.0848	0.3931	1	1	0.642	71	0	82
125	1	584	0	2	3	0.0848	0.3931	1	1	0.425	9	82	0
125	1	585	9	1	1	0.0848	0.3931	0	1	0.803	0	82	82
125	1	586	9	2	1	0.0848	0.3931	0	1	0.491	0	0	0
125	1	587	0	1	3	0.0848	0.3931	0	1	0.506	8	0	0
125	1	588	1	1	1	0.0848	0.3931	0	1	0.471	88	82	82
125	1	589	1	1	1	0.0848	0.3931	0	0	0.485	0	82	82
125	1	590	1	2	2	0.0848	0.3931	1	1	1.125	50	0	82
125	1	591	1	2	2	0.0848	0.3931	1	1	0.763	59	0	82
125	1	592	0	2	3	0.0848	0.3931	0	1	0.647	7	0	0
125	1	593	1	1	1	0.0848	0.3931	1	1	0.812	54	82	0
125	1	594	0	2	2	0.0848	0.3931	1	1	0.438	9	82	0
125	1	595	0	2	1	0.0848	0.3931	0	1	0.574	8	0	0
125	1	596	0	1	1	0.0848	0.3931	0	1	0.632	7	0	0
125	1	597	0	1	1	0.0848	0.3931	1	1	0.657	7	0	82
125	1	598	1	2	2	0.0848	0.3931	0	1	0.649	70	82	82
125	1	599	1	1	2	0.0848	0.3931	1	1	0.631	72	82	0
125	1	600	9	2	3	0.0848	0.3931	0	0	0.721	0	82	82
125	1	601	1	1	2	0.0848	0.3931	0	0	0.727	0	82	82
125	1	602	0	2	2	0.0848	0.3931	1	1	0.525	8	82	0
125	1	603	0	1	1	0.0848	0.3931	1	0	0.801	0	0	82
125	1	604	9	1	1	0.0848	0.3931	0	0	0.323	0	0	0
125	1	605	1	1	2	0.0848	0.3931	1	1	1.256	50	82	0
125	1	606	0	2	2	0.0848	0.3931	1	1	0.485	9	82	0
125	1	607	0	2	2	0.0848	0.3931	1	1	0.393	10	82	0
125	1	608	1	2	2	0.0848	0.3931	0	1	0.593	76	82	82
125	1	609	9	1	1	0.0848	0.3931	1	1	0.780	0	82	0
125	1	610	1	2	2	0.0848	0.3931	1	0	0.304	0	0	82
125	1	611	1	1	3	0.0848	0.3931	1	1	0.845	51	82	0
125	1	612	0	1	1	0.0848	0.3931	0	0	0.861	0	0	0
125	1	613	9	1	3	0.0848	0.3931	1	1	0.478	0	0	82
125	1	614	0	1	3	0.0848	0.3931	0	0	0.797	0	0	0
125	1	615	1	2	1	0.0848	0.3931	0	1	0.807	54	82	82
125	1	616	0	2	3	0.0848	0.3931	1	1	0.506	8	82	0
125	1	617	0	1	1	0.0848	0.3931	1	1	0.535	8	0	82
125	1	618	0	2	3	0.0848	0.3931	1	1	0.444	9	82	0
125	1	619	1	1	3	0.0848	0.3931	0	0	0.869	0	82	82
125	1	620	1	2	2	0.0848	0.3931	0	0	1.123	0	82	82
125	1	621	1	1	1	0.0848	0.3931	1	1	0.879	50	82	0
125	1	622	0	2	1	0.0848	0.3931	0	1	0.542	8	0	0
125	1	623	0	2	2	0.0848	0.3931	0	1	0.435	9	0	0
125	1	624	1	2	3	0.0848	0.3931	1	1	0.619	73	0	82
125	1	625	0	1	3	0.0848	0.3931	1	1	0.483	9	0	82
125	1	626	0	1	1	0.0848	0.3931	1	1	0.898	5	0	82
125	1	627	1	1	3	0.0848	0.3931	1	1	0.904	50	82	0
125	1	628	1	1	3	0.0848	0.3931	1	1	0.756	59	82	0
125	1	629	0	1	1	0.0848	0.3931	1	1	0.465	9	0	82
125	1	630	9	1	3	0.0848	0.3931	0	1	0.590	0	82	82
125	1	631	1	2	2	0.0848	0.3931	1	1	0.606	74	0	82
125	1	632	0	1	2	0.0848	0.3931	0	1	0.800	6	0	0
125	1	633	0	2	3	0.0848	0.3931	1	1	0.656	7	82	0
125	1	634	1	1	3	0.0848	0.3931	0	1	0.799	55	82	82
125	1	635	1	2	3	0.0848	0.3931	0	0	0.608	0	82	82
125	1	636	0	1	1	0.0848	0.3931	1	1	0.538	8	0	82
125	1	637	0	1	3	0.0848	0.3931	0	0	0.591	0	0	0
125	1	638	1	2	3	0.0848	0.3931	0	0	0.730	0	82	82
125	1	639	1	2	2	0.0848	0.3931	1	1	0.764	59	0	82
125	1	640	9	2	3	0.0848	0.3931	1	1	0.591	0	82	0
125	1	641	1	2	3	0.0848	0.3931	0	0	0.701	0	82	82
125	1	642	0	1	3	0.0848	0.3931	1	1	0.413	9	0	82
125	1	643	0	1	1	0.0848	0.3931	1	1	0.397	10	0	82
125	1	644	1	1	3	0.0848	0.3931	0	1	0.862	50	82	82
125	1	645	0	2	3	0.0848	0.3931	0	0	0.467	0	0	0
125	1	646	1	1	1	0.0848	0.3931	1	1	0.658	69	82	0
125	1	647	9	1	3	0.0848	0.3931	1	1	0.434	0	0	82
125	1	648	9	1	3	0.0848	0.3931	1	1	0.666	0	82	0
125	1	649	0	2	3	0.0848	0.3931	0	0	0.514	0	0	0
125	1	650	1	1	1	0.0848	0.3931	0	1	0.512	84	82	82
125	1	651	0	1	1	0.0848	0.3931	0	1	0.413	9	0	0
125	1	652	9	2	2	0.0848	0.3931	1	1	0.695	0	0	82
125	1	653	9	2	2	0.0848	0.3931	1	1	0.261	0	82	0
125	1	654	1	1	3	0.0848	0.3931	1	1	0.541	81	82	0
125	1	655	1	1	2	0.0848	0.3931	0	0	0.576	0	82	82
125	1	656	1	2	3	0.0848	0.3931	1	1	0.508	84	0	82
125	1	657	9	1	2	0.0848	0.3931	0	0	0.623	0	82	82
125	1	658	0	2	2	0.0848	0.3931	0	0	0.297	0	0	0
125	1	659	9	1	3	0.0848	0.3931	0	1	0.965	0	82	82
125	1	660	1	2	3	0.0848	0.3931	0	0	0.489	0	82	82
125	1	661	0	2	3	0.0848	0.3931	0	0	6.962	0	0	0
125	1	662	1	1	1	0.0848	0.3931	0	0	0.454	0	82	82
125	1	663	1	2	2	0.0848	0.3931	1	1	0.503	85	0	82
125	1	664	0	2	2	0.0848	0.3931	1	1	0.267	10	82	0
125	1	665	1	1	3	0.0848	0.3931	1	1	0.369	98	82	0
125	1	666	1	1	1	0.0848	0.3931	1	1	0.298	100	82	0
125	1	667	0	2	3	0.0848	0.3931	0	1	0.753	6	0	0
125	1	668	1	2	3	0.0848	0.3931	1	1	0.540	81	0	82
125	1	669	1	2	2	0.0848	0.3931	0	1	0.450	90	82	82
125	1	670	0	2	3	0.0848	0.3931	0	1	0.665	7	0	0
125	1	671	0	2	3	0.0848	0.3931	0	1	0.399	10	0	0
125	1	672	1	2	3	0.0848	0.3931	1	1	0.522	83	0	82
125	1	673	9	1	2	0.0848	0.3931	1	1	0.768	0	82	0
125	1	674	1	1	3	0.0848	0.3931	0	0	0.786	0	82	82
125	1	675	1	1	1	0.0848	0.3931	1	0	0.748	0	82	0
125	1	676	1	2	2	0.0848	0.3931	0	0	0.406	0	82	82
125	1	677	1	1	1	0.0848	0.3931	1	0	0.646	0	82	0
125	1	678	9	2	2	0.0848	0.3931	1	1	0.399	0	82	0
125	1	679	0	2	1	0.0848	0.3931	1	1	0.370	10	82	0
125	1	680	0	2	3	0.0848	0.3931	1	1	0.702	6	82	0
125	1	681	0	1	1	0.0848	0.3931	1	1	0.683	7	0	82
125	1	682	0	1	1	0.0848	0.3931	0	0	0.282	0	0	0
125	1	683	1	2	2	0.0848	0.3931	0	0	0.370	0	82	82
125	1	684	0	2	2	0.0848	0.3931	1	1	0.471	9	82	0
125	1	685	1	1	1	0.0848	0.3931	1	1	0.654	70	82	0
125	1	686	0	2	3	0.0848	0.3931	1	1	0.335	10	82	0
125	1	687	9	1	1	0.0848	0.3931	0	0	0.619	0	82	82
125	1	688	1	1	3	0.0848	0.3931	1	1	0.627	72	82	0
125	1	689	1	1	1	0.0848	0.3931	0	0	0.795	0	82	82
125	1	690	1	2	3	0.0848	0.3931	1	1	0.574	78	0	82
125	1	691	1	1	3	0.0848	0.3931	1	1	0.689	66	82	0
125	1	692	1	2	2	0.0848	0.3931	1	1	0.398	95	0	82
125	1	693	9	2	3	0.0848	0.3931	1	1	0.302	0	82	0
125	1	694	0	2	2	0.0848	0.3931	1	1	0.445	9	82	0
125	1	695	1	2	3	0.0848	0.3931	1	1	0.549	80	0	82
125	1	696	9	2	3	0.0848	0.3931	1	1	0.319	0	82	0
125	1	697	0	1	3	0.0848	0.3931	1	1	0.452	9	0	82
125	1	698	1	1	3	0.0848	0.3931	1	1	0.898	50	82	0
125	1	699	1	1	3	0.0848	0.3931	1	1	0.954	50	82	0
125	1	700	1	2	3	0.0848	0.3931	1	1	0.428	92	0	82
125	1	701	0	1	1	0.0848	0.3931	0	0	0.595	0	0	0
125	1	702	9	1	3	0.0848	0.3931	1	1	0.573	0	82	0
125	1	703	0	1	1	0.0848	0.3931	1	1	0.504	8	0	82
125	1	704	1	1	1	0.0848	0.3931	0	0	0.551	0	82	82
125	1	705	9	1	1	0.0848	0.3931	1	1	0.386	0	0	82
125	1	706	9	2	2	0.0848	0.3931	0	0	0.404	0	0	0
125	1	707	9	2	1	0.0848	0.3931	0	0	0.484	0	82	82
125	1	708	0	1	1	0.0848	0.3931	1	1	0.412	9	0	82
125	1	709	1	2	1	0.0848	0.3931	0	1	0.869	50	82	82
125	1	710	0	1	3	0.0848	0.3931	0	1	0.476	9	0	0
125	1	711	9	2	3	0.0848	0.3931	0	0	0.675	0	0	0
125	1	712	1	2	2	0.0848	0.3931	0	1	0.416	93	82	82
125	1	713	1	1	2	0.0848	0.3931	0	1	0.840	51	82	82
125	1	714	1	2	2	0.0848	0.3931	1	1	0.615	73	0	82
125	1	715	9	2	3	0.0848	0.3931	1	1	0.441	0	0	82
125	1	716	1	1	1	0.0848	0.3931	1	1	0.744	61	82	0
125	1	717	0	1	1	0.0848	0.3931	0	1	0.691	7	0	0
125	1	718	9	1	1	0.0848	0.3931	1	1	0.417	0	0	82
125	1	719	0	2	2	0.0848	0.3931	1	1	0.377	10	82	0
125	1	720	0	2	2	0.0848	0.3931	1	1	0.420	9	82	0
