sub	sess	t	rew	loc	cue	co1	co2	or	resp	rt	rew_tot	left_col	right_col
74	1	1	0	2	2	0.8882	0.2618	0	1	0.627	7	82	82
74	1	2	1	1	3	0.8882	0.2618	1	1	0.532	82	0	82
74	1	3	0	2	3	0.8882	0.2618	0	1	0.851	5	82	82
74	1	4	0	2	2	0.8882	0.2618	0	1	0.501	8	82	82
74	1	5	9	1	3	0.8882	0.2618	1	0	0.535	0	82	0
74	1	6	0	1	1	0.8882	0.2618	0	0	0.505	0	82	82
74	1	7	0	2	3	0.8882	0.2618	1	1	0.527	8	0	82
74	1	8	1	2	2	0.8882	0.2618	1	1	0.585	77	82	0
74	1	9	1	1	3	0.8882	0.2618	1	1	0.468	88	0	82
74	1	10	0	2	2	0.8882	0.2618	0	1	0.489	9	82	82
74	1	11	9	1	3	0.8882	0.2618	1	0	0.505	0	82	0
74	1	12	1	1	1	0.8882	0.2618	0	1	0.495	85	0	0
74	1	13	0	2	3	0.8882	0.2618	0	1	0.519	8	82	82
74	1	14	1	1	1	0.8882	0.2618	1	1	0.340	100	0	82
74	1	15	0	1	3	0.8882	0.2618	1	0	0.371	0	82	0
74	1	16	0	2	2	0.8882	0.2618	0	1	0.428	9	82	82
74	1	17	1	1	1	0.8882	0.2618	1	1	0.304	100	0	82
74	1	18	1	2	2	0.8882	0.2618	0	1	0.387	96	0	0
74	1	19	1	2	2	0.8882	0.2618	0	1	0.332	100	0	0
74	1	20	1	2	3	0.8882	0.2618	1	1	0.496	85	82	0
74	1	21	1	2	2	0.8882	0.2618	1	1	0.508	84	82	0
74	1	22	9	1	3	0.8882	0.2618	0	1	0.602	0	82	82
74	1	23	0	2	3	0.8882	0.2618	1	1	0.602	7	0	82
74	1	24	1	2	3	0.8882	0.2618	1	1	0.653	70	82	0
74	1	25	0	2	3	0.8882	0.2618	1	1	0.760	6	0	82
74	1	26	1	1	3	0.8882	0.2618	0	1	50.575	50	0	0
74	1	27	0	1	2	0.8882	0.2618	1	0	0.497	0	82	0
74	1	28	1	1	3	0.8882	0.2618	0	1	0.633	72	0	0
74	1	29	1	1	3	0.8882	0.2618	0	0	0.419	0	0	0
74	1	30	9	2	2	0.8882	0.2618	0	1	0.463	0	82	82
74	1	31	9	1	1	0.8882	0.2618	0	1	0.484	0	0	0
74	1	32	0	2	3	0.8882	0.2618	1	0	0.444	0	0	82
74	1	33	0	2	3	0.8882	0.2618	0	1	0.565	8	82	82
74	1	34	1	1	1	0.8882	0.2618	0	1	0.468	88	0	0
74	1	35	1	2	2	0.8882	0.2618	0	1	0.417	93	0	0
74	1	36	9	2	3	0.8882	0.2618	0	1	0.567	0	0	0
74	1	37	0	2	2	0.8882	0.2618	0	1	0.414	9	82	82
74	1	38	1	1	1	0.8882	0.2618	1	1	0.314	100	0	82
74	1	39	9	1	3	0.8882	0.2618	1	1	0.536	0	0	82
74	1	40	0	2	3	0.8882	0.2618	1	1	0.455	9	0	82
74	1	41	0	1	1	0.8882	0.2618	1	1	0.334	10	82	0
74	1	42	0	1	1	0.8882	0.2618	0	1	0.400	10	82	82
74	1	43	0	2	1	0.8882	0.2618	1	0	0.467	0	0	82
74	1	44	0	2	3	0.8882	0.2618	1	1	0.563	8	0	82
74	1	45	9	2	2	0.8882	0.2618	0	1	0.331	0	82	82
74	1	46	1	2	3	0.8882	0.2618	1	0	0.383	0	82	0
74	1	47	0	2	3	0.8882	0.2618	1	1	0.381	10	0	82
74	1	48	0	2	1	0.8882	0.2618	1	0	0.528	0	0	82
74	1	49	9	2	1	0.8882	0.2618	0	0	0.487	0	0	0
74	1	50	0	2	2	0.8882	0.2618	1	1	0.458	9	0	82
74	1	51	0	2	2	0.8882	0.2618	1	1	0.539	8	0	82
74	1	52	0	1	1	0.8882	0.2618	0	1	0.373	10	82	82
74	1	53	1	2	3	0.8882	0.2618	1	1	0.583	77	82	0
74	1	54	0	2	1	0.8882	0.2618	1	0	0.521	0	0	82
74	1	55	1	2	1	0.8882	0.2618	0	0	0.359	0	0	0
74	1	56	1	2	3	0.8882	0.2618	0	1	0.365	99	0	0
74	1	57	0	2	3	0.8882	0.2618	0	1	0.537	8	82	82
74	1	58	0	1	1	0.8882	0.2618	1	1	0.476	9	82	0
74	1	59	0	2	2	0.8882	0.2618	1	1	0.436	9	0	82
74	1	60	1	2	3	0.8882	0.2618	1	1	0.476	87	82	0
74	1	61	0	2	3	0.8882	0.2618	0	1	0.642	7	82	82
74	1	62	1	2	1	0.8882	0.2618	0	0	0.442	0	0	0
74	1	63	0	1	3	0.8882	0.2618	0	1	0.466	9	82	82
74	1	64	0	2	2	0.8882	0.2618	1	1	0.416	9	0	82
74	1	65	1	1	1	0.8882	0.2618	0	1	0.384	97	0	0
74	1	66	0	2	2	0.8882	0.2618	0	1	0.469	9	82	82
74	1	67	1	1	3	0.8882	0.2618	1	1	0.485	87	0	82
74	1	68	9	2	2	0.8882	0.2618	1	1	0.380	0	82	0
74	1	69	0	1	3	0.8882	0.2618	1	1	0.389	10	82	0
74	1	70	1	1	1	0.8882	0.2618	1	1	0.376	97	0	82
74	1	71	9	2	2	0.8882	0.2618	1	0	0.414	0	0	82
74	1	72	9	2	3	0.8882	0.2618	1	1	0.378	0	82	0
74	1	73	1	1	3	0.8882	0.2618	1	1	0.555	80	0	82
74	1	74	0	2	1	0.8882	0.2618	0	1	0.353	10	82	82
74	1	75	1	1	1	0.8882	0.2618	0	1	0.401	95	0	0
74	1	76	0	1	1	0.8882	0.2618	1	1	0.319	10	82	0
74	1	77	1	1	1	0.8882	0.2618	1	1	0.362	99	0	82
74	1	78	9	2	3	0.8882	0.2618	0	0	0.394	0	82	82
74	1	79	0	1	3	0.8882	0.2618	0	0	0.387	0	82	82
74	1	80	0	1	2	0.8882	0.2618	0	0	0.331	0	82	82
74	1	81	1	2	3	0.8882	0.2618	1	1	0.543	81	82	0
74	1	82	0	2	2	0.8882	0.2618	0	1	0.407	9	82	82
74	1	83	0	1	1	0.8882	0.2618	0	1	0.384	10	82	82
74	1	84	9	1	1	0.8882	0.2618	1	1	0.337	0	0	82
74	1	85	1	2	3	0.8882	0.2618	1	1	0.468	88	82	0
74	1	86	1	2	2	0.8882	0.2618	0	1	0.359	99	0	0
74	1	87	1	1	3	0.8882	0.2618	1	1	0.340	100	0	82
74	1	88	9	2	3	0.8882	0.2618	0	0	0.430	0	82	82
74	1	89	0	1	1	0.8882	0.2618	1	1	0.365	10	82	0
74	1	90	1	2	1	0.8882	0.2618	1	0	0.411	0	82	0
74	1	91	9	1	3	0.8882	0.2618	0	0	0.445	0	82	82
74	1	92	1	2	2	0.8882	0.2618	0	1	0.339	100	0	0
74	1	93	1	2	2	0.8882	0.2618	0	1	0.344	100	0	0
74	1	94	1	1	3	0.8882	0.2618	0	1	0.478	87	0	0
74	1	95	0	1	3	0.8882	0.2618	1	0	0.394	0	82	0
74	1	96	0	1	3	0.8882	0.2618	0	1	0.387	10	82	82
74	1	97	0	2	2	0.8882	0.2618	0	1	0.310	10	82	82
74	1	98	1	1	1	0.8882	0.2618	1	1	0.294	100	0	82
74	1	99	0	1	1	0.8882	0.2618	0	0	0.334	0	82	82
74	1	100	0	2	3	0.8882	0.2618	0	1	0.270	10	82	82
74	1	101	0	2	3	0.8882	0.2618	1	0	0.661	0	0	82
74	1	102	0	1	1	0.8882	0.2618	0	1	0.528	8	82	82
74	1	103	0	2	2	0.8882	0.2618	0	1	0.496	9	82	82
74	1	104	9	2	3	0.8882	0.2618	1	1	0.371	0	82	0
74	1	105	0	2	3	0.8882	0.2618	0	1	0.470	9	82	82
74	1	106	0	1	2	0.8882	0.2618	0	0	0.441	0	82	82
74	1	107	1	1	3	0.8882	0.2618	0	0	0.485	0	0	0
74	1	108	1	1	1	0.8882	0.2618	1	1	0.334	100	0	82
74	1	109	1	2	3	0.8882	0.2618	1	1	0.491	86	82	0
74	1	110	0	2	3	0.8882	0.2618	1	1	0.486	9	0	82
74	1	111	9	2	2	0.8882	0.2618	1	1	0.503	0	0	82
74	1	112	1	2	1	0.8882	0.2618	1	0	0.626	0	82	0
74	1	113	0	1	3	0.8882	0.2618	0	1	0.657	7	82	82
74	1	114	1	1	3	0.8882	0.2618	0	1	0.494	86	0	0
74	1	115	9	1	1	0.8882	0.2618	1	1	0.552	0	82	0
74	1	116	1	2	2	0.8882	0.2618	1	1	0.482	87	82	0
74	1	117	0	2	2	0.8882	0.2618	1	0	0.512	0	0	82
74	1	118	0	1	1	0.8882	0.2618	0	1	0.442	9	82	82
74	1	119	1	1	3	0.8882	0.2618	0	1	0.547	80	0	0
74	1	120	1	1	1	0.8882	0.2618	0	1	0.400	95	0	0
74	1	121	1	1	1	0.8882	0.2618	1	0	0.628	0	0	82
74	1	122	0	1	1	0.8882	0.2618	0	1	0.370	10	82	82
74	1	123	9	2	2	0.8882	0.2618	1	1	0.534	0	0	82
74	1	124	0	1	1	0.8882	0.2618	1	1	0.444	9	82	0
74	1	125	0	2	2	0.8882	0.2618	1	1	0.373	10	0	82
74	1	126	1	1	3	0.8882	0.2618	1	1	0.578	77	0	82
74	1	127	1	2	3	0.8882	0.2618	0	1	0.694	66	0	0
74	1	128	1	2	3	0.8882	0.2618	1	1	0.368	98	82	0
74	1	129	1	1	3	0.8882	0.2618	0	1	0.724	63	0	0
74	1	130	1	1	1	0.8882	0.2618	1	1	0.436	91	0	82
74	1	131	1	2	2	0.8882	0.2618	0	1	0.493	86	0	0
74	1	132	1	2	3	0.8882	0.2618	1	1	0.406	94	82	0
74	1	133	1	2	2	0.8882	0.2618	1	1	0.467	88	82	0
74	1	134	9	2	3	0.8882	0.2618	0	0	0.422	0	0	0
74	1	135	1	2	2	0.8882	0.2618	0	1	0.325	100	0	0
74	1	136	9	2	3	0.8882	0.2618	0	1	0.545	0	82	82
74	1	137	0	1	1	0.8882	0.2618	1	1	0.381	10	82	0
74	1	138	9	2	3	0.8882	0.2618	1	1	0.391	0	0	82
74	1	139	1	1	1	0.8882	0.2618	0	1	0.422	93	0	0
74	1	140	0	1	3	0.8882	0.2618	0	1	0.485	9	82	82
74	1	141	1	1	3	0.8882	0.2618	1	1	0.577	77	0	82
74	1	142	0	2	3	0.8882	0.2618	1	1	0.566	8	0	82
74	1	143	1	1	3	0.8882	0.2618	1	1	0.458	89	0	82
74	1	144	0	1	3	0.8882	0.2618	1	0	0.419	0	82	0
74	1	145	0	2	3	0.8882	0.2618	1	1	0.318	10	0	82
74	1	146	1	2	2	0.8882	0.2618	1	1	0.448	90	82	0
74	1	147	1	2	3	0.8882	0.2618	0	1	0.621	73	0	0
74	1	148	1	2	3	0.8882	0.2618	0	1	0.443	91	0	0
74	1	149	1	1	3	0.8882	0.2618	0	1	0.597	75	0	0
74	1	150	1	2	2	0.8882	0.2618	0	1	0.369	98	0	0
74	1	151	0	1	1	0.8882	0.2618	0	0	0.392	0	82	82
74	1	152	9	1	1	0.8882	0.2618	1	1	0.416	0	0	82
74	1	153	0	1	1	0.8882	0.2618	1	1	0.405	9	82	0
74	1	154	0	2	3	0.8882	0.2618	1	1	0.514	8	0	82
74	1	155	0	2	3	0.8882	0.2618	0	1	0.521	8	82	82
74	1	156	0	2	3	0.8882	0.2618	0	1	0.418	9	82	82
74	1	157	0	1	1	0.8882	0.2618	1	1	0.343	10	82	0
74	1	158	0	1	1	0.8882	0.2618	0	0	0.305	0	82	82
74	1	159	0	2	2	0.8882	0.2618	1	0	0.351	0	0	82
74	1	160	1	2	3	0.8882	0.2618	1	1	0.448	90	82	0
74	1	161	1	2	1	0.8882	0.2618	0	0	0.682	0	0	0
74	1	162	9	2	3	0.8882	0.2618	1	1	0.505	0	82	0
74	1	163	0	1	1	0.8882	0.2618	1	0	0.495	0	82	0
74	1	164	1	2	2	0.8882	0.2618	1	1	0.406	94	82	0
74	1	165	1	1	2	0.8882	0.2618	0	0	0.546	0	0	0
74	1	166	1	1	1	0.8882	0.2618	0	1	0.421	93	0	0
74	1	167	9	1	1	0.8882	0.2618	1	1	0.392	0	82	0
74	1	168	9	2	1	0.8882	0.2618	0	1	0.480	0	82	82
74	1	169	1	2	3	0.8882	0.2618	0	0	0.549	0	0	0
74	1	170	9	2	2	0.8882	0.2618	1	1	0.433	0	0	82
74	1	171	0	2	2	0.8882	0.2618	0	0	0.363	0	82	82
74	1	172	9	1	1	0.8882	0.2618	0	1	0.423	0	82	82
74	1	173	1	2	2	0.8882	0.2618	1	1	0.350	100	82	0
74	1	174	0	2	1	0.8882	0.2618	0	1	0.397	10	82	82
74	1	175	0	2	3	0.8882	0.2618	1	0	0.517	0	0	82
74	1	176	9	1	3	0.8882	0.2618	0	0	0.394	0	82	82
74	1	177	0	2	3	0.8882	0.2618	1	1	0.453	9	0	82
74	1	178	1	1	2	0.8882	0.2618	0	1	0.557	79	0	0
74	1	179	0	2	1	0.8882	0.2618	0	1	0.426	9	82	82
74	1	180	1	1	1	0.8882	0.2618	0	1	0.429	92	0	0
74	1	181	0	1	1	0.8882	0.2618	1	1	0.425	9	82	0
74	1	182	0	1	3	0.8882	0.2618	1	0	0.444	0	82	0
74	1	183	1	2	3	0.8882	0.2618	0	1	0.425	93	0	0
74	1	184	0	1	3	0.8882	0.2618	0	1	0.429	9	82	82
74	1	185	0	2	3	0.8882	0.2618	0	1	0.406	9	82	82
74	1	186	0	1	1	0.8882	0.2618	1	1	0.343	10	82	0
74	1	187	1	1	1	0.8882	0.2618	0	1	0.372	98	0	0
74	1	188	9	1	2	0.8882	0.2618	0	1	0.321	0	0	0
74	1	189	1	1	1	0.8882	0.2618	0	1	0.368	98	0	0
74	1	190	1	2	2	0.8882	0.2618	1	0	0.324	0	82	0
74	1	191	0	2	3	0.8882	0.2618	0	1	0.405	9	82	82
74	1	192	0	1	1	0.8882	0.2618	0	1	0.334	10	82	82
74	1	193	0	1	3	0.8882	0.2618	1	0	0.407	0	82	0
74	1	194	1	2	3	0.8882	0.2618	1	1	0.486	86	82	0
74	1	195	1	2	1	0.8882	0.2618	1	0	0.436	0	82	0
74	1	196	0	1	3	0.8882	0.2618	1	1	0.418	9	82	0
74	1	197	9	2	3	0.8882	0.2618	0	0	0.385	0	0	0
74	1	198	0	2	2	0.8882	0.2618	1	0	0.443	0	0	82
74	1	199	1	1	3	0.8882	0.2618	1	1	0.458	89	0	82
74	1	200	0	1	3	0.8882	0.2618	1	0	0.418	0	82	0
74	1	201	1	1	3	0.8882	0.2618	1	1	0.473	88	0	82
74	1	202	0	1	3	0.8882	0.2618	0	1	0.565	8	82	82
74	1	203	1	2	3	0.8882	0.2618	0	1	0.436	91	0	0
74	1	204	9	1	1	0.8882	0.2618	0	1	0.421	0	82	82
74	1	205	9	1	2	0.8882	0.2618	1	1	0.597	0	0	82
74	1	206	9	2	2	0.8882	0.2618	0	1	0.431	0	0	0
74	1	207	1	1	2	0.8882	0.2618	1	0	0.525	0	0	82
74	1	208	0	1	3	0.8882	0.2618	1	0	0.472	0	82	0
74	1	209	0	1	3	0.8882	0.2618	0	1	0.642	7	82	82
74	1	210	9	1	1	0.8882	0.2618	1	1	0.450	0	82	0
74	1	211	0	1	1	0.8882	0.2618	0	1	0.364	10	82	82
74	1	212	1	1	3	0.8882	0.2618	1	1	0.563	79	0	82
74	1	213	0	1	3	0.8882	0.2618	0	1	0.544	8	82	82
74	1	214	9	2	1	0.8882	0.2618	1	0	0.544	0	82	0
74	1	215	0	1	1	0.8882	0.2618	1	1	0.422	9	82	0
74	1	216	0	2	3	0.8882	0.2618	0	1	0.590	8	82	82
74	1	217	1	1	3	0.8882	0.2618	0	1	0.636	71	0	0
74	1	218	0	1	3	0.8882	0.2618	0	1	0.493	9	82	82
74	1	219	9	1	1	0.8882	0.2618	0	1	0.394	0	82	82
74	1	220	9	1	3	0.8882	0.2618	1	1	0.441	0	0	82
74	1	221	1	1	3	0.8882	0.2618	0	1	0.465	88	0	0
74	1	222	0	2	2	0.8882	0.2618	1	1	0.418	9	0	82
74	1	223	0	1	1	0.8882	0.2618	1	0	0.403	0	82	0
74	1	224	9	2	2	0.8882	0.2618	1	1	0.392	0	82	0
74	1	225	0	1	1	0.8882	0.2618	0	1	0.310	10	82	82
74	1	226	0	1	1	0.8882	0.2618	1	1	0.467	9	82	0
74	1	227	1	2	3	0.8882	0.2618	0	1	0.510	84	0	0
74	1	228	0	2	2	0.8882	0.2618	0	1	0.384	10	82	82
74	1	229	1	1	3	0.8882	0.2618	0	1	0.571	78	0	0
74	1	230	1	2	1	0.8882	0.2618	0	1	0.476	87	0	0
74	1	231	0	2	1	0.8882	0.2618	1	1	0.493	9	0	82
74	1	232	1	2	2	0.8882	0.2618	1	0	0.286	0	82	0
74	1	233	9	2	2	0.8882	0.2618	1	1	0.421	0	82	0
74	1	234	1	1	1	0.8882	0.2618	0	1	0.317	100	0	0
74	1	235	1	2	3	0.8882	0.2618	1	1	0.503	85	82	0
74	1	236	1	2	3	0.8882	0.2618	0	1	0.611	74	0	0
74	1	237	0	2	3	0.8882	0.2618	1	0	0.478	0	0	82
74	1	238	9	2	2	0.8882	0.2618	0	1	0.356	0	0	0
74	1	239	1	1	3	0.8882	0.2618	1	1	0.423	93	0	82
74	1	240	1	2	2	0.8882	0.2618	0	1	0.390	96	0	0
74	1	241	9	1	2	0.8882	0.2618	1	0	0.447	0	82	0
74	1	242	1	1	3	0.8882	0.2618	1	1	0.346	100	0	82
74	1	243	9	1	3	0.8882	0.2618	0	0	0.591	0	82	82
74	1	244	9	1	3	0.8882	0.2618	1	0	0.342	0	82	0
74	1	245	1	1	2	0.8882	0.2618	1	0	0.429	0	0	82
74	1	246	1	2	3	0.8882	0.2618	0	0	0.483	0	0	0
74	1	247	1	1	1	0.8882	0.2618	1	1	0.388	96	0	82
74	1	248	1	1	1	0.8882	0.2618	1	1	0.280	100	0	82
74	1	249	9	1	3	0.8882	0.2618	0	1	0.383	0	0	0
74	1	250	0	2	2	0.8882	0.2618	0	1	0.432	9	82	82
74	1	251	0	1	1	0.8882	0.2618	0	1	0.431	9	82	82
74	1	252	1	2	3	0.8882	0.2618	0	1	0.518	83	0	0
74	1	253	9	1	3	0.8882	0.2618	1	1	0.417	0	0	82
74	1	254	0	1	2	0.8882	0.2618	1	0	0.385	0	82	0
74	1	255	1	1	3	0.8882	0.2618	1	1	0.432	92	0	82
74	1	256	1	2	3	0.8882	0.2618	1	1	0.468	88	82	0
74	1	257	0	2	3	0.8882	0.2618	0	1	0.479	9	82	82
74	1	258	0	2	2	0.8882	0.2618	1	1	0.576	8	0	82
74	1	259	1	1	3	0.8882	0.2618	0	1	0.608	74	0	0
74	1	260	1	2	3	0.8882	0.2618	0	1	0.621	73	0	0
74	1	261	0	1	2	0.8882	0.2618	1	1	0.536	8	82	0
74	1	262	1	1	2	0.8882	0.2618	1	1	0.502	85	0	82
74	1	263	9	2	1	0.8882	0.2618	1	0	0.481	0	0	82
74	1	264	0	2	3	0.8882	0.2618	0	1	0.471	9	82	82
74	1	265	1	1	3	0.8882	0.2618	1	1	0.439	91	0	82
74	1	266	1	2	2	0.8882	0.2618	0	1	0.397	95	0	0
74	1	267	9	2	2	0.8882	0.2618	0	1	0.311	0	0	0
74	1	268	9	1	3	0.8882	0.2618	1	1	0.453	0	82	0
74	1	269	1	2	2	0.8882	0.2618	0	1	0.300	100	0	0
74	1	270	1	2	3	0.8882	0.2618	0	1	0.482	87	0	0
74	1	271	1	2	2	0.8882	0.2618	1	1	0.468	88	82	0
74	1	272	1	2	2	0.8882	0.2618	0	1	0.353	100	0	0
74	1	273	9	2	3	0.8882	0.2618	1	0	0.569	0	0	82
74	1	274	0	1	1	0.8882	0.2618	1	1	0.345	10	82	0
74	1	275	0	1	2	0.8882	0.2618	0	1	0.402	9	82	82
74	1	276	9	1	3	0.8882	0.2618	1	1	0.535	0	0	82
74	1	277	1	1	1	0.8882	0.2618	0	0	0.631	0	0	0
74	1	278	1	2	2	0.8882	0.2618	0	1	0.390	96	0	0
74	1	279	0	2	3	0.8882	0.2618	1	0	0.605	0	0	82
74	1	280	9	2	2	0.8882	0.2618	0	1	0.499	0	82	82
74	1	281	9	1	1	0.8882	0.2618	1	1	0.432	0	0	82
74	1	282	1	2	2	0.8882	0.2618	1	1	0.465	89	82	0
74	1	283	0	2	2	0.8882	0.2618	0	1	0.398	10	82	82
74	1	284	0	1	3	0.8882	0.2618	0	0	0.438	0	82	82
74	1	285	0	1	1	0.8882	0.2618	0	1	0.530	8	82	82
74	1	286	9	1	1	0.8882	0.2618	0	1	0.470	0	0	0
74	1	287	1	1	1	0.8882	0.2618	0	1	0.407	94	0	0
74	1	288	0	1	3	0.8882	0.2618	1	1	0.505	8	82	0
74	1	289	1	2	2	0.8882	0.2618	1	1	0.466	88	82	0
74	1	290	0	2	2	0.8882	0.2618	1	1	0.539	8	0	82
74	1	291	9	2	3	0.8882	0.2618	1	1	0.478	0	82	0
74	1	292	0	2	1	0.8882	0.2618	0	1	0.573	8	82	82
74	1	293	1	2	2	0.8882	0.2618	1	1	0.335	100	82	0
74	1	294	9	2	3	0.8882	0.2618	0	1	0.686	0	82	82
74	1	295	0	2	2	0.8882	0.2618	1	1	0.437	9	0	82
74	1	296	9	2	2	0.8882	0.2618	0	0	0.344	0	82	82
74	1	297	0	2	3	0.8882	0.2618	0	1	0.535	8	82	82
74	1	298	9	1	3	0.8882	0.2618	0	0	0.528	0	0	0
74	1	299	0	2	2	0.8882	0.2618	0	1	0.434	9	82	82
74	1	300	1	1	1	0.8882	0.2618	0	1	0.427	92	0	0
74	1	301	0	1	3	0.8882	0.2618	1	0	1.918	0	82	0
74	1	302	0	1	3	0.8882	0.2618	0	1	0.474	9	82	82
74	1	303	0	1	3	0.8882	0.2618	0	1	0.442	9	82	82
74	1	304	0	2	2	0.8882	0.2618	1	1	0.468	9	0	82
74	1	305	0	1	1	0.8882	0.2618	1	1	0.595	8	82	0
74	1	306	0	1	3	0.8882	0.2618	0	1	0.716	6	82	82
74	1	307	0	1	3	0.8882	0.2618	1	1	0.453	9	82	0
74	1	308	1	1	2	0.8882	0.2618	0	0	0.511	0	0	0
74	1	309	9	1	3	0.8882	0.2618	0	1	0.655	0	0	0
74	1	310	1	1	3	0.8882	0.2618	0	1	0.651	70	0	0
74	1	311	1	1	1	0.8882	0.2618	1	1	0.437	91	0	82
74	1	312	0	2	2	0.8882	0.2618	1	1	0.406	9	0	82
74	1	313	1	1	2	0.8882	0.2618	1	0	0.488	0	0	82
74	1	314	1	2	2	0.8882	0.2618	0	1	0.401	95	0	0
74	1	315	1	2	2	0.8882	0.2618	0	1	0.388	96	0	0
74	1	316	0	2	2	0.8882	0.2618	0	1	0.327	10	82	82
74	1	317	9	2	3	0.8882	0.2618	1	0	0.383	0	0	82
74	1	318	0	1	3	0.8882	0.2618	1	1	0.447	9	82	0
74	1	319	1	1	1	0.8882	0.2618	1	1	0.371	98	0	82
74	1	320	1	1	1	0.8882	0.2618	1	1	0.319	100	0	82
74	1	321	1	1	1	0.8882	0.2618	1	1	0.577	77	0	82
74	1	322	1	2	3	0.8882	0.2618	0	1	0.602	75	0	0
74	1	323	9	1	3	0.8882	0.2618	0	1	0.469	0	0	0
74	1	324	0	1	2	0.8882	0.2618	1	1	0.441	9	82	0
74	1	325	1	1	2	0.8882	0.2618	0	1	0.325	100	0	0
74	1	326	9	2	2	0.8882	0.2618	1	1	0.454	0	82	0
74	1	327	9	1	1	0.8882	0.2618	0	1	0.469	0	0	0
74	1	328	1	2	3	0.8882	0.2618	0	1	0.569	78	0	0
74	1	329	1	2	2	0.8882	0.2618	1	1	0.418	93	82	0
74	1	330	0	1	3	0.8882	0.2618	1	0	0.583	0	82	0
74	1	331	0	2	2	0.8882	0.2618	0	1	0.474	9	82	82
74	1	332	0	2	3	0.8882	0.2618	0	1	0.550	8	82	82
74	1	333	9	1	2	0.8882	0.2618	0	1	0.580	0	82	82
74	1	334	0	1	3	0.8882	0.2618	0	1	0.520	8	82	82
74	1	335	0	2	2	0.8882	0.2618	1	1	0.407	9	0	82
74	1	336	9	2	3	0.8882	0.2618	1	0	0.536	0	0	82
74	1	337	0	1	1	0.8882	0.2618	0	1	0.385	10	82	82
74	1	338	1	2	1	0.8882	0.2618	1	0	0.508	0	82	0
74	1	339	1	1	1	0.8882	0.2618	0	1	0.397	95	0	0
74	1	340	1	2	2	0.8882	0.2618	1	1	0.456	89	82	0
74	1	341	9	2	3	0.8882	0.2618	0	1	0.619	0	0	0
74	1	342	0	1	2	0.8882	0.2618	0	1	0.503	8	82	82
74	1	343	9	1	1	0.8882	0.2618	1	1	0.366	0	0	82
74	1	344	1	1	3	0.8882	0.2618	0	0	0.568	0	0	0
74	1	345	1	2	2	0.8882	0.2618	1	1	0.494	86	82	0
74	1	346	0	1	3	0.8882	0.2618	0	1	0.459	9	82	82
74	1	347	9	2	2	0.8882	0.2618	0	1	0.365	0	0	0
74	1	348	1	2	3	0.8882	0.2618	0	1	0.449	90	0	0
74	1	349	1	1	3	0.8882	0.2618	0	0	0.517	0	0	0
74	1	350	9	1	1	0.8882	0.2618	0	1	0.364	0	82	82
74	1	351	0	2	2	0.8882	0.2618	1	1	0.414	9	0	82
74	1	352	1	1	3	0.8882	0.2618	1	1	0.630	72	0	82
74	1	353	1	1	1	0.8882	0.2618	1	1	0.309	100	0	82
74	1	354	1	1	1	0.8882	0.2618	0	1	0.407	94	0	0
74	1	355	1	2	3	0.8882	0.2618	1	1	0.451	90	82	0
74	1	356	9	1	1	0.8882	0.2618	0	1	0.363	0	0	0
74	1	357	0	1	3	0.8882	0.2618	1	1	0.507	8	82	0
74	1	358	0	1	3	0.8882	0.2618	1	1	0.420	9	82	0
74	1	359	9	1	1	0.8882	0.2618	1	1	0.413	0	82	0
74	1	360	1	2	3	0.8882	0.2618	1	1	0.497	85	82	0
74	1	361	1	2	2	0.8882	0.2618	1	1	0.504	85	82	0
74	1	362	1	1	2	0.8882	0.2618	1	1	0.438	91	0	82
74	1	363	1	1	3	0.8882	0.2618	0	1	0.405	95	0	0
74	1	364	1	1	3	0.8882	0.2618	0	1	0.452	90	0	0
74	1	365	0	1	3	0.8882	0.2618	0	1	0.467	9	82	82
74	1	366	0	2	3	0.8882	0.2618	1	0	0.474	0	0	82
74	1	367	1	2	1	0.8882	0.2618	0	0	0.168	0	0	0
74	1	368	0	1	2	0.8882	0.2618	1	0	0.495	0	82	0
74	1	369	1	1	3	0.8882	0.2618	1	1	0.515	83	0	82
74	1	370	1	1	1	0.8882	0.2618	0	0	0.378	0	0	0
74	1	371	0	1	1	0.8882	0.2618	1	1	0.384	10	82	0
74	1	372	9	1	1	0.8882	0.2618	0	1	0.366	0	0	0
74	1	373	1	1	2	0.8882	0.2618	0	1	0.551	80	0	0
74	1	374	1	2	1	0.8882	0.2618	0	0	0.405	0	0	0
74	1	375	1	2	2	0.8882	0.2618	1	0	0.336	0	82	0
74	1	376	1	1	3	0.8882	0.2618	1	1	0.482	87	0	82
74	1	377	9	1	1	0.8882	0.2618	0	1	0.420	0	82	82
74	1	378	0	1	3	0.8882	0.2618	0	1	0.424	9	82	82
74	1	379	0	1	3	0.8882	0.2618	1	1	0.544	8	82	0
74	1	380	0	2	1	0.8882	0.2618	0	1	0.485	9	82	82
74	1	381	0	2	2	0.8882	0.2618	1	1	0.538	8	0	82
74	1	382	0	1	3	0.8882	0.2618	0	1	0.712	6	82	82
74	1	383	9	1	3	0.8882	0.2618	1	1	0.454	0	0	82
74	1	384	1	1	1	0.8882	0.2618	0	1	0.291	100	0	0
74	1	385	0	2	2	0.8882	0.2618	0	1	0.426	9	82	82
74	1	386	1	1	3	0.8882	0.2618	0	1	0.396	95	0	0
74	1	387	0	1	1	0.8882	0.2618	0	1	0.349	10	82	82
74	1	388	0	2	1	0.8882	0.2618	0	1	0.337	10	82	82
74	1	389	1	1	1	0.8882	0.2618	1	1	0.403	95	0	82
74	1	390	1	2	3	0.8882	0.2618	1	1	0.412	94	82	0
74	1	391	1	1	3	0.8882	0.2618	0	1	0.305	100	0	0
74	1	392	0	1	3	0.8882	0.2618	0	1	0.436	9	82	82
74	1	393	0	2	2	0.8882	0.2618	0	0	0.337	0	82	82
74	1	394	1	2	2	0.8882	0.2618	0	1	0.375	98	0	0
74	1	395	0	2	3	0.8882	0.2618	0	1	0.399	10	82	82
74	1	396	9	2	1	0.8882	0.2618	0	1	0.432	0	82	82
74	1	397	0	1	1	0.8882	0.2618	0	1	0.353	10	82	82
74	1	398	1	1	3	0.8882	0.2618	1	1	0.345	100	0	82
74	1	399	0	2	3	0.8882	0.2618	0	1	0.411	9	82	82
74	1	400	9	1	3	0.8882	0.2618	0	1	0.566	0	0	0
74	1	401	9	1	2	0.8882	0.2618	0	1	0.508	0	0	0
74	1	402	1	2	3	0.8882	0.2618	0	1	0.551	80	0	0
74	1	403	0	2	3	0.8882	0.2618	1	0	0.599	0	0	82
74	1	404	0	1	1	0.8882	0.2618	0	1	0.567	8	82	82
74	1	405	1	2	1	0.8882	0.2618	0	1	0.572	78	0	0
74	1	406	1	2	3	0.8882	0.2618	0	1	0.448	90	0	0
74	1	407	9	1	3	0.8882	0.2618	0	1	0.434	0	82	82
74	1	408	0	2	2	0.8882	0.2618	0	1	0.388	10	82	82
74	1	409	9	1	1	0.8882	0.2618	0	1	0.370	0	0	0
74	1	410	1	1	3	0.8882	0.2618	1	0	0.485	0	0	82
74	1	411	9	2	3	0.8882	0.2618	1	0	0.503	0	0	82
74	1	412	0	2	2	0.8882	0.2618	0	1	0.468	9	82	82
74	1	413	1	2	2	0.8882	0.2618	0	1	0.460	89	0	0
74	1	414	0	1	1	0.8882	0.2618	0	1	0.422	9	82	82
74	1	415	9	1	3	0.8882	0.2618	1	1	0.497	0	82	0
74	1	416	1	2	3	0.8882	0.2618	1	1	0.740	61	82	0
74	1	417	0	2	3	0.8882	0.2618	0	1	0.520	8	82	82
74	1	418	0	2	2	0.8882	0.2618	1	1	0.575	8	0	82
74	1	419	1	2	2	0.8882	0.2618	0	1	0.510	84	0	0
74	1	420	0	1	2	0.8882	0.2618	0	0	0.424	0	82	82
74	1	421	9	2	2	0.8882	0.2618	0	1	0.443	0	0	0
74	1	422	0	2	2	0.8882	0.2618	1	1	0.443	9	0	82
74	1	423	0	1	2	0.8882	0.2618	1	0	0.671	0	82	0
74	1	424	9	1	3	0.8882	0.2618	0	0	0.507	0	82	82
74	1	425	0	2	3	0.8882	0.2618	1	1	0.650	7	0	82
74	1	426	0	2	3	0.8882	0.2618	1	1	0.649	7	0	82
74	1	427	0	1	1	0.8882	0.2618	0	1	0.401	9	82	82
74	1	428	9	1	3	0.8882	0.2618	0	1	0.437	0	82	82
74	1	429	0	2	1	0.8882	0.2618	1	0	0.522	0	0	82
74	1	430	1	1	1	0.8882	0.2618	0	1	0.394	96	0	0
74	1	431	9	2	1	0.8882	0.2618	1	1	0.969	0	82	0
74	1	432	1	2	2	0.8882	0.2618	1	1	0.376	97	82	0
74	1	433	0	1	1	0.8882	0.2618	1	1	0.477	9	82	0
74	1	434	9	2	2	0.8882	0.2618	1	1	0.393	0	0	82
74	1	435	9	1	1	0.8882	0.2618	1	1	0.450	0	0	82
74	1	436	1	2	2	0.8882	0.2618	0	1	0.381	97	0	0
74	1	437	0	2	2	0.8882	0.2618	1	1	0.379	10	0	82
74	1	438	1	1	3	0.8882	0.2618	1	1	0.441	91	0	82
74	1	439	0	2	3	0.8882	0.2618	0	1	0.418	9	82	82
74	1	440	9	1	3	0.8882	0.2618	1	1	0.419	0	82	0
74	1	441	1	1	3	0.8882	0.2618	1	1	0.431	92	0	82
74	1	442	0	2	3	0.8882	0.2618	1	1	0.307	10	0	82
74	1	443	0	2	3	0.8882	0.2618	0	1	0.410	9	82	82
74	1	444	0	2	2	0.8882	0.2618	0	1	0.331	10	82	82
74	1	445	0	1	1	0.8882	0.2618	0	0	0.340	0	82	82
74	1	446	0	2	2	0.8882	0.2618	0	0	0.291	0	82	82
74	1	447	1	1	3	0.8882	0.2618	1	1	0.351	100	0	82
74	1	448	0	2	3	0.8882	0.2618	0	1	0.481	9	82	82
74	1	449	1	1	3	0.8882	0.2618	1	1	0.345	100	0	82
74	1	450	0	2	2	0.8882	0.2618	0	1	0.481	9	82	82
74	1	451	1	2	3	0.8882	0.2618	0	1	0.684	67	0	0
74	1	452	0	2	3	0.8882	0.2618	1	0	0.580	0	0	82
74	1	453	1	1	1	0.8882	0.2618	0	1	0.412	94	0	0
74	1	454	9	1	1	0.8882	0.2618	1	1	0.530	0	82	0
74	1	455	0	1	3	0.8882	0.2618	1	1	0.620	7	82	0
74	1	456	9	2	3	0.8882	0.2618	0	1	0.465	0	0	0
74	1	457	9	1	1	0.8882	0.2618	1	1	0.348	0	0	82
74	1	458	1	2	3	0.8882	0.2618	1	1	0.462	89	82	0
74	1	459	1	1	2	0.8882	0.2618	1	1	0.553	80	0	82
74	1	460	1	2	2	0.8882	0.2618	0	1	0.280	100	0	0
74	1	461	0	2	3	0.8882	0.2618	0	1	0.428	9	82	82
74	1	462	0	1	3	0.8882	0.2618	1	0	0.450	0	82	0
74	1	463	0	1	3	0.8882	0.2618	0	0	0.406	0	82	82
74	1	464	1	1	3	0.8882	0.2618	0	1	0.821	53	0	0
74	1	465	1	2	2	0.8882	0.2618	1	1	0.432	92	82	0
74	1	466	0	2	3	0.8882	0.2618	0	1	0.622	7	82	82
74	1	467	9	1	3	0.8882	0.2618	0	1	0.536	0	82	82
74	1	468	0	2	3	0.8882	0.2618	1	0	0.495	0	0	82
74	1	469	0	1	3	0.8882	0.2618	1	0	0.527	0	82	0
74	1	470	9	1	1	0.8882	0.2618	0	1	0.348	0	0	0
74	1	471	0	1	1	0.8882	0.2618	1	1	0.414	9	82	0
74	1	472	1	1	1	0.8882	0.2618	1	1	0.354	100	0	82
74	1	473	1	1	3	0.8882	0.2618	1	1	0.384	97	0	82
74	1	474	0	2	3	0.8882	0.2618	0	0	0.283	0	82	82
74	1	475	0	1	1	0.8882	0.2618	1	1	0.348	10	82	0
74	1	476	0	1	3	0.8882	0.2618	0	1	0.982	5	82	82
74	1	477	1	2	3	0.8882	0.2618	1	0	0.375	0	82	0
74	1	478	9	1	3	0.8882	0.2618	1	0	0.626	0	82	0
74	1	479	1	1	3	0.8882	0.2618	1	1	0.338	100	0	82
74	1	480	0	2	3	0.8882	0.2618	1	1	0.463	9	0	82
74	1	481	0	2	2	0.8882	0.2618	1	1	0.396	10	0	82
74	1	482	9	1	3	0.8882	0.2618	0	1	0.312	0	0	0
74	1	483	9	1	2	0.8882	0.2618	1	1	0.414	0	0	82
74	1	484	0	1	3	0.8882	0.2618	1	1	0.405	9	82	0
74	1	485	1	2	1	0.8882	0.2618	1	1	0.541	81	82	0
74	1	486	0	1	1	0.8882	0.2618	0	1	0.293	10	82	82
74	1	487	1	2	3	0.8882	0.2618	0	0	0.389	0	0	0
74	1	488	0	1	1	0.8882	0.2618	1	1	0.504	8	82	0
74	1	489	0	1	1	0.8882	0.2618	1	1	0.330	10	82	0
74	1	490	0	2	2	0.8882	0.2618	0	1	0.280	10	82	82
74	1	491	9	2	3	0.8882	0.2618	1	1	0.339	0	82	0
74	1	492	9	2	2	0.8882	0.2618	0	1	0.355	0	82	82
74	1	493	1	2	2	0.8882	0.2618	1	1	0.423	93	82	0
74	1	494	0	1	3	0.8882	0.2618	1	1	0.558	8	82	0
74	1	495	9	1	3	0.8882	0.2618	1	1	0.368	0	0	82
74	1	496	1	2	2	0.8882	0.2618	0	1	0.322	100	0	0
74	1	497	1	2	2	0.8882	0.2618	0	1	0.369	98	0	0
74	1	498	0	1	3	0.8882	0.2618	0	1	0.738	6	82	82
74	1	499	0	1	3	0.8882	0.2618	0	1	0.547	8	82	82
74	1	500	0	1	1	0.8882	0.2618	0	1	0.386	10	82	82
74	1	501	9	1	1	0.8882	0.2618	1	1	0.400	0	82	0
74	1	502	1	2	2	0.8882	0.2618	0	1	0.336	100	0	0
74	1	503	0	2	2	0.8882	0.2618	1	1	0.593	8	0	82
74	1	504	0	1	3	0.8882	0.2618	0	1	0.514	8	82	82
74	1	505	1	2	3	0.8882	0.2618	1	1	0.301	100	82	0
74	1	506	0	2	3	0.8882	0.2618	0	1	0.645	7	82	82
74	1	507	1	1	3	0.8882	0.2618	1	1	0.452	90	0	82
74	1	508	0	1	3	0.8882	0.2618	1	1	0.630	7	82	0
74	1	509	0	1	2	0.8882	0.2618	1	1	0.487	9	82	0
74	1	510	1	1	1	0.8882	0.2618	1	1	0.246	100	0	82
74	1	511	0	1	3	0.8882	0.2618	1	0	0.349	0	82	0
74	1	512	9	1	2	0.8882	0.2618	0	1	0.369	0	82	82
74	1	513	0	1	3	0.8882	0.2618	0	1	0.448	9	82	82
74	1	514	9	2	3	0.8882	0.2618	0	1	0.600	0	82	82
74	1	515	1	2	1	0.8882	0.2618	1	0	0.687	0	82	0
74	1	516	9	2	2	0.8882	0.2618	1	1	0.407	0	0	82
74	1	517	1	1	2	0.8882	0.2618	0	0	0.322	0	0	0
74	1	518	1	1	3	0.8882	0.2618	0	1	0.494	86	0	0
74	1	519	1	2	3	0.8882	0.2618	0	1	0.507	84	0	0
74	1	520	0	2	2	0.8882	0.2618	0	1	0.403	9	82	82
74	1	521	0	2	2	0.8882	0.2618	0	1	0.444	9	82	82
74	1	522	9	2	3	0.8882	0.2618	0	1	0.710	0	0	0
74	1	523	9	2	3	0.8882	0.2618	1	1	0.540	0	82	0
74	1	524	9	1	1	0.8882	0.2618	1	0	0.913	0	0	82
74	1	525	9	2	3	0.8882	0.2618	1	1	0.507	0	0	82
74	1	526	1	2	3	0.8882	0.2618	1	1	0.470	88	82	0
74	1	527	1	1	1	0.8882	0.2618	0	1	0.403	95	0	0
74	1	528	1	2	2	0.8882	0.2618	0	1	0.442	91	0	0
74	1	529	9	2	3	0.8882	0.2618	1	0	0.618	0	0	82
74	1	530	1	2	3	0.8882	0.2618	1	1	0.463	89	82	0
74	1	531	0	1	1	0.8882	0.2618	0	1	0.379	10	82	82
74	1	532	1	2	2	0.8882	0.2618	1	1	0.376	97	82	0
74	1	533	9	2	3	0.8882	0.2618	0	1	0.677	0	82	82
74	1	534	9	2	3	0.8882	0.2618	0	1	0.379	0	0	0
74	1	535	0	2	3	0.8882	0.2618	0	1	0.539	8	82	82
74	1	536	1	1	1	0.8882	0.2618	0	1	0.358	99	0	0
74	1	537	9	2	2	0.8882	0.2618	0	1	0.425	0	82	82
74	1	538	1	1	1	0.8882	0.2618	1	1	0.304	100	0	82
74	1	539	9	1	1	0.8882	0.2618	0	1	0.378	0	82	82
74	1	540	1	2	3	0.8882	0.2618	0	1	0.527	82	0	0
74	1	541	1	1	3	0.8882	0.2618	0	1	0.394	96	0	0
74	1	542	1	1	3	0.8882	0.2618	1	1	0.374	98	0	82
74	1	543	0	2	3	0.8882	0.2618	0	1	0.450	9	82	82
74	1	544	0	2	2	0.8882	0.2618	1	1	0.421	9	0	82
74	1	545	1	2	3	0.8882	0.2618	1	1	0.400	95	82	0
74	1	546	0	1	1	0.8882	0.2618	1	0	0.331	0	82	0
74	1	547	9	1	1	0.8882	0.2618	0	1	0.404	0	0	0
74	1	548	0	1	1	0.8882	0.2618	1	1	0.461	9	82	0
74	1	549	0	2	2	0.8882	0.2618	0	1	0.414	9	82	82
74	1	550	1	2	3	0.8882	0.2618	1	1	0.407	94	82	0
74	1	551	0	1	2	0.8882	0.2618	0	1	0.523	8	82	82
74	1	552	1	1	3	0.8882	0.2618	0	1	0.552	80	0	0
74	1	553	1	1	3	0.8882	0.2618	1	1	0.467	88	0	82
74	1	554	1	2	3	0.8882	0.2618	0	1	0.561	79	0	0
74	1	555	1	1	1	0.8882	0.2618	1	1	0.341	100	0	82
74	1	556	0	2	1	0.8882	0.2618	1	1	0.680	7	0	82
74	1	557	1	2	2	0.8882	0.2618	1	1	0.435	91	82	0
74	1	558	0	2	2	0.8882	0.2618	1	1	0.406	9	0	82
74	1	559	1	2	2	0.8882	0.2618	0	1	0.334	100	0	0
74	1	560	0	1	3	0.8882	0.2618	1	0	0.584	0	82	0
74	1	561	1	1	3	0.8882	0.2618	0	1	0.543	81	0	0
74	1	562	0	1	1	0.8882	0.2618	0	1	0.428	9	82	82
74	1	563	9	2	2	0.8882	0.2618	1	1	0.323	0	0	82
74	1	564	9	1	3	0.8882	0.2618	1	1	0.466	0	82	0
74	1	565	0	2	2	0.8882	0.2618	0	1	0.388	10	82	82
74	1	566	1	2	3	0.8882	0.2618	0	1	0.501	85	0	0
74	1	567	1	1	1	0.8882	0.2618	0	1	0.395	95	0	0
74	1	568	1	1	1	0.8882	0.2618	0	1	0.369	98	0	0
74	1	569	0	1	1	0.8882	0.2618	1	1	0.383	10	82	0
74	1	570	1	2	3	0.8882	0.2618	0	1	0.444	91	0	0
74	1	571	9	1	2	0.8882	0.2618	1	0	0.432	0	82	0
74	1	572	0	1	3	0.8882	0.2618	1	1	0.321	10	82	0
74	1	573	1	2	3	0.8882	0.2618	0	1	0.475	88	0	0
74	1	574	1	2	2	0.8882	0.2618	1	1	0.441	91	82	0
74	1	575	1	1	1	0.8882	0.2618	1	1	0.407	94	0	82
74	1	576	1	2	3	0.8882	0.2618	1	1	0.613	74	82	0
74	1	577	9	1	3	0.8882	0.2618	1	1	0.543	0	0	82
74	1	578	9	1	3	0.8882	0.2618	0	1	0.472	0	0	0
74	1	579	1	2	2	0.8882	0.2618	1	1	0.408	94	82	0
74	1	580	0	2	1	0.8882	0.2618	1	0	0.583	0	0	82
74	1	581	0	2	2	0.8882	0.2618	1	1	0.339	10	0	82
74	1	582	0	1	1	0.8882	0.2618	0	1	0.312	10	82	82
74	1	583	1	1	1	0.8882	0.2618	0	1	0.371	98	0	0
74	1	584	9	2	2	0.8882	0.2618	1	1	0.376	0	82	0
74	1	585	0	2	3	0.8882	0.2618	1	0	0.482	0	0	82
74	1	586	1	2	1	0.8882	0.2618	0	0	0.407	0	0	0
74	1	587	9	2	1	0.8882	0.2618	0	0	0.789	0	0	0
74	1	588	9	1	1	0.8882	0.2618	0	1	0.421	0	82	82
74	1	589	1	2	3	0.8882	0.2618	1	0	0.417	0	82	0
74	1	590	1	2	2	0.8882	0.2618	1	1	0.361	99	82	0
74	1	591	0	2	3	0.8882	0.2618	0	1	0.401	9	82	82
74	1	592	0	1	1	0.8882	0.2618	1	1	0.434	9	82	0
74	1	593	0	1	1	0.8882	0.2618	1	1	0.332	10	82	0
74	1	594	1	2	3	0.8882	0.2618	0	1	0.457	89	0	0
74	1	595	0	1	1	0.8882	0.2618	1	1	0.329	10	82	0
74	1	596	1	1	1	0.8882	0.2618	1	1	0.287	100	0	82
74	1	597	1	1	3	0.8882	0.2618	1	1	0.326	100	0	82
74	1	598	0	1	3	0.8882	0.2618	0	1	0.455	9	82	82
74	1	599	1	2	3	0.8882	0.2618	0	1	0.403	95	0	0
74	1	600	9	2	2	0.8882	0.2618	1	1	0.425	0	82	0
74	1	601	9	1	1	0.8882	0.2618	1	1	0.406	0	82	0
74	1	602	0	1	1	0.8882	0.2618	1	1	0.262	10	82	0
74	1	603	0	2	3	0.8882	0.2618	0	1	0.518	8	82	82
74	1	604	0	1	2	0.8882	0.2618	0	0	0.439	0	82	82
74	1	605	0	2	1	0.8882	0.2618	0	1	0.335	10	82	82
74	1	606	0	1	1	0.8882	0.2618	1	1	0.411	9	82	0
74	1	607	0	2	2	0.8882	0.2618	0	1	0.325	10	82	82
74	1	608	0	1	3	0.8882	0.2618	0	0	0.388	0	82	82
74	1	609	0	1	3	0.8882	0.2618	0	0	0.425	0	82	82
74	1	610	1	1	1	0.8882	0.2618	0	1	0.319	100	0	0
74	1	611	1	1	1	0.8882	0.2618	0	1	0.357	99	0	0
74	1	612	9	2	3	0.8882	0.2618	0	1	0.442	0	82	82
74	1	613	9	2	3	0.8882	0.2618	0	0	0.424	0	0	0
74	1	614	1	1	2	0.8882	0.2618	0	1	0.364	99	0	0
74	1	615	1	1	1	0.8882	0.2618	1	1	0.485	87	0	82
74	1	616	1	2	2	0.8882	0.2618	1	1	0.569	78	82	0
74	1	617	9	2	3	0.8882	0.2618	1	1	0.366	0	82	0
74	1	618	0	2	1	0.8882	0.2618	1	1	0.288	10	0	82
74	1	619	1	2	2	0.8882	0.2618	1	0	0.842	0	82	0
74	1	620	0	1	3	0.8882	0.2618	0	1	0.382	10	82	82
74	1	621	1	2	3	0.8882	0.2618	1	1	0.458	89	82	0
74	1	622	1	1	1	0.8882	0.2618	1	1	0.273	100	0	82
74	1	623	0	2	3	0.8882	0.2618	0	1	0.457	9	82	82
74	1	624	0	2	3	0.8882	0.2618	1	1	0.466	9	0	82
74	1	625	9	2	3	0.8882	0.2618	1	1	0.380	0	82	0
74	1	626	0	1	2	0.8882	0.2618	0	1	0.559	8	82	82
74	1	627	9	2	2	0.8882	0.2618	1	1	0.544	0	82	0
74	1	628	0	1	3	0.8882	0.2618	1	1	0.354	10	82	0
74	1	629	1	1	2	0.8882	0.2618	1	1	0.436	91	0	82
74	1	630	1	2	2	0.8882	0.2618	1	1	0.416	93	82	0
74	1	631	0	1	1	0.8882	0.2618	1	1	0.297	10	82	0
74	1	632	9	1	1	0.8882	0.2618	1	1	0.341	0	82	0
74	1	633	0	2	3	0.8882	0.2618	1	0	0.465	0	0	82
74	1	634	0	2	2	0.8882	0.2618	1	0	0.328	0	0	82
74	1	635	1	2	2	0.8882	0.2618	0	1	0.435	91	0	0
74	1	636	1	1	1	0.8882	0.2618	1	1	0.347	100	0	82
74	1	637	1	2	3	0.8882	0.2618	1	0	0.583	0	82	0
74	1	638	9	2	2	0.8882	0.2618	0	1	0.455	0	82	82
74	1	639	1	1	1	0.8882	0.2618	1	1	0.304	100	0	82
74	1	640	0	1	3	0.8882	0.2618	1	1	0.487	9	82	0
74	1	641	1	1	1	0.8882	0.2618	1	1	0.288	100	0	82
74	1	642	0	2	3	0.8882	0.2618	1	1	0.406	9	0	82
74	1	643	1	1	1	0.8882	0.2618	0	1	0.421	93	0	0
74	1	644	1	1	1	0.8882	0.2618	0	1	0.407	94	0	0
74	1	645	0	2	3	0.8882	0.2618	1	0	0.597	0	0	82
74	1	646	0	2	2	0.8882	0.2618	1	1	0.519	8	0	82
74	1	647	1	1	3	0.8882	0.2618	1	1	0.400	95	0	82
74	1	648	1	1	3	0.8882	0.2618	0	1	0.534	82	0	0
74	1	649	9	2	2	0.8882	0.2618	1	1	0.366	0	82	0
74	1	650	0	2	3	0.8882	0.2618	0	1	0.525	8	82	82
74	1	651	1	2	1	0.8882	0.2618	1	1	0.515	83	82	0
74	1	652	0	1	1	0.8882	0.2618	0	0	0.051	0	82	82
74	1	653	0	2	2	0.8882	0.2618	0	1	0.463	9	82	82
74	1	654	1	2	2	0.8882	0.2618	0	1	0.450	90	0	0
74	1	655	0	2	1	0.8882	0.2618	0	1	0.500	9	82	82
74	1	656	0	2	2	0.8882	0.2618	1	1	0.394	10	0	82
74	1	657	0	1	2	0.8882	0.2618	1	0	0.643	0	82	0
74	1	658	1	1	3	0.8882	0.2618	0	1	0.480	87	0	0
74	1	659	1	2	3	0.8882	0.2618	0	1	0.514	84	0	0
74	1	660	9	2	2	0.8882	0.2618	0	1	0.475	0	0	0
74	1	661	0	1	3	0.8882	0.2618	1	0	0.493	0	82	0
74	1	662	0	1	3	0.8882	0.2618	1	0	0.537	0	82	0
74	1	663	9	1	3	0.8882	0.2618	1	1	0.637	0	0	82
74	1	664	1	1	1	0.8882	0.2618	0	1	0.420	93	0	0
74	1	665	1	1	3	0.8882	0.2618	0	1	0.421	93	0	0
74	1	666	9	2	2	0.8882	0.2618	1	1	0.314	0	0	82
74	1	667	0	2	2	0.8882	0.2618	1	1	0.326	10	0	82
74	1	668	9	1	1	0.8882	0.2618	0	1	0.332	0	82	82
74	1	669	1	2	2	0.8882	0.2618	0	0	0.301	0	0	0
74	1	670	0	2	2	0.8882	0.2618	0	1	0.397	10	82	82
74	1	671	1	2	1	0.8882	0.2618	1	1	0.455	90	82	0
74	1	672	1	2	2	0.8882	0.2618	0	1	0.405	95	0	0
74	1	673	1	1	1	0.8882	0.2618	1	1	0.313	100	0	82
74	1	674	1	2	2	0.8882	0.2618	1	1	0.476	87	82	0
74	1	675	9	2	3	0.8882	0.2618	0	1	0.516	0	82	82
74	1	676	1	1	1	0.8882	0.2618	0	1	0.423	93	0	0
74	1	677	1	1	2	0.8882	0.2618	1	1	0.561	79	0	82
74	1	678	0	2	3	0.8882	0.2618	1	0	0.598	0	0	82
74	1	679	1	2	2	0.8882	0.2618	1	1	0.431	92	82	0
74	1	680	0	2	2	0.8882	0.2618	0	1	0.421	9	82	82
74	1	681	9	1	3	0.8882	0.2618	0	1	2.979	0	0	0
74	1	682	0	1	1	0.8882	0.2618	0	1	0.419	9	82	82
74	1	683	1	1	1	0.8882	0.2618	1	1	0.431	92	0	82
74	1	684	1	1	1	0.8882	0.2618	1	1	0.405	95	0	82
74	1	685	0	2	3	0.8882	0.2618	1	1	0.645	7	0	82
74	1	686	1	1	1	0.8882	0.2618	0	1	0.365	99	0	0
74	1	687	1	2	2	0.8882	0.2618	0	1	0.397	95	0	0
74	1	688	0	1	1	0.8882	0.2618	1	1	0.408	9	82	0
74	1	689	0	1	1	0.8882	0.2618	0	1	0.376	10	82	82
74	1	690	9	2	2	0.8882	0.2618	0	1	0.343	0	0	0
74	1	691	9	2	3	0.8882	0.2618	1	1	0.276	0	0	82
74	1	692	1	1	3	0.8882	0.2618	0	1	0.457	89	0	0
74	1	693	0	1	3	0.8882	0.2618	1	0	0.445	0	82	0
74	1	694	9	1	1	0.8882	0.2618	1	1	0.427	0	0	82
74	1	695	1	2	2	0.8882	0.2618	1	1	0.396	95	82	0
74	1	696	1	2	3	0.8882	0.2618	0	1	0.459	89	0	0
74	1	697	1	2	3	0.8882	0.2618	1	1	0.355	100	82	0
74	1	698	9	2	1	0.8882	0.2618	1	0	0.412	0	0	82
74	1	699	0	1	3	0.8882	0.2618	0	0	0.437	0	82	82
74	1	700	1	1	3	0.8882	0.2618	0	1	0.440	91	0	0
74	1	701	1	1	3	0.8882	0.2618	1	1	0.472	88	0	82
74	1	702	1	2	3	0.8882	0.2618	1	1	0.453	90	82	0
74	1	703	0	2	3	0.8882	0.2618	1	0	0.384	0	0	82
74	1	704	1	1	1	0.8882	0.2618	1	1	0.261	100	0	82
74	1	705	0	1	3	0.8882	0.2618	1	1	0.477	9	82	0
74	1	706	1	2	2	0.8882	0.2618	0	1	0.477	87	0	0
74	1	707	0	1	1	0.8882	0.2618	0	1	0.367	10	82	82
74	1	708	1	2	3	0.8882	0.2618	0	1	0.468	88	0	0
74	1	709	0	1	1	0.8882	0.2618	0	1	0.452	9	82	82
74	1	710	1	1	3	0.8882	0.2618	0	1	0.413	94	0	0
74	1	711	0	2	2	0.8882	0.2618	1	1	0.341	10	0	82
74	1	712	1	2	3	0.8882	0.2618	1	1	0.445	90	82	0
74	1	713	0	1	3	0.8882	0.2618	0	0	0.441	0	82	82
74	1	714	0	2	2	0.8882	0.2618	1	1	0.308	10	0	82
74	1	715	9	2	2	0.8882	0.2618	0	1	0.461	0	82	82
74	1	716	1	1	2	0.8882	0.2618	0	0	0.478	0	0	0
74	1	717	1	2	3	0.8882	0.2618	0	1	0.461	89	0	0
74	1	718	0	2	2	0.8882	0.2618	1	1	0.444	9	0	82
74	1	719	1	1	3	0.8882	0.2618	0	1	0.621	73	0	0
74	1	720	9	2	2	0.8882	0.2618	0	1	0.388	0	0	0
