sub	sess	t	rew	loc	cue	co1	co2	or	resp	rt	rew_tot	left_col	right_col
112	1	1	9	2	2	0.0500	0.0500	0	1	0.608	0	82	82
112	1	2	1	1	1	0.0500	0.0500	0	1	0.448	90	0	0
112	1	3	1	1	1	0.0500	0.0500	0	1	0.441	91	0	0
112	1	4	1	1	3	0.0500	0.0500	1	1	0.519	83	0	82
112	1	5	9	2	2	0.0500	0.0500	1	1	0.509	0	0	82
112	1	6	1	1	3	0.0500	0.0500	1	1	0.930	50	0	82
112	1	7	1	1	3	0.0500	0.0500	1	0	0.445	0	0	82
112	1	8	1	1	3	0.0500	0.0500	0	1	0.659	69	0	0
112	1	9	0	1	3	0.0500	0.0500	1	0	0.577	0	82	0
112	1	10	9	1	1	0.0500	0.0500	1	1	0.698	0	82	0
112	1	11	0	2	3	0.0500	0.0500	0	1	0.423	9	82	82
112	1	12	1	1	3	0.0500	0.0500	0	1	0.359	99	0	0
112	1	13	0	2	3	0.0500	0.0500	1	1	0.480	9	0	82
112	1	14	1	2	3	0.0500	0.0500	1	1	0.432	92	82	0
112	1	15	1	1	3	0.0500	0.0500	0	1	0.401	95	0	0
112	1	16	0	2	3	0.0500	0.0500	0	1	0.547	8	82	82
112	1	17	0	1	1	0.0500	0.0500	1	1	0.556	8	82	0
112	1	18	0	2	2	0.0500	0.0500	1	0	0.342	0	0	82
112	1	19	0	1	1	0.0500	0.0500	0	1	0.546	8	82	82
112	1	20	0	2	2	0.0500	0.0500	1	1	0.411	9	0	82
112	1	21	1	2	2	0.0500	0.0500	1	1	0.590	76	82	0
112	1	22	9	2	2	0.0500	0.0500	1	0	0.442	0	0	82
112	1	23	1	2	3	0.0500	0.0500	0	0	0.594	0	0	0
112	1	24	0	1	3	0.0500	0.0500	1	1	0.652	7	82	0
112	1	25	0	1	1	0.0500	0.0500	1	1	0.405	9	82	0
112	1	26	1	1	3	0.0500	0.0500	1	0	1.062	0	0	82
112	1	27	1	2	2	0.0500	0.0500	1	1	0.556	79	82	0
112	1	28	9	2	2	0.0500	0.0500	0	1	0.760	0	0	0
112	1	29	0	2	3	0.0500	0.0500	1	1	0.849	5	0	82
112	1	30	0	1	3	0.0500	0.0500	1	1	0.458	9	82	0
112	1	31	1	1	3	0.0500	0.0500	1	1	0.617	73	0	82
112	1	32	1	1	1	0.0500	0.0500	0	1	0.514	84	0	0
112	1	33	1	1	3	0.0500	0.0500	0	1	0.591	76	0	0
112	1	34	9	1	2	0.0500	0.0500	0	1	0.360	0	0	0
112	1	35	9	2	2	0.0500	0.0500	1	1	0.530	0	0	82
112	1	36	0	1	2	0.0500	0.0500	1	1	0.624	7	82	0
112	1	37	0	2	3	0.0500	0.0500	0	1	0.714	6	82	82
112	1	38	1	1	2	0.0500	0.0500	1	1	0.615	73	0	82
112	1	39	1	2	2	0.0500	0.0500	1	1	0.553	80	82	0
112	1	40	9	2	2	0.0500	0.0500	1	1	1.196	0	82	0
112	1	41	1	1	1	0.0500	0.0500	1	1	0.502	85	0	82
112	1	42	1	1	1	0.0500	0.0500	1	1	0.435	91	0	82
112	1	43	9	2	3	0.0500	0.0500	1	1	0.563	0	82	0
112	1	44	1	1	1	0.0500	0.0500	1	1	0.415	93	0	82
112	1	45	0	1	1	0.0500	0.0500	1	1	0.479	9	82	0
112	1	46	0	2	2	0.0500	0.0500	1	0	0.662	0	0	82
112	1	47	1	1	1	0.0500	0.0500	1	1	0.692	66	0	82
112	1	48	0	2	2	0.0500	0.0500	1	1	0.803	5	0	82
112	1	49	0	1	1	0.0500	0.0500	0	1	0.436	9	82	82
112	1	50	1	1	3	0.0500	0.0500	0	1	0.389	96	0	0
112	1	51	0	2	2	0.0500	0.0500	1	1	0.512	8	0	82
112	1	52	0	1	1	0.0500	0.0500	1	1	0.574	8	82	0
112	1	53	9	1	3	0.0500	0.0500	0	1	0.471	0	0	0
112	1	54	0	2	2	0.0500	0.0500	0	1	0.574	8	82	82
112	1	55	1	2	2	0.0500	0.0500	0	1	0.392	96	0	0
112	1	56	1	1	1	0.0500	0.0500	1	1	0.329	100	0	82
112	1	57	1	2	3	0.0500	0.0500	0	1	0.478	87	0	0
112	1	58	0	2	2	0.0500	0.0500	1	1	0.388	10	0	82
112	1	59	0	2	2	0.0500	0.0500	0	1	0.460	9	82	82
112	1	60	1	2	3	0.0500	0.0500	1	1	0.377	97	82	0
112	1	61	9	1	3	0.0500	0.0500	0	1	0.563	0	82	82
112	1	62	1	2	2	0.0500	0.0500	0	1	0.332	100	0	0
112	1	63	9	1	1	0.0500	0.0500	0	0	0.351	0	0	0
112	1	64	0	1	1	0.0500	0.0500	1	0	0.425	0	82	0
112	1	65	1	1	3	0.0500	0.0500	0	1	0.483	87	0	0
112	1	66	0	2	3	0.0500	0.0500	0	1	0.424	9	82	82
112	1	67	0	2	3	0.0500	0.0500	1	1	0.409	9	0	82
112	1	68	9	1	1	0.0500	0.0500	0	1	0.434	0	82	82
112	1	69	0	2	3	0.0500	0.0500	0	0	0.601	0	82	82
112	1	70	1	1	3	0.0500	0.0500	1	1	0.689	66	0	82
112	1	71	9	1	1	0.0500	0.0500	0	1	0.389	0	82	82
112	1	72	9	1	2	0.0500	0.0500	0	1	0.342	0	82	82
112	1	73	1	2	1	0.0500	0.0500	0	1	0.480	87	0	0
112	1	74	1	2	2	0.0500	0.0500	0	1	0.437	91	0	0
112	1	75	1	1	3	0.0500	0.0500	0	1	0.430	92	0	0
112	1	76	0	2	3	0.0500	0.0500	1	1	0.511	8	0	82
112	1	77	1	1	3	0.0500	0.0500	1	0	0.493	0	0	82
112	1	78	9	1	1	0.0500	0.0500	1	1	0.563	0	82	0
112	1	79	1	2	2	0.0500	0.0500	1	0	0.405	0	82	0
112	1	80	1	1	3	0.0500	0.0500	1	0	1.484	0	0	82
112	1	81	9	2	2	0.0500	0.0500	1	1	0.662	0	82	0
112	1	82	0	1	3	0.0500	0.0500	0	1	0.580	8	82	82
112	1	83	0	2	2	0.0500	0.0500	1	1	0.556	8	0	82
112	1	84	9	2	3	0.0500	0.0500	1	1	0.569	0	0	82
112	1	85	1	2	3	0.0500	0.0500	0	0	0.603	0	0	0
112	1	86	0	1	3	0.0500	0.0500	0	1	0.542	8	82	82
112	1	87	1	2	2	0.0500	0.0500	0	1	0.506	84	0	0
112	1	88	9	1	1	0.0500	0.0500	1	1	0.542	0	82	0
112	1	89	0	1	3	0.0500	0.0500	0	1	0.498	9	82	82
112	1	90	0	1	3	0.0500	0.0500	1	1	0.448	9	82	0
112	1	91	1	2	3	0.0500	0.0500	1	1	0.478	87	82	0
112	1	92	0	2	3	0.0500	0.0500	0	1	0.541	8	82	82
112	1	93	1	2	3	0.0500	0.0500	1	1	0.417	93	82	0
112	1	94	0	1	1	0.0500	0.0500	1	1	0.387	10	82	0
112	1	95	1	1	2	0.0500	0.0500	1	0	0.373	0	0	82
112	1	96	1	2	2	0.0500	0.0500	1	1	0.600	75	82	0
112	1	97	0	2	2	0.0500	0.0500	0	1	0.583	8	82	82
112	1	98	9	1	1	0.0500	0.0500	0	1	0.425	0	82	82
112	1	99	0	2	3	0.0500	0.0500	0	1	0.650	7	82	82
112	1	100	1	1	3	0.0500	0.0500	0	1	0.563	79	0	0
112	1	101	9	1	3	0.0500	0.0500	1	1	0.593	0	82	0
112	1	102	1	1	3	0.0500	0.0500	0	1	0.441	91	0	0
112	1	103	9	1	1	0.0500	0.0500	1	1	0.496	0	0	82
112	1	104	9	1	3	0.0500	0.0500	0	1	0.471	0	0	0
112	1	105	0	1	1	0.0500	0.0500	1	1	0.595	8	82	0
112	1	106	0	1	3	0.0500	0.0500	0	1	0.427	9	82	82
112	1	107	9	2	2	0.0500	0.0500	0	1	0.492	0	82	82
112	1	108	0	1	1	0.0500	0.0500	0	0	0.410	0	82	82
112	1	109	1	2	2	0.0500	0.0500	0	1	0.626	72	0	0
112	1	110	1	2	3	0.0500	0.0500	1	1	0.588	76	82	0
112	1	111	0	1	2	0.0500	0.0500	0	1	0.383	10	82	82
112	1	112	1	2	3	0.0500	0.0500	0	1	1.321	50	0	0
112	1	113	1	1	1	0.0500	0.0500	1	0	0.573	0	0	82
112	1	114	0	1	3	0.0500	0.0500	0	1	0.414	9	82	82
112	1	115	1	2	3	0.0500	0.0500	0	1	0.696	65	0	0
112	1	116	0	1	3	0.0500	0.0500	1	0	0.400	0	82	0
112	1	117	1	2	2	0.0500	0.0500	0	1	0.592	76	0	0
112	1	118	1	1	2	0.0500	0.0500	0	1	0.505	84	0	0
112	1	119	0	1	3	0.0500	0.0500	0	1	0.455	9	82	82
112	1	120	0	1	3	0.0500	0.0500	1	1	0.742	6	82	0
112	1	121	0	2	3	0.0500	0.0500	1	1	0.620	7	0	82
112	1	122	9	1	1	0.0500	0.0500	1	1	0.517	0	82	0
112	1	123	0	1	3	0.0500	0.0500	0	0	0.591	0	82	82
112	1	124	1	2	3	0.0500	0.0500	0	1	0.495	85	0	0
112	1	125	1	2	1	0.0500	0.0500	0	1	0.597	75	0	0
112	1	126	9	1	3	0.0500	0.0500	1	0	0.383	0	0	82
112	1	127	1	2	3	0.0500	0.0500	1	1	0.559	79	82	0
112	1	128	1	2	3	0.0500	0.0500	1	1	0.552	80	82	0
112	1	129	1	1	1	0.0500	0.0500	1	1	0.644	71	0	82
112	1	130	1	1	1	0.0500	0.0500	0	1	0.420	93	0	0
112	1	131	9	1	3	0.0500	0.0500	0	1	0.523	0	82	82
112	1	132	1	1	1	0.0500	0.0500	1	1	0.473	88	0	82
112	1	133	0	1	1	0.0500	0.0500	0	1	0.392	10	82	82
112	1	134	0	1	3	0.0500	0.0500	1	1	0.387	10	82	0
112	1	135	1	2	3	0.0500	0.0500	1	1	0.404	95	82	0
112	1	136	0	1	1	0.0500	0.0500	0	1	0.414	9	82	82
112	1	137	0	2	2	0.0500	0.0500	1	1	0.438	9	0	82
112	1	138	1	2	1	0.0500	0.0500	1	1	0.511	84	82	0
112	1	139	1	2	2	0.0500	0.0500	1	1	0.475	87	82	0
112	1	140	0	2	3	0.0500	0.0500	1	1	0.504	8	0	82
112	1	141	1	2	2	0.0500	0.0500	1	1	0.487	86	82	0
112	1	142	1	2	3	0.0500	0.0500	1	1	0.404	95	82	0
112	1	143	1	1	3	0.0500	0.0500	0	1	0.445	91	0	0
112	1	144	1	1	3	0.0500	0.0500	1	1	0.394	96	0	82
112	1	145	1	1	1	0.0500	0.0500	1	1	0.514	84	0	82
112	1	146	9	2	3	0.0500	0.0500	1	1	0.465	0	82	0
112	1	147	1	2	2	0.0500	0.0500	0	1	0.656	69	0	0
112	1	148	0	1	3	0.0500	0.0500	1	1	0.369	10	82	0
112	1	149	1	1	1	0.0500	0.0500	1	1	0.506	84	0	82
112	1	150	1	2	3	0.0500	0.0500	0	1	0.409	94	0	0
112	1	151	0	1	1	0.0500	0.0500	1	1	0.331	10	82	0
112	1	152	9	1	3	0.0500	0.0500	0	1	0.407	0	82	82
112	1	153	1	2	3	0.0500	0.0500	0	0	0.416	0	0	0
112	1	154	1	2	2	0.0500	0.0500	0	1	0.431	92	0	0
112	1	155	0	1	3	0.0500	0.0500	1	0	0.511	0	82	0
112	1	156	9	2	2	0.0500	0.0500	1	1	0.525	0	82	0
112	1	157	0	2	1	0.0500	0.0500	0	1	0.594	8	82	82
112	1	158	0	2	3	0.0500	0.0500	0	1	0.507	8	82	82
112	1	159	9	1	3	0.0500	0.0500	1	1	0.559	0	0	82
112	1	160	0	1	2	0.0500	0.0500	0	1	0.473	9	82	82
112	1	161	0	1	1	0.0500	0.0500	1	1	0.548	8	82	0
112	1	162	0	1	3	0.0500	0.0500	0	1	0.560	8	82	82
112	1	163	9	2	3	0.0500	0.0500	1	1	0.450	0	82	0
112	1	164	9	1	1	0.0500	0.0500	0	1	0.465	0	0	0
112	1	165	9	2	3	0.0500	0.0500	1	1	0.473	0	0	82
112	1	166	0	1	2	0.0500	0.0500	0	1	0.336	10	82	82
112	1	167	0	2	1	0.0500	0.0500	1	1	0.420	9	0	82
112	1	168	0	1	2	0.0500	0.0500	1	0	0.646	0	82	0
112	1	169	1	2	1	0.0500	0.0500	0	1	0.406	94	0	0
112	1	170	9	2	3	0.0500	0.0500	0	1	0.586	0	82	82
112	1	171	1	1	3	0.0500	0.0500	1	1	0.804	55	0	82
112	1	172	9	2	3	0.0500	0.0500	0	1	0.519	0	0	0
112	1	173	1	1	1	0.0500	0.0500	0	0	0.717	0	0	0
112	1	174	0	1	2	0.0500	0.0500	0	1	0.753	6	82	82
112	1	175	1	1	2	0.0500	0.0500	1	1	0.555	79	0	82
112	1	176	9	2	1	0.0500	0.0500	0	1	0.647	0	0	0
112	1	177	1	1	1	0.0500	0.0500	0	0	0.759	0	0	0
112	1	178	0	2	2	0.0500	0.0500	1	0	0.585	0	0	82
112	1	179	1	2	3	0.0500	0.0500	0	1	0.732	62	0	0
112	1	180	0	1	1	0.0500	0.0500	0	1	0.522	8	82	82
112	1	181	1	1	3	0.0500	0.0500	0	1	0.573	78	0	0
112	1	182	0	1	1	0.0500	0.0500	1	1	0.392	10	82	0
112	1	183	1	1	1	0.0500	0.0500	0	1	0.426	92	0	0
112	1	184	0	2	3	0.0500	0.0500	1	1	0.593	8	0	82
112	1	185	1	2	2	0.0500	0.0500	0	1	0.875	50	0	0
112	1	186	0	2	2	0.0500	0.0500	0	1	0.538	8	82	82
112	1	187	1	2	3	0.0500	0.0500	0	1	0.408	94	0	0
112	1	188	1	2	2	0.0500	0.0500	0	0	0.367	0	0	0
112	1	189	0	2	2	0.0500	0.0500	0	1	0.496	9	82	82
112	1	190	0	1	1	0.0500	0.0500	0	1	0.421	9	82	82
112	1	191	9	1	3	0.0500	0.0500	0	1	0.478	0	0	0
112	1	192	0	2	3	0.0500	0.0500	0	1	0.518	8	82	82
112	1	193	9	2	3	0.0500	0.0500	0	1	0.413	0	82	82
112	1	194	1	2	3	0.0500	0.0500	0	1	0.415	94	0	0
112	1	195	0	2	2	0.0500	0.0500	1	1	0.793	6	0	82
112	1	196	1	1	3	0.0500	0.0500	1	0	0.419	0	0	82
112	1	197	1	2	2	0.0500	0.0500	0	1	0.476	87	0	0
112	1	198	1	2	2	0.0500	0.0500	1	1	0.540	81	82	0
112	1	199	1	2	3	0.0500	0.0500	0	1	0.712	64	0	0
112	1	200	0	1	3	0.0500	0.0500	1	0	0.514	0	82	0
112	1	201	1	1	3	0.0500	0.0500	0	1	0.470	88	0	0
112	1	202	0	1	1	0.0500	0.0500	1	1	0.654	7	82	0
112	1	203	1	1	2	0.0500	0.0500	1	1	0.423	93	0	82
112	1	204	0	2	3	0.0500	0.0500	1	1	0.838	5	0	82
112	1	205	1	1	1	0.0500	0.0500	1	1	0.397	95	0	82
112	1	206	0	2	3	0.0500	0.0500	1	0	0.614	0	0	82
112	1	207	0	2	1	0.0500	0.0500	0	1	0.455	9	82	82
112	1	208	0	1	1	0.0500	0.0500	0	1	0.511	8	82	82
112	1	209	0	2	2	0.0500	0.0500	0	0	0.492	0	82	82
112	1	210	1	2	3	0.0500	0.0500	1	0	0.610	0	82	0
112	1	211	0	2	2	0.0500	0.0500	1	1	0.506	8	0	82
112	1	212	1	2	2	0.0500	0.0500	1	1	0.521	83	82	0
112	1	213	0	2	2	0.0500	0.0500	0	1	0.460	9	82	82
112	1	214	0	1	3	0.0500	0.0500	1	1	0.977	5	82	0
112	1	215	0	2	3	0.0500	0.0500	0	1	0.573	8	82	82
112	1	216	0	1	1	0.0500	0.0500	0	1	0.481	9	82	82
112	1	217	9	2	2	0.0500	0.0500	0	1	0.608	0	82	82
112	1	218	9	1	3	0.0500	0.0500	1	1	1.538	0	82	0
112	1	219	9	1	1	0.0500	0.0500	0	1	0.430	0	82	82
112	1	220	0	2	2	0.0500	0.0500	0	1	0.463	9	82	82
112	1	221	1	1	1	0.0500	0.0500	1	1	0.762	59	0	82
112	1	222	0	2	2	0.0500	0.0500	1	1	0.502	8	0	82
112	1	223	0	2	3	0.0500	0.0500	0	1	0.458	9	82	82
112	1	224	0	2	3	0.0500	0.0500	0	0	0.410	0	82	82
112	1	225	1	1	1	0.0500	0.0500	0	1	0.405	95	0	0
112	1	226	0	2	3	0.0500	0.0500	1	0	0.639	0	0	82
112	1	227	0	1	1	0.0500	0.0500	0	1	0.577	8	82	82
112	1	228	9	2	2	0.0500	0.0500	0	1	0.764	0	0	0
112	1	229	0	1	1	0.0500	0.0500	0	1	0.540	8	82	82
112	1	230	0	2	2	0.0500	0.0500	0	1	0.568	8	82	82
112	1	231	9	2	1	0.0500	0.0500	1	1	0.497	0	82	0
112	1	232	0	1	3	0.0500	0.0500	1	1	0.743	6	82	0
112	1	233	1	2	1	0.0500	0.0500	1	1	0.393	96	82	0
112	1	234	0	2	2	0.0500	0.0500	0	1	0.370	10	82	82
112	1	235	9	1	2	0.0500	0.0500	1	1	0.606	0	82	0
112	1	236	9	2	3	0.0500	0.0500	1	1	0.703	0	82	0
112	1	237	0	2	3	0.0500	0.0500	1	1	0.614	7	0	82
112	1	238	1	1	1	0.0500	0.0500	0	1	0.567	78	0	0
112	1	239	0	2	3	0.0500	0.0500	1	0	0.490	0	0	82
112	1	240	0	2	2	0.0500	0.0500	0	1	0.630	7	82	82
112	1	241	9	2	2	0.0500	0.0500	0	1	0.552	0	82	82
112	1	242	0	2	3	0.0500	0.0500	0	1	0.609	7	82	82
112	1	243	1	2	3	0.0500	0.0500	1	1	0.491	86	82	0
112	1	244	9	1	1	0.0500	0.0500	1	0	1.362	0	0	82
112	1	245	0	1	3	0.0500	0.0500	0	1	0.700	7	82	82
112	1	246	9	1	2	0.0500	0.0500	1	0	0.552	0	0	82
112	1	247	9	2	2	0.0500	0.0500	0	1	0.498	0	0	0
112	1	248	0	2	2	0.0500	0.0500	1	1	0.608	7	0	82
112	1	249	0	2	1	0.0500	0.0500	0	0	1.050	0	82	82
112	1	250	0	1	1	0.0500	0.0500	0	1	0.459	9	82	82
112	1	251	1	2	2	0.0500	0.0500	1	1	0.591	76	82	0
112	1	252	9	1	3	0.0500	0.0500	0	1	0.544	0	0	0
112	1	253	9	2	3	0.0500	0.0500	0	1	0.900	0	82	82
112	1	254	0	1	3	0.0500	0.0500	1	1	0.400	10	82	0
112	1	255	1	1	3	0.0500	0.0500	0	1	0.464	89	0	0
112	1	256	1	2	3	0.0500	0.0500	1	1	0.605	74	82	0
112	1	257	0	1	3	0.0500	0.0500	0	1	0.432	9	82	82
112	1	258	0	1	3	0.0500	0.0500	0	1	0.417	9	82	82
112	1	259	1	1	3	0.0500	0.0500	1	0	0.387	0	0	82
112	1	260	1	2	2	0.0500	0.0500	1	1	0.493	86	82	0
112	1	261	1	2	2	0.0500	0.0500	0	1	0.558	79	0	0
112	1	262	1	1	1	0.0500	0.0500	0	1	0.527	82	0	0
112	1	263	9	1	1	0.0500	0.0500	0	1	0.405	0	0	0
112	1	264	1	2	1	0.0500	0.0500	0	0	0.552	0	0	0
112	1	265	0	2	2	0.0500	0.0500	0	1	0.482	9	82	82
112	1	266	0	1	1	0.0500	0.0500	1	1	0.631	7	82	0
112	1	267	1	1	1	0.0500	0.0500	0	1	0.559	79	0	0
112	1	268	9	1	3	0.0500	0.0500	0	1	0.419	0	82	82
112	1	269	0	1	3	0.0500	0.0500	0	1	0.331	10	82	82
112	1	270	1	2	2	0.0500	0.0500	0	1	0.600	75	0	0
112	1	271	0	1	1	0.0500	0.0500	0	1	0.416	9	82	82
112	1	272	1	1	3	0.0500	0.0500	0	1	0.443	91	0	0
112	1	273	0	1	3	0.0500	0.0500	0	1	0.419	9	82	82
112	1	274	0	1	1	0.0500	0.0500	1	1	0.421	9	82	0
112	1	275	1	2	2	0.0500	0.0500	1	1	0.540	81	82	0
112	1	276	9	1	1	0.0500	0.0500	1	1	0.560	0	0	82
112	1	277	9	1	3	0.0500	0.0500	1	0	0.482	0	82	0
112	1	278	1	1	1	0.0500	0.0500	0	1	0.481	87	0	0
112	1	279	0	2	2	0.0500	0.0500	1	1	0.735	6	0	82
112	1	280	1	1	3	0.0500	0.0500	1	1	0.450	90	0	82
112	1	281	0	2	2	0.0500	0.0500	0	1	0.553	8	82	82
112	1	282	0	2	3	0.0500	0.0500	1	1	0.691	7	0	82
112	1	283	1	1	2	0.0500	0.0500	0	1	0.401	95	0	0
112	1	284	9	2	3	0.0500	0.0500	0	0	0.712	0	0	0
112	1	285	1	1	1	0.0500	0.0500	0	1	0.355	99	0	0
112	1	286	0	2	3	0.0500	0.0500	0	0	0.413	0	82	82
112	1	287	0	2	3	0.0500	0.0500	1	0	0.404	0	0	82
112	1	288	0	1	1	0.0500	0.0500	0	1	0.436	9	82	82
112	1	289	0	2	2	0.0500	0.0500	0	0	0.474	0	82	82
112	1	290	0	1	3	0.0500	0.0500	1	1	0.616	7	82	0
112	1	291	0	2	3	0.0500	0.0500	1	1	0.479	9	0	82
112	1	292	1	1	1	0.0500	0.0500	0	1	0.372	98	0	0
112	1	293	1	2	3	0.0500	0.0500	1	1	0.552	80	82	0
112	1	294	1	2	1	0.0500	0.0500	1	1	0.338	100	82	0
112	1	295	1	1	3	0.0500	0.0500	1	0	0.502	0	0	82
112	1	296	1	2	3	0.0500	0.0500	1	1	0.469	88	82	0
112	1	297	0	2	1	0.0500	0.0500	0	1	0.485	9	82	82
112	1	298	9	2	3	0.0500	0.0500	0	0	0.611	0	0	0
112	1	299	0	2	2	0.0500	0.0500	0	1	0.419	9	82	82
112	1	300	1	2	3	0.0500	0.0500	0	0	0.901	0	0	0
112	1	301	9	1	1	0.0500	0.0500	0	1	0.460	0	0	0
112	1	302	0	2	3	0.0500	0.0500	1	1	0.345	10	0	82
112	1	303	0	1	1	0.0500	0.0500	1	0	0.477	0	82	0
112	1	304	9	1	1	0.0500	0.0500	1	1	0.492	0	0	82
112	1	305	1	1	1	0.0500	0.0500	0	1	0.547	80	0	0
112	1	306	1	1	1	0.0500	0.0500	0	1	0.448	90	0	0
112	1	307	1	2	3	0.0500	0.0500	0	1	0.799	55	0	0
112	1	308	1	1	3	0.0500	0.0500	1	1	0.375	97	0	82
112	1	309	1	1	2	0.0500	0.0500	0	1	0.313	100	0	0
112	1	310	1	2	2	0.0500	0.0500	0	1	0.479	87	0	0
112	1	311	0	2	2	0.0500	0.0500	0	1	0.510	8	82	82
112	1	312	1	1	2	0.0500	0.0500	0	1	0.307	100	0	0
112	1	313	9	2	1	0.0500	0.0500	0	1	0.447	0	82	82
112	1	314	0	1	1	0.0500	0.0500	0	1	0.669	7	82	82
112	1	315	0	2	1	0.0500	0.0500	1	1	0.426	9	0	82
112	1	316	0	1	3	0.0500	0.0500	0	1	0.387	10	82	82
112	1	317	1	1	3	0.0500	0.0500	0	1	0.358	99	0	0
112	1	318	1	1	1	0.0500	0.0500	1	1	0.369	98	0	82
112	1	319	0	1	1	0.0500	0.0500	1	1	0.491	9	82	0
112	1	320	9	2	2	0.0500	0.0500	0	1	0.345	0	0	0
112	1	321	0	1	3	0.0500	0.0500	0	1	0.357	10	82	82
112	1	322	0	1	3	0.0500	0.0500	0	1	0.423	9	82	82
112	1	323	0	2	2	0.0500	0.0500	1	1	0.456	9	0	82
112	1	324	1	1	3	0.0500	0.0500	0	1	0.530	82	0	0
112	1	325	9	2	3	0.0500	0.0500	1	1	0.383	0	0	82
112	1	326	0	1	2	0.0500	0.0500	1	1	0.472	9	82	0
112	1	327	1	2	2	0.0500	0.0500	1	1	0.445	90	82	0
112	1	328	1	2	3	0.0500	0.0500	1	1	0.429	92	82	0
112	1	329	9	2	3	0.0500	0.0500	0	1	0.653	0	82	82
112	1	330	9	1	3	0.0500	0.0500	1	0	0.677	0	0	82
112	1	331	9	2	2	0.0500	0.0500	1	1	0.515	0	82	0
112	1	332	0	1	2	0.0500	0.0500	1	1	0.590	8	82	0
112	1	333	0	2	3	0.0500	0.0500	0	1	0.450	9	82	82
112	1	334	0	1	3	0.0500	0.0500	1	1	0.603	7	82	0
112	1	335	1	1	1	0.0500	0.0500	1	1	0.494	86	0	82
112	1	336	9	2	1	0.0500	0.0500	1	1	0.605	0	0	82
112	1	337	9	2	3	0.0500	0.0500	0	0	0.677	0	0	0
112	1	338	0	2	1	0.0500	0.0500	1	1	0.373	10	0	82
112	1	339	0	1	1	0.0500	0.0500	0	1	0.456	9	82	82
112	1	340	1	2	3	0.0500	0.0500	0	0	0.431	0	0	0
112	1	341	9	2	2	0.0500	0.0500	1	0	0.571	0	0	82
112	1	342	0	1	3	0.0500	0.0500	1	1	0.500	8	82	0
112	1	343	1	1	3	0.0500	0.0500	1	0	0.313	0	0	82
112	1	344	1	2	2	0.0500	0.0500	0	1	0.405	94	0	0
112	1	345	1	2	1	0.0500	0.0500	1	1	0.382	97	82	0
112	1	346	1	2	2	0.0500	0.0500	0	1	0.368	98	0	0
112	1	347	1	2	2	0.0500	0.0500	1	0	0.634	0	82	0
112	1	348	9	1	3	0.0500	0.0500	1	1	0.418	0	0	82
112	1	349	9	2	3	0.0500	0.0500	1	0	0.539	0	0	82
112	1	350	0	1	1	0.0500	0.0500	1	1	0.505	8	82	0
112	1	351	0	2	3	0.0500	0.0500	0	1	0.393	10	82	82
112	1	352	0	2	1	0.0500	0.0500	1	1	0.395	10	0	82
112	1	353	1	1	1	0.0500	0.0500	1	1	0.331	100	0	82
112	1	354	1	2	2	0.0500	0.0500	1	0	0.265	0	82	0
112	1	355	1	1	1	0.0500	0.0500	1	1	0.318	100	0	82
112	1	356	1	2	3	0.0500	0.0500	0	1	0.532	82	0	0
112	1	357	0	2	2	0.0500	0.0500	1	1	0.482	9	0	82
112	1	358	1	2	2	0.0500	0.0500	1	0	0.257	0	82	0
112	1	359	9	1	3	0.0500	0.0500	1	1	0.521	0	82	0
112	1	360	1	2	3	0.0500	0.0500	1	1	0.533	82	82	0
112	1	361	1	2	2	0.0500	0.0500	0	1	0.638	71	0	0
112	1	362	0	2	2	0.0500	0.0500	1	0	0.325	0	0	82
112	1	363	9	1	3	0.0500	0.0500	1	1	0.647	0	82	0
112	1	364	0	2	3	0.0500	0.0500	1	1	0.541	8	0	82
112	1	365	0	1	2	0.0500	0.0500	0	1	0.360	10	82	82
112	1	366	0	1	1	0.0500	0.0500	0	1	0.483	9	82	82
112	1	367	1	1	1	0.0500	0.0500	0	1	0.410	94	0	0
112	1	368	1	1	3	0.0500	0.0500	1	1	0.548	80	0	82
112	1	369	0	2	3	0.0500	0.0500	1	1	0.624	7	0	82
112	1	370	1	1	1	0.0500	0.0500	0	1	0.369	98	0	0
112	1	371	1	1	1	0.0500	0.0500	0	1	0.412	94	0	0
112	1	372	9	2	2	0.0500	0.0500	0	0	0.469	0	0	0
112	1	373	0	1	1	0.0500	0.0500	0	1	0.397	10	82	82
112	1	374	1	2	1	0.0500	0.0500	1	1	0.556	79	82	0
112	1	375	1	1	3	0.0500	0.0500	1	1	0.543	81	0	82
112	1	376	1	1	2	0.0500	0.0500	0	1	0.436	91	0	0
112	1	377	1	2	1	0.0500	0.0500	1	1	0.363	99	82	0
112	1	378	1	2	3	0.0500	0.0500	1	1	0.575	78	82	0
112	1	379	1	1	1	0.0500	0.0500	0	1	0.353	100	0	0
112	1	380	0	1	3	0.0500	0.0500	0	1	0.341	10	82	82
112	1	381	1	1	3	0.0500	0.0500	0	1	0.321	100	0	0
112	1	382	1	1	3	0.0500	0.0500	0	1	0.365	98	0	0
112	1	383	1	1	1	0.0500	0.0500	0	1	0.360	99	0	0
112	1	384	0	2	1	0.0500	0.0500	0	0	0.468	0	82	82
112	1	385	9	2	3	0.0500	0.0500	0	1	0.634	0	0	0
112	1	386	1	1	3	0.0500	0.0500	0	1	0.393	96	0	0
112	1	387	0	1	3	0.0500	0.0500	0	1	0.395	10	82	82
112	1	388	0	1	3	0.0500	0.0500	1	1	0.559	8	82	0
112	1	389	1	1	3	0.0500	0.0500	0	1	0.473	88	0	0
112	1	390	1	1	2	0.0500	0.0500	0	1	0.335	100	0	0
112	1	391	1	1	1	0.0500	0.0500	1	1	0.419	93	0	82
112	1	392	0	2	3	0.0500	0.0500	0	1	0.347	10	82	82
112	1	393	0	2	3	0.0500	0.0500	1	1	0.622	7	0	82
112	1	394	9	2	2	0.0500	0.0500	1	1	0.527	0	0	82
112	1	395	1	1	1	0.0500	0.0500	1	1	0.483	87	0	82
112	1	396	9	2	1	0.0500	0.0500	0	1	0.449	0	82	82
112	1	397	9	2	1	0.0500	0.0500	1	1	0.670	0	82	0
112	1	398	0	1	1	0.0500	0.0500	1	1	0.604	7	82	0
112	1	399	1	1	1	0.0500	0.0500	0	0	0.326	0	0	0
112	1	400	0	1	1	0.0500	0.0500	0	1	0.506	8	82	82
112	1	401	0	2	1	0.0500	0.0500	1	0	0.641	0	0	82
112	1	402	9	2	3	0.0500	0.0500	1	1	0.488	0	82	0
112	1	403	0	1	3	0.0500	0.0500	0	1	0.374	10	82	82
112	1	404	1	2	2	0.0500	0.0500	0	1	0.618	73	0	0
112	1	405	1	1	1	0.0500	0.0500	1	1	0.284	100	0	82
112	1	406	1	1	3	0.0500	0.0500	1	1	0.363	99	0	82
112	1	407	0	1	3	0.0500	0.0500	0	1	0.293	10	82	82
112	1	408	1	2	2	0.0500	0.0500	0	0	0.465	0	0	0
112	1	409	0	1	1	0.0500	0.0500	1	1	0.455	9	82	0
112	1	410	1	2	2	0.0500	0.0500	0	1	0.350	100	0	0
112	1	411	1	2	2	0.0500	0.0500	0	1	0.450	90	0	0
112	1	412	0	1	3	0.0500	0.0500	1	1	0.385	10	82	0
112	1	413	0	2	2	0.0500	0.0500	0	1	0.340	10	82	82
112	1	414	9	1	1	0.0500	0.0500	1	1	0.208	0	82	0
112	1	415	1	2	3	0.0500	0.0500	1	0	0.265	0	82	0
112	1	416	0	2	2	0.0500	0.0500	0	1	0.329	10	82	82
112	1	417	0	2	3	0.0500	0.0500	0	1	0.574	8	82	82
112	1	418	1	1	1	0.0500	0.0500	0	0	0.255	0	0	0
112	1	419	1	1	3	0.0500	0.0500	1	0	0.302	0	0	82
112	1	420	0	2	2	0.0500	0.0500	1	0	0.716	0	0	82
112	1	421	9	1	3	0.0500	0.0500	0	1	0.399	0	82	82
112	1	422	9	1	3	0.0500	0.0500	1	1	0.586	0	0	82
112	1	423	0	1	1	0.0500	0.0500	0	1	0.398	10	82	82
112	1	424	0	1	1	0.0500	0.0500	1	1	0.343	10	82	0
112	1	425	0	2	1	0.0500	0.0500	1	0	0.466	0	0	82
112	1	426	0	1	1	0.0500	0.0500	1	1	0.569	8	82	0
112	1	427	9	2	3	0.0500	0.0500	1	1	0.586	0	82	0
112	1	428	0	1	1	0.0500	0.0500	0	1	0.429	9	82	82
112	1	429	9	1	3	0.0500	0.0500	1	1	0.455	0	82	0
112	1	430	1	1	3	0.0500	0.0500	1	1	0.462	89	0	82
112	1	431	9	2	2	0.0500	0.0500	1	1	0.582	0	0	82
112	1	432	1	2	2	0.0500	0.0500	1	0	0.336	0	82	0
112	1	433	0	1	1	0.0500	0.0500	1	1	0.493	9	82	0
112	1	434	1	2	2	0.0500	0.0500	0	1	0.578	77	0	0
112	1	435	1	1	1	0.0500	0.0500	0	1	0.492	86	0	0
112	1	436	0	2	3	0.0500	0.0500	0	1	0.515	8	82	82
112	1	437	0	2	2	0.0500	0.0500	1	1	0.456	9	0	82
112	1	438	1	1	3	0.0500	0.0500	0	1	0.390	96	0	0
112	1	439	1	2	2	0.0500	0.0500	0	1	0.408	94	0	0
112	1	440	0	2	2	0.0500	0.0500	0	1	0.359	10	82	82
112	1	441	1	1	3	0.0500	0.0500	1	1	0.634	72	0	82
112	1	442	0	1	3	0.0500	0.0500	1	1	0.594	8	82	0
112	1	443	1	2	3	0.0500	0.0500	0	1	0.427	92	0	0
112	1	444	9	1	1	0.0500	0.0500	0	1	0.428	0	0	0
112	1	445	0	1	3	0.0500	0.0500	0	1	0.412	9	82	82
112	1	446	1	1	2	0.0500	0.0500	0	1	0.390	96	0	0
112	1	447	1	2	3	0.0500	0.0500	1	1	0.358	99	82	0
112	1	448	9	2	2	0.0500	0.0500	1	1	0.514	0	82	0
112	1	449	1	2	3	0.0500	0.0500	1	1	0.519	83	82	0
112	1	450	1	1	3	0.0500	0.0500	1	0	0.290	0	0	82
112	1	451	0	2	1	0.0500	0.0500	0	1	0.455	9	82	82
112	1	452	9	2	3	0.0500	0.0500	0	1	0.493	0	0	0
112	1	453	0	1	3	0.0500	0.0500	1	1	0.497	9	82	0
112	1	454	1	1	3	0.0500	0.0500	1	0	0.344	0	0	82
112	1	455	0	1	1	0.0500	0.0500	0	1	0.346	10	82	82
112	1	456	9	2	2	0.0500	0.0500	1	1	0.645	0	0	82
112	1	457	1	2	2	0.0500	0.0500	1	1	0.586	76	82	0
112	1	458	1	1	3	0.0500	0.0500	1	1	0.555	80	0	82
112	1	459	1	2	2	0.0500	0.0500	0	1	0.493	86	0	0
112	1	460	0	1	3	0.0500	0.0500	0	1	0.444	9	82	82
112	1	461	0	1	2	0.0500	0.0500	1	1	0.572	8	82	0
112	1	462	0	1	2	0.0500	0.0500	0	1	0.350	10	82	82
112	1	463	0	2	2	0.0500	0.0500	0	1	0.544	8	82	82
112	1	464	1	2	3	0.0500	0.0500	1	1	0.337	100	82	0
112	1	465	0	2	2	0.0500	0.0500	1	1	0.477	9	0	82
112	1	466	0	1	3	0.0500	0.0500	0	1	0.397	10	82	82
112	1	467	9	2	3	0.0500	0.0500	1	1	0.415	0	0	82
112	1	468	0	1	3	0.0500	0.0500	0	1	0.449	9	82	82
112	1	469	1	1	3	0.0500	0.0500	1	0	0.550	0	0	82
112	1	470	0	1	3	0.0500	0.0500	0	1	0.383	10	82	82
112	1	471	1	1	1	0.0500	0.0500	1	1	0.304	100	0	82
112	1	472	0	1	1	0.0500	0.0500	0	1	0.373	10	82	82
112	1	473	0	2	3	0.0500	0.0500	0	1	0.577	8	82	82
112	1	474	9	2	2	0.0500	0.0500	0	1	0.450	0	82	82
112	1	475	1	2	2	0.0500	0.0500	1	1	0.385	97	82	0
112	1	476	1	2	3	0.0500	0.0500	0	1	0.537	81	0	0
112	1	477	1	1	3	0.0500	0.0500	0	1	0.439	91	0	0
112	1	478	0	1	2	0.0500	0.0500	0	1	0.414	9	82	82
112	1	479	0	1	3	0.0500	0.0500	1	0	0.351	0	82	0
112	1	480	0	1	1	0.0500	0.0500	1	1	0.668	7	82	0
112	1	481	9	1	1	0.0500	0.0500	1	1	0.392	0	82	0
112	1	482	1	1	1	0.0500	0.0500	1	1	0.539	81	0	82
112	1	483	9	1	1	0.0500	0.0500	1	1	0.293	0	0	82
112	1	484	0	2	2	0.0500	0.0500	0	1	0.332	10	82	82
112	1	485	1	2	3	0.0500	0.0500	0	1	0.543	81	0	0
112	1	486	1	2	3	0.0500	0.0500	0	0	0.361	0	0	0
112	1	487	1	1	3	0.0500	0.0500	0	1	0.339	100	0	0
112	1	488	0	1	1	0.0500	0.0500	1	1	0.441	9	82	0
112	1	489	0	1	1	0.0500	0.0500	1	0	0.346	0	82	0
112	1	490	1	1	1	0.0500	0.0500	1	0	0.263	0	0	82
112	1	491	9	2	3	0.0500	0.0500	0	1	0.663	0	82	82
112	1	492	1	1	3	0.0500	0.0500	0	1	0.452	90	0	0
112	1	493	9	2	3	0.0500	0.0500	0	1	0.476	0	82	82
112	1	494	0	1	3	0.0500	0.0500	1	1	0.448	9	82	0
112	1	495	9	2	3	0.0500	0.0500	0	1	0.416	0	82	82
112	1	496	1	1	3	0.0500	0.0500	1	1	0.505	84	0	82
112	1	497	0	1	1	0.0500	0.0500	1	0	0.465	0	82	0
112	1	498	1	1	3	0.0500	0.0500	0	0	0.311	0	0	0
112	1	499	0	2	3	0.0500	0.0500	1	0	0.333	0	0	82
112	1	500	1	1	1	0.0500	0.0500	0	1	0.480	87	0	0
112	1	501	9	1	2	0.0500	0.0500	1	1	0.491	0	82	0
112	1	502	9	1	1	0.0500	0.0500	0	1	0.496	0	82	82
112	1	503	0	2	3	0.0500	0.0500	1	1	0.428	9	0	82
112	1	504	1	2	1	0.0500	0.0500	0	1	0.478	87	0	0
112	1	505	1	1	3	0.0500	0.0500	0	1	0.373	98	0	0
112	1	506	0	1	1	0.0500	0.0500	1	0	0.287	0	82	0
112	1	507	0	2	1	0.0500	0.0500	1	1	0.604	7	0	82
112	1	508	0	1	3	0.0500	0.0500	1	0	0.428	0	82	0
112	1	509	0	1	1	0.0500	0.0500	0	1	0.435	9	82	82
112	1	510	1	2	3	0.0500	0.0500	0	0	0.570	0	0	0
112	1	511	0	1	3	0.0500	0.0500	1	0	0.363	0	82	0
112	1	512	1	2	3	0.0500	0.0500	0	1	0.543	81	0	0
112	1	513	0	2	3	0.0500	0.0500	1	1	0.412	9	0	82
112	1	514	1	2	2	0.0500	0.0500	1	0	1.150	0	82	0
112	1	515	0	1	1	0.0500	0.0500	1	1	0.506	8	82	0
112	1	516	9	2	3	0.0500	0.0500	0	1	0.481	0	0	0
112	1	517	0	1	3	0.0500	0.0500	0	1	0.487	9	82	82
112	1	518	9	1	1	0.0500	0.0500	0	1	0.420	0	82	82
112	1	519	9	1	3	0.0500	0.0500	0	1	0.379	0	0	0
112	1	520	9	2	3	0.0500	0.0500	0	1	0.716	0	82	82
112	1	521	0	1	3	0.0500	0.0500	1	0	0.480	0	82	0
112	1	522	1	2	2	0.0500	0.0500	1	1	0.471	88	82	0
112	1	523	1	1	1	0.0500	0.0500	1	1	0.663	69	0	82
112	1	524	1	1	2	0.0500	0.0500	1	0	0.695	0	0	82
112	1	525	1	1	3	0.0500	0.0500	1	1	0.507	84	0	82
112	1	526	1	1	1	0.0500	0.0500	0	1	0.536	81	0	0
112	1	527	0	1	3	0.0500	0.0500	1	1	0.598	8	82	0
112	1	528	0	1	1	0.0500	0.0500	0	1	0.361	10	82	82
112	1	529	0	1	3	0.0500	0.0500	0	0	0.390	0	82	82
112	1	530	0	1	1	0.0500	0.0500	0	1	0.495	9	82	82
112	1	531	1	1	3	0.0500	0.0500	0	1	0.341	100	0	0
112	1	532	1	2	2	0.0500	0.0500	1	1	0.736	61	82	0
112	1	533	0	1	3	0.0500	0.0500	1	1	0.613	7	82	0
112	1	534	0	1	1	0.0500	0.0500	0	1	0.413	9	82	82
112	1	535	0	2	3	0.0500	0.0500	1	1	0.413	9	0	82
112	1	536	0	2	2	0.0500	0.0500	1	1	0.509	8	0	82
112	1	537	9	1	3	0.0500	0.0500	1	1	0.394	0	82	0
112	1	538	0	2	2	0.0500	0.0500	1	1	0.545	8	0	82
112	1	539	1	2	3	0.0500	0.0500	0	1	0.363	99	0	0
112	1	540	9	2	2	0.0500	0.0500	1	1	0.606	0	82	0
112	1	541	0	2	1	0.0500	0.0500	0	1	0.508	8	82	82
112	1	542	1	1	3	0.0500	0.0500	1	1	0.328	100	0	82
112	1	543	1	1	3	0.0500	0.0500	1	1	0.444	91	0	82
112	1	544	0	2	3	0.0500	0.0500	1	1	0.371	10	0	82
112	1	545	9	2	2	0.0500	0.0500	0	0	0.527	0	82	82
112	1	546	1	2	2	0.0500	0.0500	0	1	0.771	58	0	0
112	1	547	9	1	1	0.0500	0.0500	1	1	0.590	0	82	0
112	1	548	1	1	1	0.0500	0.0500	1	1	0.337	100	0	82
112	1	549	0	1	2	0.0500	0.0500	1	1	0.870	5	82	0
112	1	550	1	2	3	0.0500	0.0500	1	1	0.612	74	82	0
112	1	551	0	1	2	0.0500	0.0500	0	1	0.342	10	82	82
112	1	552	1	2	3	0.0500	0.0500	0	1	0.656	69	0	0
112	1	553	9	2	2	0.0500	0.0500	0	1	0.464	0	82	82
112	1	554	1	1	2	0.0500	0.0500	1	1	0.686	66	0	82
112	1	555	1	1	1	0.0500	0.0500	1	1	0.362	99	0	82
112	1	556	9	1	3	0.0500	0.0500	0	1	0.629	0	82	82
112	1	557	0	1	3	0.0500	0.0500	1	1	0.524	8	82	0
112	1	558	0	2	2	0.0500	0.0500	0	1	0.386	10	82	82
112	1	559	9	1	1	0.0500	0.0500	1	1	0.387	0	0	82
112	1	560	0	2	2	0.0500	0.0500	1	0	0.340	0	0	82
112	1	561	9	2	2	0.0500	0.0500	1	1	1.098	0	0	82
112	1	562	9	1	1	0.0500	0.0500	0	1	0.414	0	82	82
112	1	563	1	2	3	0.0500	0.0500	1	1	0.447	90	82	0
112	1	564	1	2	2	0.0500	0.0500	1	1	0.504	85	82	0
112	1	565	1	2	3	0.0500	0.0500	1	1	0.447	90	82	0
112	1	566	9	1	1	0.0500	0.0500	0	1	0.397	0	0	0
112	1	567	9	1	1	0.0500	0.0500	1	1	0.432	0	0	82
112	1	568	0	2	2	0.0500	0.0500	1	0	0.714	0	0	82
112	1	569	1	2	3	0.0500	0.0500	0	0	0.508	0	0	0
112	1	570	1	1	1	0.0500	0.0500	1	1	0.594	76	0	82
112	1	571	0	2	3	0.0500	0.0500	1	1	0.612	7	0	82
112	1	572	0	2	2	0.0500	0.0500	1	1	0.635	7	0	82
112	1	573	9	1	1	0.0500	0.0500	0	1	0.485	0	0	0
112	1	574	0	1	3	0.0500	0.0500	0	1	0.370	10	82	82
112	1	575	0	1	1	0.0500	0.0500	1	0	0.755	0	82	0
112	1	576	9	1	1	0.0500	0.0500	0	1	0.518	0	0	0
112	1	577	9	1	3	0.0500	0.0500	0	1	0.492	0	0	0
112	1	578	0	2	3	0.0500	0.0500	1	1	0.728	6	0	82
112	1	579	9	1	1	0.0500	0.0500	1	1	0.549	0	0	82
112	1	580	1	2	2	0.0500	0.0500	1	1	0.530	82	82	0
112	1	581	0	2	2	0.0500	0.0500	0	1	0.540	8	82	82
112	1	582	1	2	3	0.0500	0.0500	1	1	0.518	83	82	0
112	1	583	1	1	3	0.0500	0.0500	0	1	0.394	96	0	0
112	1	584	9	2	2	0.0500	0.0500	0	0	0.731	0	0	0
112	1	585	9	1	2	0.0500	0.0500	0	0	0.719	0	0	0
112	1	586	1	2	2	0.0500	0.0500	0	1	0.420	93	0	0
112	1	587	1	2	2	0.0500	0.0500	0	1	0.550	80	0	0
112	1	588	0	2	2	0.0500	0.0500	1	1	0.520	8	0	82
112	1	589	1	1	3	0.0500	0.0500	0	1	0.565	79	0	0
112	1	590	0	2	3	0.0500	0.0500	0	1	0.375	10	82	82
112	1	591	0	2	3	0.0500	0.0500	0	1	0.593	8	82	82
112	1	592	1	2	1	0.0500	0.0500	1	1	0.411	94	82	0
112	1	593	1	2	3	0.0500	0.0500	1	1	0.507	84	82	0
112	1	594	1	2	1	0.0500	0.0500	0	1	0.591	76	0	0
112	1	595	1	1	3	0.0500	0.0500	1	1	0.426	92	0	82
112	1	596	1	2	3	0.0500	0.0500	0	1	0.492	86	0	0
112	1	597	1	2	2	0.0500	0.0500	0	1	0.384	97	0	0
112	1	598	1	2	3	0.0500	0.0500	1	1	0.473	88	82	0
112	1	599	9	1	3	0.0500	0.0500	1	1	0.425	0	0	82
112	1	600	0	2	1	0.0500	0.0500	0	1	0.418	9	82	82
112	1	601	0	2	3	0.0500	0.0500	0	1	0.629	7	82	82
112	1	602	0	1	1	0.0500	0.0500	1	1	0.292	10	82	0
112	1	603	9	1	3	0.0500	0.0500	0	1	0.348	0	0	0
112	1	604	9	1	3	0.0500	0.0500	1	1	0.503	0	0	82
112	1	605	0	1	3	0.0500	0.0500	0	1	0.467	9	82	82
112	1	606	0	2	3	0.0500	0.0500	1	1	0.552	8	0	82
112	1	607	1	1	1	0.0500	0.0500	0	1	0.428	92	0	0
112	1	608	1	2	3	0.0500	0.0500	0	1	0.395	96	0	0
112	1	609	1	1	1	0.0500	0.0500	1	1	0.382	97	0	82
112	1	610	0	1	1	0.0500	0.0500	1	1	0.536	8	82	0
112	1	611	0	2	2	0.0500	0.0500	0	1	0.387	10	82	82
112	1	612	0	2	3	0.0500	0.0500	0	0	0.262	0	82	82
112	1	613	0	2	2	0.0500	0.0500	0	1	0.622	7	82	82
112	1	614	1	2	3	0.0500	0.0500	1	1	0.893	50	82	0
112	1	615	9	2	3	0.0500	0.0500	1	1	0.586	0	0	82
112	1	616	0	2	2	0.0500	0.0500	0	0	0.789	0	82	82
112	1	617	0	1	1	0.0500	0.0500	0	1	0.534	8	82	82
112	1	618	1	2	2	0.0500	0.0500	1	1	0.536	81	82	0
112	1	619	1	1	1	0.0500	0.0500	1	1	0.548	80	0	82
112	1	620	1	2	2	0.0500	0.0500	1	1	0.566	78	82	0
112	1	621	0	2	3	0.0500	0.0500	1	1	0.434	9	0	82
112	1	622	0	1	1	0.0500	0.0500	1	1	0.483	9	82	0
112	1	623	9	2	3	0.0500	0.0500	1	1	0.491	0	82	0
112	1	624	0	1	2	0.0500	0.0500	1	1	0.503	8	82	0
112	1	625	1	2	3	0.0500	0.0500	0	1	0.494	86	0	0
112	1	626	9	1	3	0.0500	0.0500	1	1	0.707	0	0	82
112	1	627	9	2	3	0.0500	0.0500	0	1	0.623	0	0	0
112	1	628	0	1	3	0.0500	0.0500	0	0	0.361	0	82	82
112	1	629	1	2	2	0.0500	0.0500	0	1	0.483	87	0	0
112	1	630	0	2	3	0.0500	0.0500	1	1	1.211	5	0	82
112	1	631	1	1	1	0.0500	0.0500	0	1	0.506	84	0	0
112	1	632	1	1	3	0.0500	0.0500	1	1	0.550	80	0	82
112	1	633	9	1	1	0.0500	0.0500	0	1	0.402	0	82	82
112	1	634	1	2	3	0.0500	0.0500	1	1	0.499	85	82	0
112	1	635	1	2	3	0.0500	0.0500	1	1	0.506	84	82	0
112	1	636	0	1	2	0.0500	0.0500	1	1	0.543	8	82	0
112	1	637	1	1	3	0.0500	0.0500	0	1	0.418	93	0	0
112	1	638	1	2	1	0.0500	0.0500	0	0	0.545	0	0	0
112	1	639	0	2	3	0.0500	0.0500	1	1	0.604	7	0	82
112	1	640	9	2	1	0.0500	0.0500	0	1	0.582	0	0	0
112	1	641	0	2	2	0.0500	0.0500	1	0	0.512	0	0	82
112	1	642	9	2	3	0.0500	0.0500	1	1	0.402	0	82	0
112	1	643	1	2	3	0.0500	0.0500	0	1	0.459	89	0	0
112	1	644	0	1	1	0.0500	0.0500	0	1	0.523	8	82	82
112	1	645	0	2	3	0.0500	0.0500	1	1	0.377	10	0	82
112	1	646	9	1	3	0.0500	0.0500	0	1	0.371	0	82	82
112	1	647	0	2	2	0.0500	0.0500	0	0	0.392	0	82	82
112	1	648	0	1	3	0.0500	0.0500	1	1	0.543	8	82	0
112	1	649	9	2	2	0.0500	0.0500	0	1	0.689	0	0	0
112	1	650	9	1	2	0.0500	0.0500	1	1	0.649	0	0	82
112	1	651	9	2	2	0.0500	0.0500	0	1	0.377	0	82	82
112	1	652	1	1	1	0.0500	0.0500	0	0	0.437	0	0	0
112	1	653	1	1	2	0.0500	0.0500	0	1	0.339	100	0	0
112	1	654	1	2	3	0.0500	0.0500	0	1	0.518	83	0	0
112	1	655	0	2	2	0.0500	0.0500	1	1	0.596	8	0	82
112	1	656	9	2	2	0.0500	0.0500	0	0	0.845	0	0	0
112	1	657	9	2	3	0.0500	0.0500	1	1	0.427	0	0	82
112	1	658	9	1	3	0.0500	0.0500	0	1	0.564	0	0	0
112	1	659	0	2	3	0.0500	0.0500	0	0	0.583	0	82	82
112	1	660	1	1	1	0.0500	0.0500	1	1	0.608	74	0	82
112	1	661	1	2	3	0.0500	0.0500	0	1	1.056	50	0	0
112	1	662	0	2	3	0.0500	0.0500	0	0	0.424	0	82	82
112	1	663	0	1	1	0.0500	0.0500	0	1	0.495	9	82	82
112	1	664	0	2	3	0.0500	0.0500	0	1	0.707	6	82	82
112	1	665	0	1	1	0.0500	0.0500	1	1	0.634	7	82	0
112	1	666	1	1	1	0.0500	0.0500	0	1	0.404	95	0	0
112	1	667	0	1	1	0.0500	0.0500	0	1	0.356	10	82	82
112	1	668	0	1	3	0.0500	0.0500	1	1	0.409	9	82	0
112	1	669	0	2	3	0.0500	0.0500	0	1	0.369	10	82	82
112	1	670	0	1	1	0.0500	0.0500	0	1	0.491	9	82	82
112	1	671	0	2	2	0.0500	0.0500	1	0	0.616	0	0	82
112	1	672	0	1	3	0.0500	0.0500	1	1	0.911	5	82	0
112	1	673	1	1	1	0.0500	0.0500	1	0	0.354	0	0	82
112	1	674	1	1	1	0.0500	0.0500	1	1	0.452	90	0	82
112	1	675	0	2	3	0.0500	0.0500	0	1	0.742	6	82	82
112	1	676	0	2	2	0.0500	0.0500	0	1	0.521	8	82	82
112	1	677	0	2	2	0.0500	0.0500	0	1	0.508	8	82	82
112	1	678	1	2	2	0.0500	0.0500	0	1	0.457	89	0	0
112	1	679	1	2	2	0.0500	0.0500	1	1	0.558	79	82	0
112	1	680	1	1	2	0.0500	0.0500	1	1	0.583	77	0	82
112	1	681	0	2	3	0.0500	0.0500	0	1	0.428	9	82	82
112	1	682	1	2	3	0.0500	0.0500	1	1	0.421	93	82	0
112	1	683	1	2	2	0.0500	0.0500	1	1	0.459	89	82	0
112	1	684	0	2	2	0.0500	0.0500	1	1	0.393	10	0	82
112	1	685	1	2	3	0.0500	0.0500	0	1	0.436	91	0	0
112	1	686	9	2	3	0.0500	0.0500	1	1	0.387	0	0	82
112	1	687	0	1	3	0.0500	0.0500	0	1	0.356	10	82	82
112	1	688	0	1	3	0.0500	0.0500	1	1	0.705	6	82	0
112	1	689	9	1	1	0.0500	0.0500	1	1	0.685	0	82	0
112	1	690	0	2	2	0.0500	0.0500	0	1	0.442	9	82	82
112	1	691	1	2	2	0.0500	0.0500	1	1	0.612	74	82	0
112	1	692	1	2	2	0.0500	0.0500	0	1	0.413	94	0	0
112	1	693	0	2	2	0.0500	0.0500	0	0	0.685	0	82	82
112	1	694	1	2	1	0.0500	0.0500	0	1	0.421	93	0	0
112	1	695	1	1	1	0.0500	0.0500	0	1	0.367	98	0	0
112	1	696	9	1	3	0.0500	0.0500	1	1	0.633	0	82	0
112	1	697	0	2	3	0.0500	0.0500	0	1	0.458	9	82	82
112	1	698	9	2	1	0.0500	0.0500	1	0	0.497	0	0	82
112	1	699	0	2	2	0.0500	0.0500	0	0	0.551	0	82	82
112	1	700	9	2	2	0.0500	0.0500	1	1	0.537	0	82	0
112	1	701	1	1	1	0.0500	0.0500	0	1	0.473	88	0	0
112	1	702	1	2	2	0.0500	0.0500	1	1	0.401	95	82	0
112	1	703	9	2	2	0.0500	0.0500	1	1	0.626	0	82	0
112	1	704	9	1	2	0.0500	0.0500	0	1	0.481	0	82	82
112	1	705	1	2	3	0.0500	0.0500	1	1	0.415	94	82	0
112	1	706	0	2	2	0.0500	0.0500	1	0	0.655	0	0	82
112	1	707	1	2	1	0.0500	0.0500	1	1	0.429	92	82	0
112	1	708	1	1	2	0.0500	0.0500	1	1	0.626	72	0	82
112	1	709	9	1	3	0.0500	0.0500	0	1	0.432	0	82	82
112	1	710	0	2	3	0.0500	0.0500	0	1	0.537	8	82	82
112	1	711	1	1	3	0.0500	0.0500	0	1	0.462	89	0	0
112	1	712	0	2	3	0.0500	0.0500	1	1	1.133	5	0	82
112	1	713	1	1	1	0.0500	0.0500	1	0	0.447	0	0	82
112	1	714	1	2	2	0.0500	0.0500	1	1	0.758	59	82	0
112	1	715	0	2	1	0.0500	0.0500	1	1	0.611	7	0	82
112	1	716	0	1	3	0.0500	0.0500	0	1	0.490	9	82	82
112	1	717	1	1	3	0.0500	0.0500	0	1	0.466	88	0	0
112	1	718	1	2	2	0.0500	0.0500	1	1	0.593	76	82	0
112	1	719	0	2	2	0.0500	0.0500	1	1	0.793	6	0	82
112	1	720	1	2	2	0.0500	0.0500	0	0	0.732	0	0	0
