sub	sess	t	loc	cue	co1	co2	or	resp	rt
13	1	1	2	2	0.1134	0.0824	0	1	1.768
13	1	2	2	2	0.1134	0.0824	1	1	1.109
13	1	3	2	2	0.1134	0.0824	0	1	0.815
13	1	4	2	2	0.1134	0.0824	1	1	0.773
13	1	5	1	1	0.1134	0.0824	1	1	1.318
13	1	6	2	2	0.1134	0.0824	1	1	0.996
13	1	7	2	3	0.1134	0.0824	0	0	1.541
13	1	8	2	2	0.1134	0.0824	1	1	0.695
13	1	9	2	2	0.1134	0.0824	1	1	0.598
13	1	10	2	1	0.1134	0.0824	1	0	0.899
13	1	11	1	2	0.1134	0.0824	1	1	1.305
13	1	12	2	2	0.1134	0.0824	1	1	0.651
13	1	13	2	3	0.1134	0.0824	0	1	1.127
13	1	14	1	3	0.1134	0.0824	0	1	1.092
13	1	15	2	2	0.1134	0.0824	0	1	0.813
13	1	16	2	2	0.1134	0.0824	0	1	0.655
13	1	17	2	2	0.1134	0.0824	1	1	0.770
13	1	18	1	3	0.1134	0.0824	1	1	1.154
13	1	19	1	1	0.1134	0.0824	0	1	0.669
13	1	20	1	1	0.1134	0.0824	1	1	0.654
13	1	21	2	2	0.1134	0.0824	0	1	0.719
13	1	22	1	2	0.1134	0.0824	0	0	0.849
13	1	23	1	1	0.1134	0.0824	1	1	0.684
13	1	24	1	2	0.1134	0.0824	1	1	1.438
13	1	25	1	1	0.1134	0.0824	0	1	0.632
13	1	26	1	3	0.1134	0.0824	0	1	0.756
13	1	27	2	1	0.1134	0.0824	0	1	1.046
13	1	28	1	3	0.1134	0.0824	1	1	0.787
13	1	29	2	2	0.1134	0.0824	0	1	0.799
13	1	30	2	2	0.1134	0.0824	0	1	0.709
13	1	31	1	3	0.1134	0.0824	0	1	0.722
13	1	32	2	1	0.1134	0.0824	0	1	0.911
13	1	33	1	3	0.1134	0.0824	1	1	0.862
13	1	34	1	1	0.1134	0.0824	0	1	0.610
13	1	35	2	3	0.1134	0.0824	1	1	1.051
13	1	36	2	3	0.1134	0.0824	1	1	0.693
13	1	37	2	3	0.1134	0.0824	0	0	0.723
13	1	38	2	3	0.1134	0.0824	0	1	0.655
13	1	39	1	1	0.1134	0.0824	0	1	0.672
13	1	40	1	1	0.1134	0.0824	0	1	0.563
13	1	41	2	3	0.1134	0.0824	1	1	0.594
13	1	42	2	2	0.1134	0.0824	0	1	0.611
13	1	43	1	1	0.1134	0.0824	1	1	0.574
13	1	44	1	1	0.1134	0.0824	0	1	0.522
13	1	45	1	1	0.1134	0.0824	1	1	0.562
13	1	46	1	1	0.1134	0.0824	0	1	0.565
13	1	47	2	3	0.1134	0.0824	1	1	0.592
13	1	48	1	1	0.1134	0.0824	1	1	0.569
13	1	49	1	3	0.1134	0.0824	0	1	0.727
13	1	50	2	1	0.1134	0.0824	1	1	0.629
13	1	51	1	1	0.1134	0.0824	0	1	0.548
13	1	52	1	2	0.1134	0.0824	0	1	0.597
13	1	53	1	1	0.1134	0.0824	1	1	0.617
13	1	54	1	1	0.1134	0.0824	1	1	1.589
13	1	55	1	3	0.1134	0.0824	1	1	0.618
13	1	56	2	2	0.1134	0.0824	1	0	0.672
13	1	57	1	1	0.1134	0.0824	1	1	0.603
13	1	58	1	1	0.1134	0.0824	1	1	0.626
13	1	59	1	1	0.1134	0.0824	0	1	0.585
13	1	60	1	1	0.1134	0.0824	0	0	0.585
13	1	61	2	2	0.1134	0.0824	1	1	0.687
13	1	62	1	3	0.1134	0.0824	1	1	0.889
13	1	63	1	1	0.1134	0.0824	1	1	0.646
13	1	64	1	2	0.1134	0.0824	1	1	0.793
13	1	65	1	1	0.1134	0.0824	1	1	0.606
13	1	66	2	2	0.1134	0.0824	0	1	0.642
13	1	67	2	3	0.1134	0.0824	0	0	0.613
13	1	68	1	3	0.1134	0.0824	1	1	0.614
13	1	69	2	3	0.1134	0.0824	1	1	0.683
13	1	70	2	2	0.1134	0.0824	0	1	0.618
13	1	71	2	2	0.1134	0.0824	0	1	0.656
13	1	72	2	1	0.1134	0.0824	0	1	0.567
13	1	73	2	3	0.1134	0.0824	0	0	0.591
13	1	74	1	1	0.1134	0.0824	1	0	0.602
13	1	75	2	2	0.1134	0.0824	1	0	0.613
13	1	76	2	3	0.1134	0.0824	0	1	1.045
13	1	77	1	2	0.1134	0.0824	1	1	0.799
13	1	78	2	2	0.1134	0.0824	1	1	0.725
13	1	79	2	3	0.1134	0.0824	1	1	0.623
13	1	80	2	2	0.1134	0.0824	0	1	0.617
13	1	81	2	3	0.1134	0.0824	1	1	0.699
13	1	82	1	1	0.1134	0.0824	0	1	0.451
13	1	83	1	3	0.1134	0.0824	0	1	0.537
13	1	84	1	1	0.1134	0.0824	1	1	0.582
13	1	85	2	2	0.1134	0.0824	1	1	0.650
13	1	86	1	1	0.1134	0.0824	1	1	0.597
13	1	87	1	3	0.1134	0.0824	0	1	0.492
13	1	88	1	1	0.1134	0.0824	0	1	0.716
13	1	89	1	3	0.1134	0.0824	1	1	0.701
13	1	90	2	2	0.1134	0.0824	1	1	0.608
13	1	91	1	2	0.1134	0.0824	0	1	0.607
13	1	92	2	1	0.1134	0.0824	0	0	0.644
13	1	93	2	2	0.1134	0.0824	1	1	0.649
13	1	94	2	2	0.1134	0.0824	0	1	0.674
13	1	95	1	3	0.1134	0.0824	0	1	0.786
13	1	96	1	3	0.1134	0.0824	0	1	0.560
13	1	97	2	3	0.1134	0.0824	1	1	0.476
13	1	98	1	3	0.1134	0.0824	1	1	1.236
13	1	99	1	2	0.1134	0.0824	0	1	0.611
13	1	100	2	2	0.1134	0.0824	0	1	0.665
13	1	101	2	1	0.1134	0.0824	1	1	0.667
13	1	102	2	2	0.1134	0.0824	0	1	0.677
13	1	103	2	2	0.1134	0.0824	1	1	0.606
13	1	104	1	1	0.1134	0.0824	1	1	0.627
13	1	105	2	1	0.1134	0.0824	1	1	0.619
13	1	106	1	1	0.1134	0.0824	0	1	0.604
13	1	107	1	1	0.1134	0.0824	0	1	0.520
13	1	108	2	2	0.1134	0.0824	0	1	0.788
13	1	109	1	1	0.1134	0.0824	0	1	0.437
13	1	110	2	3	0.1134	0.0824	0	1	1.627
13	1	111	2	2	0.1134	0.0824	1	1	1.087
13	1	112	1	1	0.1134	0.0824	0	1	0.647
