sub	sess	t	rew	loc	cue	co1	co2	or	resp	rt	rew_tot	left_col	right_col
92	1	1	9	2	2	0.5273	0.3497	1	1	1.382	0	0	82
92	1	2	1	2	2	0.5273	0.3497	0	1	0.774	58	0	0
92	1	3	0	2	3	0.5273	0.3497	1	1	0.586	8	0	82
92	1	4	1	1	3	0.5273	0.3497	1	1	0.627	72	0	82
92	1	5	0	1	1	0.5273	0.3497	1	1	1.113	5	82	0
92	1	6	0	2	3	0.5273	0.3497	0	1	0.502	8	82	82
92	1	7	1	2	3	0.5273	0.3497	0	1	0.413	94	0	0
92	1	8	1	2	2	0.5273	0.3497	0	1	0.392	96	0	0
92	1	9	0	2	3	0.5273	0.3497	0	1	0.519	8	82	82
92	1	10	1	1	3	0.5273	0.3497	0	1	0.491	86	0	0
92	1	11	1	2	3	0.5273	0.3497	0	1	0.417	93	0	0
92	1	12	0	2	2	0.5273	0.3497	0	1	0.419	9	82	82
92	1	13	1	2	2	0.5273	0.3497	1	1	0.372	98	82	0
92	1	14	1	1	1	0.5273	0.3497	0	0	0.387	0	0	0
92	1	15	1	2	2	0.5273	0.3497	0	1	0.371	98	0	0
92	1	16	1	2	2	0.5273	0.3497	0	1	0.409	94	0	0
92	1	17	9	2	2	0.5273	0.3497	0	1	0.362	0	82	82
92	1	18	0	1	3	0.5273	0.3497	0	1	0.402	9	82	82
92	1	19	1	1	3	0.5273	0.3497	1	1	0.513	84	0	82
92	1	20	9	1	3	0.5273	0.3497	1	1	0.391	0	0	82
92	1	21	9	1	3	0.5273	0.3497	1	1	0.376	0	0	82
92	1	22	1	1	2	0.5273	0.3497	0	1	0.449	90	0	0
92	1	23	1	1	3	0.5273	0.3497	0	1	0.474	88	0	0
92	1	24	1	2	2	0.5273	0.3497	1	1	0.380	97	82	0
92	1	25	9	1	1	0.5273	0.3497	1	1	0.832	0	82	0
92	1	26	1	2	3	0.5273	0.3497	1	1	0.487	86	82	0
92	1	27	0	2	3	0.5273	0.3497	1	0	0.392	0	0	82
92	1	28	0	1	1	0.5273	0.3497	1	1	0.445	9	82	0
92	1	29	0	1	1	0.5273	0.3497	1	0	0.401	0	82	0
92	1	30	9	2	2	0.5273	0.3497	1	0	0.910	0	0	82
92	1	31	0	2	2	0.5273	0.3497	0	1	0.391	10	82	82
92	1	32	1	2	2	0.5273	0.3497	1	1	0.369	98	82	0
92	1	33	1	1	1	0.5273	0.3497	1	1	0.346	100	0	82
92	1	34	1	2	2	0.5273	0.3497	0	1	0.391	96	0	0
92	1	35	1	2	2	0.5273	0.3497	1	1	0.399	95	82	0
92	1	36	0	2	2	0.5273	0.3497	1	0	0.348	0	0	82
92	1	37	1	2	3	0.5273	0.3497	1	1	0.274	100	82	0
92	1	38	1	1	3	0.5273	0.3497	0	0	0.367	0	0	0
92	1	39	0	2	2	0.5273	0.3497	1	0	0.325	0	0	82
92	1	40	0	1	3	0.5273	0.3497	0	0	0.428	0	82	82
92	1	41	9	1	3	0.5273	0.3497	1	1	1.123	0	82	0
92	1	42	0	1	3	0.5273	0.3497	1	0	0.570	0	82	0
92	1	43	9	2	3	0.5273	0.3497	1	0	0.952	0	0	82
92	1	44	0	2	3	0.5273	0.3497	0	1	0.486	9	82	82
92	1	45	1	1	3	0.5273	0.3497	1	1	0.475	88	0	82
92	1	46	0	1	1	0.5273	0.3497	1	0	0.462	0	82	0
92	1	47	1	1	3	0.5273	0.3497	1	1	0.470	88	0	82
92	1	48	0	1	3	0.5273	0.3497	0	0	0.696	0	82	82
92	1	49	1	1	3	0.5273	0.3497	1	1	0.427	92	0	82
92	1	50	0	2	3	0.5273	0.3497	0	1	0.547	8	82	82
92	1	51	1	1	3	0.5273	0.3497	0	1	0.509	84	0	0
92	1	52	0	2	3	0.5273	0.3497	1	1	0.536	8	0	82
92	1	53	1	2	2	0.5273	0.3497	0	1	0.865	50	0	0
92	1	54	9	2	3	0.5273	0.3497	0	1	0.625	0	82	82
92	1	55	1	1	1	0.5273	0.3497	0	0	0.715	0	0	0
92	1	56	1	1	1	0.5273	0.3497	0	1	0.527	82	0	0
92	1	57	1	2	1	0.5273	0.3497	1	1	0.659	69	82	0
92	1	58	0	2	3	0.5273	0.3497	1	0	0.848	0	0	82
92	1	59	9	2	3	0.5273	0.3497	1	1	1.316	0	82	0
92	1	60	0	2	3	0.5273	0.3497	1	1	1.137	5	0	82
92	1	61	1	2	2	0.5273	0.3497	1	1	0.737	61	82	0
92	1	62	1	1	3	0.5273	0.3497	0	1	0.511	84	0	0
92	1	63	0	1	1	0.5273	0.3497	0	1	0.431	9	82	82
92	1	64	0	1	1	0.5273	0.3497	1	0	0.363	0	82	0
92	1	65	1	2	1	0.5273	0.3497	0	1	0.602	75	0	0
92	1	66	9	1	2	0.5273	0.3497	0	1	0.446	0	0	0
92	1	67	9	1	1	0.5273	0.3497	0	1	0.460	0	82	82
92	1	68	0	2	2	0.5273	0.3497	1	0	0.507	0	0	82
92	1	69	0	1	3	0.5273	0.3497	0	1	0.557	8	82	82
92	1	70	0	2	3	0.5273	0.3497	1	1	0.328	10	0	82
92	1	71	0	2	3	0.5273	0.3497	0	1	0.386	10	82	82
92	1	72	0	2	1	0.5273	0.3497	0	1	0.399	10	82	82
92	1	73	1	2	3	0.5273	0.3497	1	1	0.401	95	82	0
92	1	74	1	2	3	0.5273	0.3497	0	1	0.480	87	0	0
92	1	75	0	2	3	0.5273	0.3497	1	0	0.555	0	0	82
92	1	76	0	2	1	0.5273	0.3497	0	1	0.508	8	82	82
92	1	77	0	1	2	0.5273	0.3497	1	0	0.471	0	82	0
92	1	78	9	1	1	0.5273	0.3497	0	1	0.428	0	82	82
92	1	79	1	1	1	0.5273	0.3497	0	1	0.538	81	0	0
92	1	80	9	2	3	0.5273	0.3497	0	1	0.509	0	82	82
92	1	81	9	1	1	0.5273	0.3497	1	1	0.568	0	82	0
92	1	82	0	2	2	0.5273	0.3497	1	0	0.623	0	0	82
92	1	83	0	1	1	0.5273	0.3497	0	1	0.501	8	82	82
92	1	84	9	1	1	0.5273	0.3497	1	1	0.639	0	0	82
92	1	85	9	2	1	0.5273	0.3497	0	1	0.556	0	0	0
92	1	86	1	2	2	0.5273	0.3497	1	1	0.422	93	82	0
92	1	87	1	2	3	0.5273	0.3497	1	1	0.524	83	82	0
92	1	88	1	2	1	0.5273	0.3497	1	1	0.792	56	82	0
92	1	89	1	1	1	0.5273	0.3497	1	1	0.468	88	0	82
92	1	90	1	2	3	0.5273	0.3497	1	0	0.375	0	82	0
92	1	91	1	2	3	0.5273	0.3497	1	1	0.638	71	82	0
92	1	92	1	1	1	0.5273	0.3497	1	1	0.455	89	0	82
92	1	93	1	2	3	0.5273	0.3497	1	1	0.414	94	82	0
92	1	94	0	2	2	0.5273	0.3497	0	1	0.498	9	82	82
92	1	95	9	2	2	0.5273	0.3497	0	1	0.580	0	82	82
92	1	96	9	2	2	0.5273	0.3497	1	1	0.431	0	82	0
92	1	97	0	1	1	0.5273	0.3497	1	1	0.537	8	82	0
92	1	98	0	2	2	0.5273	0.3497	0	1	0.482	9	82	82
92	1	99	1	1	2	0.5273	0.3497	0	1	0.571	78	0	0
92	1	100	0	1	1	0.5273	0.3497	1	1	0.560	8	82	0
92	1	101	9	1	3	0.5273	0.3497	0	1	0.533	0	82	82
92	1	102	9	2	2	0.5273	0.3497	1	0	0.685	0	82	0
92	1	103	1	1	3	0.5273	0.3497	0	1	0.495	86	0	0
92	1	104	0	1	3	0.5273	0.3497	1	1	0.753	6	82	0
92	1	105	1	1	1	0.5273	0.3497	1	1	0.443	91	0	82
92	1	106	1	1	2	0.5273	0.3497	0	1	0.669	68	0	0
92	1	107	1	2	1	0.5273	0.3497	0	1	0.358	99	0	0
92	1	108	9	1	3	0.5273	0.3497	0	1	0.450	0	0	0
92	1	109	1	2	3	0.5273	0.3497	0	1	0.323	100	0	0
92	1	110	9	1	3	0.5273	0.3497	1	0	1.377	0	0	82
92	1	111	0	2	2	0.5273	0.3497	0	1	0.577	8	82	82
92	1	112	1	2	1	0.5273	0.3497	1	1	0.655	70	82	0
92	1	113	1	1	1	0.5273	0.3497	0	1	0.435	91	0	0
92	1	114	0	2	2	0.5273	0.3497	1	0	0.490	0	0	82
92	1	115	9	1	3	0.5273	0.3497	0	1	0.485	0	82	82
92	1	116	0	2	2	0.5273	0.3497	0	1	0.384	10	82	82
92	1	117	1	1	3	0.5273	0.3497	1	0	0.449	0	0	82
92	1	118	9	1	3	0.5273	0.3497	1	1	0.525	0	82	0
92	1	119	1	2	3	0.5273	0.3497	0	1	0.455	89	0	0
92	1	120	0	1	3	0.5273	0.3497	1	0	0.491	0	82	0
92	1	121	0	1	1	0.5273	0.3497	0	1	0.584	8	82	82
92	1	122	9	2	2	0.5273	0.3497	0	1	0.669	0	0	0
92	1	123	1	2	2	0.5273	0.3497	0	1	0.426	92	0	0
92	1	124	1	1	3	0.5273	0.3497	1	1	0.586	76	0	82
92	1	125	1	2	2	0.5273	0.3497	1	1	0.335	100	82	0
92	1	126	0	1	3	0.5273	0.3497	1	0	0.381	0	82	0
92	1	127	9	1	2	0.5273	0.3497	0	1	0.507	0	82	82
92	1	128	1	2	2	0.5273	0.3497	0	1	0.420	93	0	0
92	1	129	1	2	3	0.5273	0.3497	0	1	0.362	99	0	0
92	1	130	1	2	1	0.5273	0.3497	1	1	0.398	95	82	0
92	1	131	0	1	3	0.5273	0.3497	0	1	0.343	10	82	82
92	1	132	1	1	1	0.5273	0.3497	1	1	0.312	100	0	82
92	1	133	9	2	2	0.5273	0.3497	0	1	0.448	0	82	82
92	1	134	0	2	2	0.5273	0.3497	0	1	0.317	10	82	82
92	1	135	0	1	1	0.5273	0.3497	0	1	0.443	9	82	82
92	1	136	1	1	1	0.5273	0.3497	1	1	0.338	100	0	82
92	1	137	1	1	1	0.5273	0.3497	1	1	0.457	89	0	82
92	1	138	0	1	3	0.5273	0.3497	0	1	0.405	9	82	82
92	1	139	9	2	1	0.5273	0.3497	1	1	0.400	0	0	82
92	1	140	1	1	1	0.5273	0.3497	0	1	0.406	94	0	0
92	1	141	0	1	2	0.5273	0.3497	1	1	0.638	7	82	0
92	1	142	1	1	2	0.5273	0.3497	0	1	0.546	80	0	0
92	1	143	1	1	1	0.5273	0.3497	0	1	0.425	93	0	0
92	1	144	0	1	3	0.5273	0.3497	0	1	0.314	10	82	82
92	1	145	0	1	3	0.5273	0.3497	0	1	0.377	10	82	82
92	1	146	0	2	3	0.5273	0.3497	0	1	0.371	10	82	82
92	1	147	0	1	1	0.5273	0.3497	1	1	0.555	8	82	0
92	1	148	1	1	1	0.5273	0.3497	0	1	0.410	94	0	0
92	1	149	0	2	3	0.5273	0.3497	1	1	0.843	5	0	82
92	1	150	0	2	2	0.5273	0.3497	0	0	0.759	0	82	82
92	1	151	0	1	3	0.5273	0.3497	1	1	0.593	8	82	0
92	1	152	1	2	2	0.5273	0.3497	1	1	0.633	72	82	0
92	1	153	0	1	3	0.5273	0.3497	0	1	0.543	8	82	82
92	1	154	0	1	3	0.5273	0.3497	1	1	0.477	9	82	0
92	1	155	1	2	2	0.5273	0.3497	0	1	0.576	77	0	0
92	1	156	9	2	2	0.5273	0.3497	1	0	0.669	0	0	82
92	1	157	0	2	3	0.5273	0.3497	0	1	0.471	9	82	82
92	1	158	1	1	2	0.5273	0.3497	1	1	0.373	98	0	82
92	1	159	0	1	1	0.5273	0.3497	0	1	0.560	8	82	82
92	1	160	1	2	3	0.5273	0.3497	1	0	0.463	0	82	0
92	1	161	9	1	1	0.5273	0.3497	0	1	0.677	0	0	0
92	1	162	0	2	3	0.5273	0.3497	0	1	0.422	9	82	82
92	1	163	1	2	2	0.5273	0.3497	1	1	0.620	73	82	0
92	1	164	0	1	2	0.5273	0.3497	1	0	0.454	0	82	0
92	1	165	0	1	3	0.5273	0.3497	1	1	0.983	5	82	0
92	1	166	9	2	2	0.5273	0.3497	0	1	0.473	0	82	82
92	1	167	1	1	1	0.5273	0.3497	1	1	0.414	94	0	82
92	1	168	9	1	2	0.5273	0.3497	1	1	0.499	0	0	82
92	1	169	1	2	2	0.5273	0.3497	0	1	0.627	72	0	0
92	1	170	0	2	2	0.5273	0.3497	0	1	0.778	6	82	82
92	1	171	0	1	3	0.5273	0.3497	1	1	0.575	8	82	0
92	1	172	9	1	2	0.5273	0.3497	1	1	0.556	0	82	0
92	1	173	1	1	3	0.5273	0.3497	1	0	0.538	0	0	82
92	1	174	1	2	3	0.5273	0.3497	0	1	0.878	50	0	0
92	1	175	0	2	2	0.5273	0.3497	1	1	0.924	5	0	82
92	1	176	0	1	3	0.5273	0.3497	0	1	0.598	8	82	82
92	1	177	1	2	3	0.5273	0.3497	0	1	0.844	51	0	0
92	1	178	9	2	3	0.5273	0.3497	1	1	0.953	0	0	82
92	1	179	1	1	1	0.5273	0.3497	1	1	0.472	88	0	82
92	1	180	0	1	1	0.5273	0.3497	1	1	0.779	6	82	0
92	1	181	1	1	3	0.5273	0.3497	1	0	10.130	0	0	82
92	1	182	0	2	3	0.5273	0.3497	0	1	0.508	8	82	82
92	1	183	0	1	1	0.5273	0.3497	0	1	0.702	6	82	82
92	1	184	0	2	3	0.5273	0.3497	0	1	0.470	9	82	82
92	1	185	1	2	3	0.5273	0.3497	1	1	0.582	77	82	0
92	1	186	1	1	1	0.5273	0.3497	0	1	0.424	93	0	0
92	1	187	0	1	3	0.5273	0.3497	1	1	0.899	5	82	0
92	1	188	0	2	2	0.5273	0.3497	1	0	0.388	0	0	82
92	1	189	9	2	2	0.5273	0.3497	0	1	0.404	0	0	0
92	1	190	1	2	3	0.5273	0.3497	0	1	0.418	93	0	0
92	1	191	9	1	1	0.5273	0.3497	1	1	0.774	0	0	82
92	1	192	9	2	1	0.5273	0.3497	1	1	0.729	0	82	0
92	1	193	9	2	3	0.5273	0.3497	0	1	0.542	0	0	0
92	1	194	9	1	3	0.5273	0.3497	0	1	0.370	0	0	0
92	1	195	1	1	1	0.5273	0.3497	0	1	0.416	93	0	0
92	1	196	1	1	3	0.5273	0.3497	0	1	0.572	78	0	0
92	1	197	1	2	2	0.5273	0.3497	0	1	0.483	87	0	0
92	1	198	1	2	3	0.5273	0.3497	1	1	0.498	85	82	0
92	1	199	1	1	1	0.5273	0.3497	1	1	0.536	81	0	82
92	1	200	0	2	3	0.5273	0.3497	0	1	0.450	9	82	82
92	1	201	9	2	3	0.5273	0.3497	0	1	0.559	0	82	82
92	1	202	1	1	3	0.5273	0.3497	0	0	0.536	0	0	0
92	1	203	0	2	2	0.5273	0.3497	1	0	0.638	0	0	82
92	1	204	0	2	2	0.5273	0.3497	0	1	0.422	9	82	82
92	1	205	1	1	1	0.5273	0.3497	1	1	0.600	75	0	82
92	1	206	0	1	1	0.5273	0.3497	1	0	0.547	0	82	0
92	1	207	1	1	2	0.5273	0.3497	1	1	0.382	97	0	82
92	1	208	0	1	1	0.5273	0.3497	0	1	0.359	10	82	82
92	1	209	9	1	3	0.5273	0.3497	1	1	0.545	0	82	0
92	1	210	1	1	3	0.5273	0.3497	0	0	0.491	0	0	0
92	1	211	0	2	2	0.5273	0.3497	0	1	0.610	7	82	82
92	1	212	1	2	2	0.5273	0.3497	0	1	0.378	97	0	0
92	1	213	1	1	3	0.5273	0.3497	1	1	0.707	64	0	82
92	1	214	0	1	1	0.5273	0.3497	1	1	0.627	7	82	0
92	1	215	0	1	3	0.5273	0.3497	0	1	0.527	8	82	82
92	1	216	9	1	3	0.5273	0.3497	1	1	0.553	0	82	0
92	1	217	1	2	2	0.5273	0.3497	1	0	0.428	0	82	0
92	1	218	0	2	2	0.5273	0.3497	1	0	1.109	0	0	82
92	1	219	9	1	1	0.5273	0.3497	0	1	0.512	0	0	0
92	1	220	0	2	1	0.5273	0.3497	1	0	0.364	0	0	82
92	1	221	9	2	2	0.5273	0.3497	0	1	0.479	0	0	0
92	1	222	1	2	2	0.5273	0.3497	1	1	0.403	95	82	0
92	1	223	1	2	3	0.5273	0.3497	1	1	0.621	73	82	0
92	1	224	0	2	2	0.5273	0.3497	1	1	0.512	8	0	82
92	1	225	9	1	1	0.5273	0.3497	1	1	0.635	0	0	82
92	1	226	1	1	3	0.5273	0.3497	0	1	0.481	87	0	0
92	1	227	9	2	2	0.5273	0.3497	0	1	0.507	0	0	0
92	1	228	1	1	1	0.5273	0.3497	0	1	0.372	98	0	0
92	1	229	1	2	2	0.5273	0.3497	0	1	0.416	93	0	0
92	1	230	1	2	2	0.5273	0.3497	1	1	0.556	79	82	0
92	1	231	0	2	2	0.5273	0.3497	1	1	0.880	5	0	82
92	1	232	0	2	3	0.5273	0.3497	1	0	0.544	0	0	82
92	1	233	0	2	3	0.5273	0.3497	1	1	0.707	6	0	82
92	1	234	9	2	2	0.5273	0.3497	1	1	0.737	0	0	82
92	1	235	1	1	1	0.5273	0.3497	1	1	0.539	81	0	82
92	1	236	0	2	3	0.5273	0.3497	0	1	0.508	8	82	82
92	1	237	1	1	3	0.5273	0.3497	0	1	0.486	86	0	0
92	1	238	9	2	2	0.5273	0.3497	1	1	0.476	0	82	0
92	1	239	0	2	3	0.5273	0.3497	1	1	0.762	6	0	82
92	1	240	0	1	1	0.5273	0.3497	0	1	0.535	8	82	82
92	1	241	1	2	3	0.5273	0.3497	0	1	0.485	86	0	0
92	1	242	0	1	3	0.5273	0.3497	1	1	0.532	8	82	0
92	1	243	9	1	1	0.5273	0.3497	1	1	0.386	0	82	0
92	1	244	0	1	3	0.5273	0.3497	0	1	0.449	9	82	82
92	1	245	0	1	3	0.5273	0.3497	1	1	0.382	10	82	0
92	1	246	1	1	1	0.5273	0.3497	0	1	0.422	93	0	0
92	1	247	1	1	1	0.5273	0.3497	1	1	0.386	96	0	82
92	1	248	0	1	3	0.5273	0.3497	1	1	0.438	9	82	0
92	1	249	0	1	1	0.5273	0.3497	0	1	0.427	9	82	82
92	1	250	9	2	3	0.5273	0.3497	1	0	0.552	0	0	82
92	1	251	0	1	2	0.5273	0.3497	0	1	0.545	8	82	82
92	1	252	1	2	2	0.5273	0.3497	1	1	0.866	50	82	0
92	1	253	0	1	3	0.5273	0.3497	1	0	1.220	0	82	0
92	1	254	0	1	1	0.5273	0.3497	1	1	0.647	7	82	0
92	1	255	1	2	3	0.5273	0.3497	1	1	0.794	56	82	0
92	1	256	1	2	2	0.5273	0.3497	0	0	0.728	0	0	0
92	1	257	1	2	1	0.5273	0.3497	0	1	0.610	74	0	0
92	1	258	9	2	3	0.5273	0.3497	0	1	0.393	0	0	0
92	1	259	9	1	1	0.5273	0.3497	0	1	0.523	0	0	0
92	1	260	0	1	1	0.5273	0.3497	1	0	0.575	0	82	0
92	1	261	1	2	3	0.5273	0.3497	1	1	0.566	78	82	0
92	1	262	0	1	1	0.5273	0.3497	0	1	0.515	8	82	82
92	1	263	0	1	2	0.5273	0.3497	0	1	0.552	8	82	82
92	1	264	9	1	3	0.5273	0.3497	1	1	0.712	0	0	82
92	1	265	9	1	1	0.5273	0.3497	1	1	0.399	0	0	82
92	1	266	1	1	3	0.5273	0.3497	1	1	0.400	95	0	82
92	1	267	9	2	1	0.5273	0.3497	0	1	0.537	0	82	82
92	1	268	0	1	1	0.5273	0.3497	1	1	0.538	8	82	0
92	1	269	9	2	2	0.5273	0.3497	1	1	0.499	0	82	0
92	1	270	9	2	3	0.5273	0.3497	1	1	0.452	0	82	0
92	1	271	1	1	1	0.5273	0.3497	1	1	0.405	94	0	82
92	1	272	1	2	3	0.5273	0.3497	0	1	0.424	93	0	0
92	1	273	9	2	3	0.5273	0.3497	1	1	0.515	0	82	0
92	1	274	1	1	3	0.5273	0.3497	0	0	0.500	0	0	0
92	1	275	0	2	3	0.5273	0.3497	1	0	0.491	0	0	82
92	1	276	0	1	3	0.5273	0.3497	1	1	0.620	7	82	0
92	1	277	0	1	3	0.5273	0.3497	0	1	0.891	5	82	82
92	1	278	0	2	1	0.5273	0.3497	0	1	0.564	8	82	82
92	1	279	0	1	3	0.5273	0.3497	1	1	0.793	6	82	0
92	1	280	0	2	1	0.5273	0.3497	0	1	0.425	9	82	82
92	1	281	0	2	2	0.5273	0.3497	0	1	0.548	8	82	82
92	1	282	1	1	1	0.5273	0.3497	0	1	0.532	82	0	0
92	1	283	0	1	3	0.5273	0.3497	0	1	0.386	10	82	82
92	1	284	1	2	3	0.5273	0.3497	0	1	0.388	96	0	0
92	1	285	0	1	1	0.5273	0.3497	0	1	0.416	9	82	82
92	1	286	0	1	1	0.5273	0.3497	0	1	0.388	10	82	82
92	1	287	0	1	1	0.5273	0.3497	0	1	0.295	10	82	82
92	1	288	0	2	2	0.5273	0.3497	1	1	0.980	5	0	82
92	1	289	0	1	1	0.5273	0.3497	1	1	0.766	6	82	0
92	1	290	9	2	3	0.5273	0.3497	0	1	0.464	0	82	82
92	1	291	0	1	3	0.5273	0.3497	0	1	0.453	9	82	82
92	1	292	0	2	3	0.5273	0.3497	0	1	0.810	5	82	82
92	1	293	1	2	3	0.5273	0.3497	1	0	0.752	0	82	0
92	1	294	9	1	1	0.5273	0.3497	1	1	0.918	0	82	0
92	1	295	1	2	3	0.5273	0.3497	1	1	0.561	79	82	0
92	1	296	0	2	2	0.5273	0.3497	1	1	0.471	9	0	82
92	1	297	0	2	2	0.5273	0.3497	0	1	0.482	9	82	82
92	1	298	1	1	1	0.5273	0.3497	0	1	0.454	90	0	0
92	1	299	9	1	3	0.5273	0.3497	0	1	0.421	0	82	82
92	1	300	1	2	2	0.5273	0.3497	1	1	0.434	92	82	0
92	1	301	9	1	1	0.5273	0.3497	0	1	0.712	0	82	82
92	1	302	0	1	2	0.5273	0.3497	1	1	0.421	9	82	0
92	1	303	9	1	3	0.5273	0.3497	0	1	0.643	0	0	0
92	1	304	1	2	3	0.5273	0.3497	0	1	0.517	83	0	0
92	1	305	1	2	3	0.5273	0.3497	0	1	0.366	98	0	0
92	1	306	9	1	1	0.5273	0.3497	0	1	0.711	0	82	82
92	1	307	0	2	3	0.5273	0.3497	1	0	0.419	0	0	82
92	1	308	0	1	3	0.5273	0.3497	0	1	0.690	7	82	82
92	1	309	1	1	1	0.5273	0.3497	1	1	0.387	96	0	82
92	1	310	0	1	1	0.5273	0.3497	0	1	0.520	8	82	82
92	1	311	1	1	3	0.5273	0.3497	0	1	0.279	100	0	0
92	1	312	1	1	3	0.5273	0.3497	1	1	0.357	99	0	82
92	1	313	0	2	3	0.5273	0.3497	0	1	0.390	10	82	82
92	1	314	1	2	2	0.5273	0.3497	0	1	0.570	78	0	0
92	1	315	1	2	2	0.5273	0.3497	1	1	0.544	81	82	0
92	1	316	0	2	3	0.5273	0.3497	0	1	0.429	9	82	82
92	1	317	1	2	1	0.5273	0.3497	0	1	0.352	100	0	0
92	1	318	0	2	2	0.5273	0.3497	1	1	0.953	5	0	82
92	1	319	1	1	3	0.5273	0.3497	0	1	0.545	81	0	0
92	1	320	9	1	1	0.5273	0.3497	0	1	0.493	0	0	0
92	1	321	0	1	3	0.5273	0.3497	1	0	0.667	0	82	0
92	1	322	1	2	3	0.5273	0.3497	0	1	0.443	91	0	0
92	1	323	1	2	2	0.5273	0.3497	1	1	0.505	85	82	0
92	1	324	0	2	2	0.5273	0.3497	1	0	0.406	0	0	82
92	1	325	0	2	2	0.5273	0.3497	0	1	0.474	9	82	82
92	1	326	1	1	1	0.5273	0.3497	0	0	0.485	0	0	0
92	1	327	0	1	1	0.5273	0.3497	0	1	0.474	9	82	82
92	1	328	0	1	2	0.5273	0.3497	0	1	0.459	9	82	82
92	1	329	1	1	3	0.5273	0.3497	1	1	0.509	84	0	82
92	1	330	1	1	3	0.5273	0.3497	1	1	0.543	81	0	82
92	1	331	1	1	3	0.5273	0.3497	0	1	2.225	50	0	0
92	1	332	0	1	1	0.5273	0.3497	1	0	1.209	0	82	0
92	1	333	0	2	1	0.5273	0.3497	1	1	1.101	5	0	82
92	1	334	1	1	3	0.5273	0.3497	1	1	0.535	81	0	82
92	1	335	9	1	3	0.5273	0.3497	0	1	0.723	0	82	82
92	1	336	0	2	2	0.5273	0.3497	0	1	0.444	9	82	82
92	1	337	1	1	3	0.5273	0.3497	1	1	0.417	93	0	82
92	1	338	0	2	2	0.5273	0.3497	1	1	0.423	9	0	82
92	1	339	1	1	3	0.5273	0.3497	0	1	0.487	86	0	0
92	1	340	9	2	3	0.5273	0.3497	1	1	0.548	0	82	0
92	1	341	0	2	3	0.5273	0.3497	1	0	0.465	0	0	82
92	1	342	0	2	2	0.5273	0.3497	0	1	0.378	10	82	82
92	1	343	0	1	1	0.5273	0.3497	0	1	0.432	9	82	82
92	1	344	1	1	1	0.5273	0.3497	1	1	0.588	76	0	82
92	1	345	1	1	1	0.5273	0.3497	0	1	0.347	100	0	0
92	1	346	0	2	3	0.5273	0.3497	1	0	0.739	0	0	82
92	1	347	1	1	2	0.5273	0.3497	1	1	0.683	67	0	82
92	1	348	0	2	3	0.5273	0.3497	0	1	0.368	10	82	82
92	1	349	0	1	2	0.5273	0.3497	0	1	0.452	9	82	82
92	1	350	1	1	2	0.5273	0.3497	1	1	0.447	90	0	82
92	1	351	0	2	1	0.5273	0.3497	1	0	0.591	0	0	82
92	1	352	1	2	3	0.5273	0.3497	1	1	0.741	61	82	0
92	1	353	0	2	1	0.5273	0.3497	1	0	0.810	0	0	82
92	1	354	9	2	3	0.5273	0.3497	0	1	0.701	0	0	0
92	1	355	1	2	2	0.5273	0.3497	0	1	0.449	90	0	0
92	1	356	9	2	3	0.5273	0.3497	0	1	0.429	0	0	0
92	1	357	0	2	3	0.5273	0.3497	1	0	0.502	0	0	82
92	1	358	9	2	3	0.5273	0.3497	1	1	0.733	0	0	82
92	1	359	9	1	3	0.5273	0.3497	0	1	0.739	0	0	0
92	1	360	1	2	3	0.5273	0.3497	0	1	0.380	97	0	0
92	1	361	0	1	3	0.5273	0.3497	1	1	0.628	7	82	0
92	1	362	0	1	1	0.5273	0.3497	0	1	0.420	9	82	82
92	1	363	1	2	2	0.5273	0.3497	1	1	0.476	87	82	0
92	1	364	0	2	2	0.5273	0.3497	1	1	0.652	7	0	82
92	1	365	1	2	1	0.5273	0.3497	1	1	0.619	73	82	0
92	1	366	0	1	1	0.5273	0.3497	0	1	0.596	8	82	82
92	1	367	1	2	3	0.5273	0.3497	1	1	0.519	83	82	0
92	1	368	1	1	1	0.5273	0.3497	1	0	0.491	0	0	82
92	1	369	0	2	3	0.5273	0.3497	0	1	0.456	9	82	82
92	1	370	9	1	1	0.5273	0.3497	1	1	0.374	0	0	82
92	1	371	9	2	2	0.5273	0.3497	0	1	0.340	0	0	0
92	1	372	0	1	3	0.5273	0.3497	0	1	0.574	8	82	82
92	1	373	9	2	1	0.5273	0.3497	1	1	0.719	0	82	0
92	1	374	9	1	3	0.5273	0.3497	0	1	0.425	0	0	0
92	1	375	0	1	3	0.5273	0.3497	0	1	0.493	9	82	82
92	1	376	9	1	3	0.5273	0.3497	0	1	0.549	0	82	82
92	1	377	1	1	3	0.5273	0.3497	1	1	0.438	91	0	82
92	1	378	1	2	3	0.5273	0.3497	1	1	0.946	50	82	0
92	1	379	1	1	1	0.5273	0.3497	0	1	0.481	87	0	0
92	1	380	1	1	3	0.5273	0.3497	1	1	0.479	87	0	82
92	1	381	0	1	3	0.5273	0.3497	1	1	0.528	8	82	0
92	1	382	0	1	1	0.5273	0.3497	1	1	0.607	7	82	0
92	1	383	1	1	1	0.5273	0.3497	1	1	0.374	98	0	82
92	1	384	1	2	3	0.5273	0.3497	0	1	0.417	93	0	0
92	1	385	0	2	2	0.5273	0.3497	1	1	0.489	9	0	82
92	1	386	1	1	2	0.5273	0.3497	0	1	0.503	85	0	0
92	1	387	1	2	3	0.5273	0.3497	0	1	0.510	84	0	0
92	1	388	0	1	1	0.5273	0.3497	0	1	0.480	9	82	82
92	1	389	0	1	1	0.5273	0.3497	1	1	0.552	8	82	0
92	1	390	0	2	2	0.5273	0.3497	0	1	0.391	10	82	82
92	1	391	0	1	1	0.5273	0.3497	1	1	0.710	6	82	0
92	1	392	0	2	3	0.5273	0.3497	1	1	0.915	5	0	82
92	1	393	9	1	1	0.5273	0.3497	1	1	0.427	0	0	82
92	1	394	0	1	3	0.5273	0.3497	1	1	0.680	7	82	0
92	1	395	0	2	3	0.5273	0.3497	0	1	0.563	8	82	82
92	1	396	1	2	2	0.5273	0.3497	1	1	0.643	71	82	0
92	1	397	9	1	1	0.5273	0.3497	0	1	0.692	0	82	82
92	1	398	0	1	3	0.5273	0.3497	0	1	0.485	9	82	82
92	1	399	1	1	3	0.5273	0.3497	1	1	0.780	57	0	82
92	1	400	0	1	2	0.5273	0.3497	0	1	0.447	9	82	82
92	1	401	1	2	3	0.5273	0.3497	1	1	0.489	86	82	0
92	1	402	1	1	1	0.5273	0.3497	1	1	0.846	50	0	82
92	1	403	0	2	3	0.5273	0.3497	0	1	0.393	10	82	82
92	1	404	1	1	1	0.5273	0.3497	0	1	0.457	89	0	0
92	1	405	9	1	1	0.5273	0.3497	0	1	0.449	0	82	82
92	1	406	1	1	1	0.5273	0.3497	0	1	0.405	94	0	0
92	1	407	1	2	2	0.5273	0.3497	0	0	0.777	0	0	0
92	1	408	1	1	2	0.5273	0.3497	1	1	0.463	89	0	82
92	1	409	1	1	1	0.5273	0.3497	0	1	0.459	89	0	0
92	1	410	1	2	2	0.5273	0.3497	1	1	0.427	92	82	0
92	1	411	9	2	1	0.5273	0.3497	0	1	0.452	0	82	82
92	1	412	1	1	3	0.5273	0.3497	0	1	0.560	79	0	0
92	1	413	1	2	3	0.5273	0.3497	1	1	0.384	97	82	0
92	1	414	0	1	3	0.5273	0.3497	0	1	0.496	9	82	82
92	1	415	0	2	2	0.5273	0.3497	0	1	0.420	9	82	82
92	1	416	0	2	3	0.5273	0.3497	1	0	0.485	0	0	82
92	1	417	9	2	3	0.5273	0.3497	1	1	0.369	0	82	0
92	1	418	9	1	3	0.5273	0.3497	0	1	0.426	0	82	82
92	1	419	0	2	1	0.5273	0.3497	1	0	0.352	0	0	82
92	1	420	0	2	3	0.5273	0.3497	1	1	0.417	9	0	82
92	1	421	0	2	1	0.5273	0.3497	0	1	1.045	5	82	82
92	1	422	0	1	1	0.5273	0.3497	1	1	0.448	9	82	0
92	1	423	0	2	2	0.5273	0.3497	0	1	0.442	9	82	82
92	1	424	0	2	3	0.5273	0.3497	1	0	0.422	0	0	82
92	1	425	1	1	1	0.5273	0.3497	0	1	0.509	84	0	0
92	1	426	0	2	3	0.5273	0.3497	0	1	0.405	9	82	82
92	1	427	0	1	3	0.5273	0.3497	1	1	0.601	7	82	0
92	1	428	1	2	2	0.5273	0.3497	1	0	0.445	0	82	0
92	1	429	1	2	3	0.5273	0.3497	1	1	0.373	98	82	0
92	1	430	9	1	1	0.5273	0.3497	0	1	0.510	0	82	82
92	1	431	1	1	2	0.5273	0.3497	1	1	0.459	89	0	82
92	1	432	9	2	2	0.5273	0.3497	0	1	0.487	0	82	82
92	1	433	0	2	2	0.5273	0.3497	1	1	0.392	10	0	82
92	1	434	0	2	2	0.5273	0.3497	1	0	0.524	0	0	82
92	1	435	9	1	2	0.5273	0.3497	0	1	0.560	0	82	82
92	1	436	1	2	2	0.5273	0.3497	0	1	0.838	51	0	0
92	1	437	0	2	3	0.5273	0.3497	0	1	1.021	5	82	82
92	1	438	1	2	1	0.5273	0.3497	1	0	0.361	0	82	0
92	1	439	1	1	1	0.5273	0.3497	0	1	0.533	82	0	0
92	1	440	9	1	3	0.5273	0.3497	0	1	0.391	0	0	0
92	1	441	1	2	1	0.5273	0.3497	0	1	0.464	89	0	0
92	1	442	0	1	1	0.5273	0.3497	1	1	0.555	8	82	0
92	1	443	1	2	2	0.5273	0.3497	0	1	0.355	100	0	0
92	1	444	0	1	3	0.5273	0.3497	0	1	0.486	9	82	82
92	1	445	0	2	3	0.5273	0.3497	1	1	0.944	5	0	82
92	1	446	1	2	1	0.5273	0.3497	1	1	0.919	50	82	0
92	1	447	1	2	3	0.5273	0.3497	1	1	0.538	81	82	0
92	1	448	0	2	2	0.5273	0.3497	1	1	0.915	5	0	82
92	1	449	9	2	1	0.5273	0.3497	1	1	0.757	0	0	82
92	1	450	0	2	2	0.5273	0.3497	0	1	0.463	9	82	82
92	1	451	1	2	2	0.5273	0.3497	1	1	0.573	78	82	0
92	1	452	0	2	3	0.5273	0.3497	1	0	0.648	0	0	82
92	1	453	9	2	2	0.5273	0.3497	1	1	0.347	0	82	0
92	1	454	0	1	3	0.5273	0.3497	0	1	0.772	6	82	82
92	1	455	0	2	3	0.5273	0.3497	0	1	0.823	5	82	82
92	1	456	0	1	3	0.5273	0.3497	1	1	0.658	7	82	0
92	1	457	1	1	3	0.5273	0.3497	0	1	0.483	87	0	0
92	1	458	1	1	1	0.5273	0.3497	1	1	0.547	80	0	82
92	1	459	1	1	1	0.5273	0.3497	1	1	0.382	97	0	82
92	1	460	0	2	1	0.5273	0.3497	1	1	0.698	7	0	82
92	1	461	1	2	2	0.5273	0.3497	1	1	0.361	99	82	0
92	1	462	9	2	3	0.5273	0.3497	1	1	1.150	0	0	82
92	1	463	1	2	3	0.5273	0.3497	1	1	0.369	98	82	0
92	1	464	9	2	3	0.5273	0.3497	0	1	0.769	0	82	82
92	1	465	1	2	3	0.5273	0.3497	0	1	0.309	100	0	0
92	1	466	9	1	3	0.5273	0.3497	1	0	1.245	0	0	82
92	1	467	0	1	1	0.5273	0.3497	1	0	0.640	0	82	0
92	1	468	9	1	1	0.5273	0.3497	1	1	1.046	0	82	0
92	1	469	0	1	3	0.5273	0.3497	0	1	0.624	7	82	82
92	1	470	9	1	1	0.5273	0.3497	1	1	0.477	0	0	82
92	1	471	0	1	2	0.5273	0.3497	1	1	0.716	6	82	0
92	1	472	1	2	3	0.5273	0.3497	0	1	0.525	82	0	0
92	1	473	9	1	1	0.5273	0.3497	1	1	0.416	0	0	82
92	1	474	1	2	3	0.5273	0.3497	0	1	0.429	92	0	0
92	1	475	0	2	2	0.5273	0.3497	1	1	0.867	5	0	82
92	1	476	0	2	2	0.5273	0.3497	1	1	0.672	7	0	82
92	1	477	9	1	1	0.5273	0.3497	0	1	0.577	0	0	0
92	1	478	1	2	3	0.5273	0.3497	0	1	0.542	81	0	0
92	1	479	0	2	2	0.5273	0.3497	0	1	0.592	8	82	82
92	1	480	1	2	3	0.5273	0.3497	0	1	0.472	88	0	0
92	1	481	1	2	3	0.5273	0.3497	0	1	0.511	84	0	0
92	1	482	1	2	2	0.5273	0.3497	1	1	0.651	70	82	0
92	1	483	1	2	3	0.5273	0.3497	1	1	0.460	89	82	0
92	1	484	0	1	3	0.5273	0.3497	1	1	0.971	5	82	0
92	1	485	0	1	1	0.5273	0.3497	0	1	0.541	8	82	82
92	1	486	1	1	3	0.5273	0.3497	0	1	0.479	87	0	0
92	1	487	1	1	3	0.5273	0.3497	0	1	0.478	87	0	0
92	1	488	0	1	1	0.5273	0.3497	0	1	0.412	9	82	82
92	1	489	1	1	3	0.5273	0.3497	0	1	0.417	93	0	0
92	1	490	9	2	3	0.5273	0.3497	1	1	0.454	0	82	0
92	1	491	1	1	3	0.5273	0.3497	1	1	0.457	89	0	82
92	1	492	1	2	3	0.5273	0.3497	0	1	0.552	80	0	0
92	1	493	0	2	2	0.5273	0.3497	1	1	0.851	5	0	82
92	1	494	0	2	3	0.5273	0.3497	0	1	0.434	9	82	82
92	1	495	0	1	3	0.5273	0.3497	0	1	0.487	9	82	82
92	1	496	1	2	3	0.5273	0.3497	0	1	0.401	95	0	0
92	1	497	0	2	3	0.5273	0.3497	0	1	0.421	9	82	82
92	1	498	1	1	3	0.5273	0.3497	0	1	0.467	88	0	0
92	1	499	0	2	2	0.5273	0.3497	1	1	1.157	5	0	82
92	1	500	1	1	3	0.5273	0.3497	0	1	0.525	83	0	0
92	1	501	1	2	2	0.5273	0.3497	0	1	0.426	92	0	0
92	1	502	0	1	3	0.5273	0.3497	1	1	0.562	8	82	0
92	1	503	0	1	1	0.5273	0.3497	1	1	0.490	9	82	0
92	1	504	0	1	1	0.5273	0.3497	0	1	0.458	9	82	82
92	1	505	9	2	3	0.5273	0.3497	0	1	0.409	0	82	82
92	1	506	0	1	1	0.5273	0.3497	1	1	0.669	7	82	0
92	1	507	0	2	2	0.5273	0.3497	0	1	0.363	10	82	82
92	1	508	1	2	3	0.5273	0.3497	0	1	1.211	50	0	0
92	1	509	1	2	2	0.5273	0.3497	1	1	0.537	81	82	0
92	1	510	0	2	2	0.5273	0.3497	1	1	0.777	6	0	82
92	1	511	9	1	1	0.5273	0.3497	0	1	0.435	0	0	0
92	1	512	1	2	2	0.5273	0.3497	0	1	0.471	88	0	0
92	1	513	0	1	1	0.5273	0.3497	0	1	0.482	9	82	82
92	1	514	1	2	2	0.5273	0.3497	0	1	0.437	91	0	0
92	1	515	0	1	1	0.5273	0.3497	1	1	0.453	9	82	0
92	1	516	0	1	3	0.5273	0.3497	1	1	0.571	8	82	0
92	1	517	1	2	2	0.5273	0.3497	0	0	0.560	0	0	0
92	1	518	0	1	1	0.5273	0.3497	0	1	0.392	10	82	82
92	1	519	1	2	1	0.5273	0.3497	1	1	0.419	93	82	0
92	1	520	1	1	3	0.5273	0.3497	1	1	0.479	87	0	82
92	1	521	9	2	3	0.5273	0.3497	0	1	0.451	0	0	0
92	1	522	1	1	1	0.5273	0.3497	0	1	0.407	94	0	0
92	1	523	9	2	3	0.5273	0.3497	0	1	0.491	0	82	82
92	1	524	1	1	2	0.5273	0.3497	0	1	0.520	83	0	0
92	1	525	9	2	2	0.5273	0.3497	1	1	0.722	0	0	82
92	1	526	1	2	2	0.5273	0.3497	0	1	0.424	93	0	0
92	1	527	0	2	1	0.5273	0.3497	0	1	0.413	9	82	82
92	1	528	1	1	1	0.5273	0.3497	0	1	0.558	79	0	0
92	1	529	1	1	1	0.5273	0.3497	1	1	0.432	92	0	82
92	1	530	9	2	3	0.5273	0.3497	1	1	0.882	0	0	82
92	1	531	1	1	3	0.5273	0.3497	1	1	0.662	69	0	82
92	1	532	1	1	3	0.5273	0.3497	0	1	0.508	84	0	0
92	1	533	0	2	2	0.5273	0.3497	0	1	0.389	10	82	82
92	1	534	1	1	3	0.5273	0.3497	1	1	0.521	83	0	82
92	1	535	1	1	3	0.5273	0.3497	1	1	0.332	100	0	82
92	1	536	0	1	2	0.5273	0.3497	0	1	0.600	7	82	82
92	1	537	9	1	3	0.5273	0.3497	1	1	0.516	0	82	0
92	1	538	0	1	3	0.5273	0.3497	1	1	0.470	9	82	0
92	1	539	0	1	1	0.5273	0.3497	0	1	0.498	9	82	82
92	1	540	0	2	2	0.5273	0.3497	0	0	0.344	0	82	82
92	1	541	1	2	3	0.5273	0.3497	1	0	0.544	0	82	0
92	1	542	1	1	3	0.5273	0.3497	1	1	0.315	100	0	82
92	1	543	0	2	3	0.5273	0.3497	0	1	0.615	7	82	82
92	1	544	1	2	2	0.5273	0.3497	0	0	0.393	0	0	0
92	1	545	0	1	3	0.5273	0.3497	1	1	0.728	6	82	0
92	1	546	0	2	3	0.5273	0.3497	1	1	0.369	10	0	82
92	1	547	1	1	1	0.5273	0.3497	1	1	0.323	100	0	82
92	1	548	1	1	1	0.5273	0.3497	1	1	0.353	100	0	82
92	1	549	1	1	1	0.5273	0.3497	0	0	0.364	0	0	0
92	1	550	1	2	3	0.5273	0.3497	0	1	0.812	54	0	0
92	1	551	1	1	3	0.5273	0.3497	0	1	0.366	98	0	0
92	1	552	0	1	2	0.5273	0.3497	0	1	0.445	9	82	82
92	1	553	1	1	1	0.5273	0.3497	1	1	0.318	100	0	82
92	1	554	1	1	1	0.5273	0.3497	0	1	0.400	95	0	0
92	1	555	9	1	3	0.5273	0.3497	1	1	0.351	0	82	0
92	1	556	9	2	3	0.5273	0.3497	0	1	0.363	0	0	0
92	1	557	9	1	3	0.5273	0.3497	1	1	0.576	0	0	82
92	1	558	0	1	3	0.5273	0.3497	0	1	0.595	8	82	82
92	1	559	1	2	2	0.5273	0.3497	1	0	0.590	0	82	0
92	1	560	0	1	3	0.5273	0.3497	1	1	0.424	9	82	0
92	1	561	9	2	2	0.5273	0.3497	0	1	0.818	0	0	0
92	1	562	9	2	2	0.5273	0.3497	1	1	0.564	0	82	0
92	1	563	9	1	1	0.5273	0.3497	1	1	0.646	0	82	0
92	1	564	1	1	2	0.5273	0.3497	0	1	0.407	94	0	0
92	1	565	1	1	3	0.5273	0.3497	0	1	0.546	80	0	0
92	1	566	0	2	3	0.5273	0.3497	1	1	0.326	10	0	82
92	1	567	9	2	2	0.5273	0.3497	0	1	0.429	0	82	82
92	1	568	1	1	3	0.5273	0.3497	1	1	0.349	100	0	82
92	1	569	9	1	3	0.5273	0.3497	1	1	1.050	0	0	82
92	1	570	9	1	3	0.5273	0.3497	1	1	0.340	0	0	82
92	1	571	1	2	2	0.5273	0.3497	1	1	0.424	93	82	0
92	1	572	1	2	2	0.5273	0.3497	0	1	0.629	72	0	0
92	1	573	0	2	2	0.5273	0.3497	0	1	0.416	9	82	82
92	1	574	9	1	1	0.5273	0.3497	0	0	0.660	0	82	82
92	1	575	1	1	3	0.5273	0.3497	0	1	0.334	100	0	0
92	1	576	1	2	2	0.5273	0.3497	0	1	0.397	95	0	0
92	1	577	1	2	3	0.5273	0.3497	1	1	0.406	94	82	0
92	1	578	1	2	3	0.5273	0.3497	1	1	0.636	71	82	0
92	1	579	0	2	3	0.5273	0.3497	1	0	0.357	0	0	82
92	1	580	1	1	1	0.5273	0.3497	1	1	0.441	91	0	82
92	1	581	1	2	3	0.5273	0.3497	1	1	0.554	80	82	0
92	1	582	9	1	1	0.5273	0.3497	1	1	0.566	0	82	0
92	1	583	9	2	3	0.5273	0.3497	1	1	0.370	0	0	82
92	1	584	0	1	3	0.5273	0.3497	0	0	0.451	0	82	82
92	1	585	0	2	3	0.5273	0.3497	0	1	0.447	9	82	82
92	1	586	0	1	1	0.5273	0.3497	1	1	0.606	7	82	0
92	1	587	0	2	1	0.5273	0.3497	0	1	0.371	10	82	82
92	1	588	1	2	2	0.5273	0.3497	1	1	0.524	83	82	0
92	1	589	1	2	3	0.5273	0.3497	1	1	0.461	89	82	0
92	1	590	9	2	2	0.5273	0.3497	0	1	0.366	0	82	82
92	1	591	9	2	2	0.5273	0.3497	1	1	0.538	0	82	0
92	1	592	1	1	3	0.5273	0.3497	0	1	0.423	93	0	0
92	1	593	0	1	3	0.5273	0.3497	0	1	0.575	8	82	82
92	1	594	1	1	1	0.5273	0.3497	0	0	0.388	0	0	0
92	1	595	0	2	3	0.5273	0.3497	1	0	0.505	0	0	82
92	1	596	0	2	3	0.5273	0.3497	1	0	0.503	0	0	82
92	1	597	1	2	2	0.5273	0.3497	1	1	0.343	100	82	0
92	1	598	1	1	1	0.5273	0.3497	1	1	0.379	97	0	82
92	1	599	1	1	3	0.5273	0.3497	1	1	0.359	99	0	82
92	1	600	1	1	1	0.5273	0.3497	1	1	0.301	100	0	82
92	1	601	1	2	3	0.5273	0.3497	0	1	0.378	97	0	0
92	1	602	1	1	2	0.5273	0.3497	0	1	0.428	92	0	0
92	1	603	0	2	1	0.5273	0.3497	1	1	0.695	7	0	82
92	1	604	0	2	2	0.5273	0.3497	0	1	0.338	10	82	82
92	1	605	1	1	3	0.5273	0.3497	0	1	0.343	100	0	0
92	1	606	1	2	2	0.5273	0.3497	0	1	0.391	96	0	0
92	1	607	1	1	1	0.5273	0.3497	0	1	0.434	92	0	0
92	1	608	9	2	3	0.5273	0.3497	1	1	0.632	0	0	82
92	1	609	0	1	2	0.5273	0.3497	1	1	0.636	7	82	0
92	1	610	1	1	1	0.5273	0.3497	1	1	0.678	67	0	82
92	1	611	9	1	3	0.5273	0.3497	0	1	0.426	0	82	82
92	1	612	1	2	1	0.5273	0.3497	0	1	1.018	50	0	0
92	1	613	0	2	2	0.5273	0.3497	0	1	0.681	7	82	82
92	1	614	1	1	2	0.5273	0.3497	1	1	0.504	85	0	82
92	1	615	1	2	2	0.5273	0.3497	1	1	0.654	70	82	0
92	1	616	0	1	1	0.5273	0.3497	0	1	0.656	7	82	82
92	1	617	0	2	3	0.5273	0.3497	0	1	0.517	8	82	82
92	1	618	1	2	3	0.5273	0.3497	1	1	0.511	84	82	0
92	1	619	1	2	2	0.5273	0.3497	1	1	0.515	84	82	0
92	1	620	1	2	2	0.5273	0.3497	0	1	0.601	75	0	0
92	1	621	9	2	1	0.5273	0.3497	0	1	1.311	0	0	0
92	1	622	9	2	3	0.5273	0.3497	0	1	0.356	0	0	0
92	1	623	9	1	3	0.5273	0.3497	1	1	0.537	0	82	0
92	1	624	0	2	3	0.5273	0.3497	1	1	0.301	10	0	82
92	1	625	9	1	3	0.5273	0.3497	0	1	0.660	0	0	0
92	1	626	0	2	2	0.5273	0.3497	1	1	0.509	8	0	82
92	1	627	0	1	3	0.5273	0.3497	0	1	0.720	6	82	82
92	1	628	0	2	1	0.5273	0.3497	1	0	0.507	0	0	82
92	1	629	0	1	1	0.5273	0.3497	0	1	0.497	9	82	82
92	1	630	0	2	3	0.5273	0.3497	0	1	0.489	9	82	82
92	1	631	9	2	2	0.5273	0.3497	0	1	0.400	0	0	0
92	1	632	1	1	3	0.5273	0.3497	1	1	0.661	69	0	82
92	1	633	9	2	2	0.5273	0.3497	0	1	0.413	0	82	82
92	1	634	0	2	2	0.5273	0.3497	1	1	0.627	7	0	82
92	1	635	1	1	1	0.5273	0.3497	0	1	0.520	83	0	0
92	1	636	1	2	2	0.5273	0.3497	1	1	0.595	75	82	0
92	1	637	1	1	3	0.5273	0.3497	0	1	0.432	92	0	0
92	1	638	0	1	1	0.5273	0.3497	1	1	0.706	6	82	0
92	1	639	0	2	3	0.5273	0.3497	1	1	0.865	5	0	82
92	1	640	9	2	3	0.5273	0.3497	0	1	0.434	0	0	0
92	1	641	9	2	2	0.5273	0.3497	1	1	1.062	0	82	0
92	1	642	0	1	1	0.5273	0.3497	0	0	0.414	0	82	82
92	1	643	0	2	2	0.5273	0.3497	0	1	0.481	9	82	82
92	1	644	0	1	1	0.5273	0.3497	1	1	0.992	5	82	0
92	1	645	1	1	1	0.5273	0.3497	0	1	0.552	80	0	0
92	1	646	0	1	1	0.5273	0.3497	0	1	0.399	10	82	82
92	1	647	0	2	2	0.5273	0.3497	0	1	0.489	9	82	82
92	1	648	0	2	3	0.5273	0.3497	1	1	0.572	8	0	82
92	1	649	0	1	1	0.5273	0.3497	1	1	0.498	9	82	0
92	1	650	9	2	2	0.5273	0.3497	1	1	0.670	0	0	82
92	1	651	1	1	1	0.5273	0.3497	0	1	0.705	65	0	0
92	1	652	0	2	3	0.5273	0.3497	0	1	0.387	10	82	82
92	1	653	0	2	3	0.5273	0.3497	1	0	0.557	0	0	82
92	1	654	0	1	3	0.5273	0.3497	1	0	0.623	0	82	0
92	1	655	0	2	3	0.5273	0.3497	0	1	0.474	9	82	82
92	1	656	9	2	2	0.5273	0.3497	1	1	0.903	0	0	82
92	1	657	0	2	1	0.5273	0.3497	0	1	0.499	9	82	82
92	1	658	1	1	1	0.5273	0.3497	1	1	0.321	100	0	82
92	1	659	1	1	1	0.5273	0.3497	0	1	0.430	92	0	0
92	1	660	0	1	3	0.5273	0.3497	1	0	0.492	0	82	0
92	1	661	1	1	3	0.5273	0.3497	1	1	0.389	96	0	82
92	1	662	1	2	3	0.5273	0.3497	0	1	0.514	84	0	0
92	1	663	0	2	2	0.5273	0.3497	1	0	0.858	0	0	82
92	1	664	9	2	2	0.5273	0.3497	0	1	0.665	0	0	0
92	1	665	0	1	1	0.5273	0.3497	1	1	0.388	10	82	0
92	1	666	9	1	2	0.5273	0.3497	1	1	0.608	0	82	0
92	1	667	1	2	2	0.5273	0.3497	0	1	0.487	86	0	0
92	1	668	0	1	3	0.5273	0.3497	1	1	0.903	5	82	0
92	1	669	0	1	2	0.5273	0.3497	1	1	0.480	9	82	0
92	1	670	1	2	3	0.5273	0.3497	1	0	0.303	0	82	0
92	1	671	0	1	3	0.5273	0.3497	0	1	0.489	9	82	82
92	1	672	0	1	2	0.5273	0.3497	1	1	0.291	10	82	0
92	1	673	0	2	3	0.5273	0.3497	0	1	0.542	8	82	82
92	1	674	0	2	2	0.5273	0.3497	0	1	0.386	10	82	82
92	1	675	9	1	3	0.5273	0.3497	0	0	0.907	0	82	82
92	1	676	1	2	2	0.5273	0.3497	1	1	0.344	100	82	0
92	1	677	9	1	2	0.5273	0.3497	1	0	0.370	0	0	82
92	1	678	1	1	2	0.5273	0.3497	1	1	0.322	100	0	82
92	1	679	0	1	1	0.5273	0.3497	0	1	0.466	9	82	82
92	1	680	0	1	3	0.5273	0.3497	0	1	0.425	9	82	82
92	1	681	9	2	3	0.5273	0.3497	1	1	0.523	0	82	0
92	1	682	0	1	1	0.5273	0.3497	0	1	0.593	8	82	82
92	1	683	9	1	2	0.5273	0.3497	0	1	0.599	0	0	0
92	1	684	0	1	3	0.5273	0.3497	0	1	0.453	9	82	82
92	1	685	0	2	2	0.5273	0.3497	0	1	0.611	7	82	82
92	1	686	1	1	3	0.5273	0.3497	0	1	0.394	96	0	0
92	1	687	1	2	1	0.5273	0.3497	0	1	0.481	87	0	0
92	1	688	0	2	3	0.5273	0.3497	0	1	0.440	9	82	82
92	1	689	0	2	2	0.5273	0.3497	1	0	0.518	0	0	82
92	1	690	0	2	2	0.5273	0.3497	1	1	1.062	5	0	82
92	1	691	0	1	1	0.5273	0.3497	1	1	0.710	6	82	0
92	1	692	9	1	3	0.5273	0.3497	1	1	0.887	0	82	0
92	1	693	0	1	1	0.5273	0.3497	1	1	0.540	8	82	0
92	1	694	9	1	1	0.5273	0.3497	0	0	0.415	0	0	0
92	1	695	0	2	2	0.5273	0.3497	0	1	0.443	9	82	82
92	1	696	1	1	3	0.5273	0.3497	1	1	0.431	92	0	82
92	1	697	9	2	3	0.5273	0.3497	0	1	0.385	0	82	82
92	1	698	0	1	2	0.5273	0.3497	0	1	0.641	7	82	82
92	1	699	1	2	2	0.5273	0.3497	0	1	0.443	91	0	0
92	1	700	1	2	3	0.5273	0.3497	0	1	0.384	97	0	0
92	1	701	9	1	3	0.5273	0.3497	0	1	0.582	0	0	0
92	1	702	1	2	2	0.5273	0.3497	0	1	0.553	80	0	0
92	1	703	9	1	1	0.5273	0.3497	1	0	0.575	0	82	0
92	1	704	1	2	1	0.5273	0.3497	0	1	0.327	100	0	0
92	1	705	9	2	3	0.5273	0.3497	1	1	0.638	0	82	0
92	1	706	0	1	3	0.5273	0.3497	0	1	0.591	8	82	82
92	1	707	0	1	1	0.5273	0.3497	0	1	0.440	9	82	82
92	1	708	0	2	2	0.5273	0.3497	1	1	0.871	5	0	82
92	1	709	1	1	3	0.5273	0.3497	1	1	0.448	90	0	82
92	1	710	1	1	1	0.5273	0.3497	1	1	0.360	99	0	82
92	1	711	0	1	3	0.5273	0.3497	1	1	0.563	8	82	0
92	1	712	1	2	3	0.5273	0.3497	1	1	0.406	94	82	0
92	1	713	0	1	3	0.5273	0.3497	1	1	0.725	6	82	0
92	1	714	1	2	3	0.5273	0.3497	0	1	0.378	97	0	0
92	1	715	0	2	3	0.5273	0.3497	1	0	0.912	0	0	82
92	1	716	1	1	3	0.5273	0.3497	0	1	0.536	81	0	0
92	1	717	1	1	1	0.5273	0.3497	1	1	0.803	55	0	82
92	1	718	1	1	3	0.5273	0.3497	1	1	0.383	97	0	82
92	1	719	9	2	2	0.5273	0.3497	1	0	0.509	0	0	82
92	1	720	9	1	1	0.5273	0.3497	0	1	0.482	0	0	0
