sub	sess	t	rew	loc	cue	co1	co2	or	resp	rt	rew_tot	left_col	right_col
19	1	1	1	1	1	0.2788	0.0509	1	1	0.963	50	82	0
19	1	2	9	2	3	0.2788	0.0509	0	0	0.749	0	82	82
19	1	3	0	1	1	0.2788	0.0509	1	1	0.829	5	0	82
19	1	4	0	2	2	0.2788	0.0509	0	1	0.587	8	0	0
19	1	5	0	1	2	0.2788	0.0509	1	1	0.563	8	0	82
19	1	6	1	2	2	0.2788	0.0509	1	1	0.870	50	0	82
19	1	7	9	1	1	0.2788	0.0509	0	1	0.658	0	82	82
19	1	8	1	2	3	0.2788	0.0509	1	1	0.705	64	0	82
19	1	9	9	1	1	0.2788	0.0509	1	1	0.781	0	82	0
19	1	10	1	1	1	0.2788	0.0509	0	1	0.531	82	82	82
19	1	11	0	2	2	0.2788	0.0509	1	1	0.848	5	82	0
19	1	12	1	1	3	0.2788	0.0509	0	1	0.579	77	82	82
19	1	13	9	1	2	0.2788	0.0509	0	1	0.736	0	0	0
19	1	14	0	1	1	0.2788	0.0509	0	1	0.643	7	0	0
19	1	15	1	1	3	0.2788	0.0509	0	1	0.561	79	82	82
19	1	16	1	1	3	0.2788	0.0509	0	1	0.682	67	82	82
19	1	17	0	2	1	0.2788	0.0509	1	1	0.942	5	82	0
19	1	18	1	1	2	0.2788	0.0509	0	1	0.839	51	82	82
19	1	19	1	1	3	0.2788	0.0509	1	1	0.378	97	82	0
19	1	20	1	2	3	0.2788	0.0509	0	1	0.581	77	82	82
19	1	21	1	1	3	0.2788	0.0509	1	1	0.613	74	82	0
19	1	22	0	1	3	0.2788	0.0509	0	1	0.754	6	0	0
19	1	23	1	1	2	0.2788	0.0509	0	1	0.539	81	82	82
19	1	24	0	1	1	0.2788	0.0509	0	1	0.482	9	0	0
19	1	25	0	2	3	0.2788	0.0509	1	0	0.503	0	82	0
19	1	26	0	2	2	0.2788	0.0509	0	1	0.499	9	0	0
19	1	27	1	1	1	0.2788	0.0509	0	1	0.763	59	82	82
19	1	28	0	1	3	0.2788	0.0509	1	1	0.390	10	0	82
19	1	29	1	2	2	0.2788	0.0509	0	1	0.453	90	82	82
19	1	30	9	2	2	0.2788	0.0509	0	1	0.508	0	0	0
19	1	31	0	1	2	0.2788	0.0509	0	1	0.597	8	0	0
19	1	32	0	1	1	0.2788	0.0509	0	1	0.746	6	0	0
19	1	33	1	1	2	0.2788	0.0509	1	1	0.628	72	82	0
19	1	34	9	1	1	0.2788	0.0509	0	1	0.474	0	82	82
19	1	35	0	1	1	0.2788	0.0509	0	1	0.449	9	0	0
19	1	36	1	1	3	0.2788	0.0509	0	1	0.591	76	82	82
19	1	37	1	1	2	0.2788	0.0509	1	1	0.401	95	82	0
19	1	38	0	1	1	0.2788	0.0509	1	1	0.711	6	0	82
19	1	39	9	2	3	0.2788	0.0509	1	0	0.580	0	0	82
19	1	40	0	1	3	0.2788	0.0509	1	1	0.613	7	0	82
19	1	41	1	1	1	0.2788	0.0509	0	1	0.541	81	82	82
19	1	42	1	1	3	0.2788	0.0509	1	1	0.547	80	82	0
19	1	43	1	2	3	0.2788	0.0509	1	0	0.622	0	0	82
19	1	44	1	2	2	0.2788	0.0509	0	1	0.483	87	82	82
19	1	45	0	2	1	0.2788	0.0509	0	1	0.586	8	0	0
19	1	46	1	2	3	0.2788	0.0509	0	1	0.477	87	82	82
19	1	47	0	2	2	0.2788	0.0509	1	1	0.738	6	82	0
19	1	48	1	2	3	0.2788	0.0509	0	1	0.501	85	82	82
19	1	49	1	2	2	0.2788	0.0509	1	1	0.783	57	0	82
19	1	50	0	1	1	0.2788	0.0509	0	1	1.026	5	0	0
19	1	51	0	2	1	0.2788	0.0509	0	1	0.781	6	0	0
19	1	52	0	1	2	0.2788	0.0509	1	1	0.558	8	0	82
19	1	53	1	2	2	0.2788	0.0509	0	1	0.501	85	82	82
19	1	54	0	1	3	0.2788	0.0509	0	0	0.624	0	0	0
19	1	55	0	2	3	0.2788	0.0509	0	1	0.662	7	0	0
19	1	56	9	2	2	0.2788	0.0509	0	1	0.568	0	82	82
19	1	57	0	1	1	0.2788	0.0509	1	1	0.595	8	0	82
19	1	58	0	2	3	0.2788	0.0509	0	1	0.472	9	0	0
19	1	59	1	1	3	0.2788	0.0509	0	1	0.607	74	82	82
19	1	60	0	1	1	0.2788	0.0509	1	1	0.452	9	0	82
19	1	61	0	1	3	0.2788	0.0509	0	1	0.566	8	0	0
19	1	62	1	1	3	0.2788	0.0509	0	1	0.657	69	82	82
19	1	63	0	2	2	0.2788	0.0509	1	0	0.464	0	82	0
19	1	64	0	1	1	0.2788	0.0509	0	1	0.577	8	0	0
19	1	65	1	2	1	0.2788	0.0509	0	0	0.776	0	82	82
19	1	66	1	2	3	0.2788	0.0509	1	1	0.734	62	0	82
19	1	67	0	2	2	0.2788	0.0509	0	1	2.058	5	0	0
19	1	68	9	1	3	0.2788	0.0509	0	1	0.612	0	82	82
19	1	69	9	1	3	0.2788	0.0509	0	1	0.507	0	0	0
19	1	70	0	1	3	0.2788	0.0509	0	1	0.487	9	0	0
19	1	71	0	2	2	0.2788	0.0509	0	1	1.402	5	0	0
19	1	72	1	1	3	0.2788	0.0509	0	1	0.615	73	82	82
19	1	73	1	2	3	0.2788	0.0509	1	0	0.777	0	0	82
19	1	74	1	1	3	0.2788	0.0509	1	1	0.680	67	82	0
19	1	75	0	1	3	0.2788	0.0509	1	1	0.636	7	0	82
19	1	76	9	2	3	0.2788	0.0509	0	1	0.694	0	0	0
19	1	77	0	2	2	0.2788	0.0509	0	1	1.006	5	0	0
19	1	78	0	1	3	0.2788	0.0509	1	1	0.575	8	0	82
19	1	79	1	1	1	0.2788	0.0509	1	1	0.579	77	82	0
19	1	80	0	1	3	0.2788	0.0509	1	1	0.592	8	0	82
19	1	81	9	2	2	0.2788	0.0509	0	1	0.633	0	0	0
19	1	82	0	1	1	0.2788	0.0509	0	1	0.574	8	0	0
19	1	83	0	2	2	0.2788	0.0509	1	1	0.582	8	82	0
19	1	84	0	2	1	0.2788	0.0509	1	0	0.629	0	82	0
19	1	85	0	1	1	0.2788	0.0509	0	1	0.497	9	0	0
19	1	86	9	1	3	0.2788	0.0509	0	1	0.689	0	0	0
19	1	87	1	1	3	0.2788	0.0509	0	1	0.581	77	82	82
19	1	88	0	2	2	0.2788	0.0509	1	1	0.759	6	82	0
19	1	89	0	1	1	0.2788	0.0509	1	1	0.597	8	0	82
19	1	90	0	2	3	0.2788	0.0509	1	0	0.611	0	82	0
19	1	91	0	1	1	0.2788	0.0509	0	1	0.570	8	0	0
19	1	92	1	1	2	0.2788	0.0509	1	1	0.837	51	82	0
19	1	93	1	1	1	0.2788	0.0509	1	1	0.793	56	82	0
19	1	94	1	2	3	0.2788	0.0509	1	1	0.721	63	0	82
19	1	95	1	1	1	0.2788	0.0509	1	1	0.607	74	82	0
19	1	96	0	2	2	0.2788	0.0509	1	1	0.650	7	82	0
19	1	97	9	1	1	0.2788	0.0509	1	1	0.524	0	82	0
19	1	98	9	1	3	0.2788	0.0509	0	1	0.778	0	82	82
19	1	99	0	1	1	0.2788	0.0509	0	1	0.699	7	0	0
19	1	100	1	1	3	0.2788	0.0509	1	1	0.767	58	82	0
19	1	101	1	2	3	0.2788	0.0509	0	1	0.593	76	82	82
19	1	102	1	2	3	0.2788	0.0509	0	1	0.586	76	82	82
19	1	103	0	1	3	0.2788	0.0509	0	1	0.712	6	0	0
19	1	104	0	2	2	0.2788	0.0509	1	0	0.801	0	82	0
19	1	105	9	2	3	0.2788	0.0509	0	1	0.700	0	82	82
19	1	106	1	2	2	0.2788	0.0509	0	1	0.542	81	82	82
19	1	107	0	2	2	0.2788	0.0509	1	0	0.603	0	82	0
19	1	108	1	2	3	0.2788	0.0509	1	0	0.793	0	0	82
19	1	109	0	2	2	0.2788	0.0509	0	1	0.656	7	0	0
19	1	110	1	1	1	0.2788	0.0509	1	1	3.785	50	82	0
19	1	111	1	2	3	0.2788	0.0509	0	1	0.575	77	82	82
19	1	112	9	2	3	0.2788	0.0509	1	1	0.698	0	82	0
19	1	113	1	2	2	0.2788	0.0509	0	1	0.630	72	82	82
19	1	114	1	1	2	0.2788	0.0509	0	1	0.987	50	82	82
19	1	115	0	2	2	0.2788	0.0509	1	1	0.733	6	82	0
19	1	116	1	1	3	0.2788	0.0509	1	1	0.582	77	82	0
19	1	117	1	2	2	0.2788	0.0509	0	1	0.605	75	82	82
19	1	118	1	2	2	0.2788	0.0509	0	1	0.598	75	82	82
19	1	119	1	2	2	0.2788	0.0509	0	1	0.533	82	82	82
19	1	120	1	1	1	0.2788	0.0509	1	1	0.506	84	82	0
19	1	121	9	2	2	0.2788	0.0509	1	0	0.676	0	0	82
19	1	122	0	2	3	0.2788	0.0509	1	1	0.743	6	82	0
19	1	123	1	2	2	0.2788	0.0509	1	1	0.728	62	0	82
19	1	124	1	1	1	0.2788	0.0509	1	1	0.616	73	82	0
19	1	125	1	2	3	0.2788	0.0509	1	0	0.705	0	0	82
19	1	126	1	1	1	0.2788	0.0509	1	1	0.681	67	82	0
19	1	127	0	2	3	0.2788	0.0509	0	1	0.594	8	0	0
19	1	128	1	1	3	0.2788	0.0509	1	1	1.028	50	82	0
19	1	129	0	2	2	0.2788	0.0509	1	1	0.757	6	82	0
19	1	130	0	2	3	0.2788	0.0509	1	1	0.817	5	82	0
19	1	131	1	1	1	0.2788	0.0509	1	1	0.569	78	82	0
19	1	132	9	1	3	0.2788	0.0509	1	1	0.469	0	0	82
19	1	133	0	1	2	0.2788	0.0509	0	0	0.660	0	0	0
19	1	134	1	1	3	0.2788	0.0509	0	1	0.695	65	82	82
19	1	135	0	1	3	0.2788	0.0509	0	1	0.537	8	0	0
19	1	136	0	2	3	0.2788	0.0509	0	1	0.695	7	0	0
19	1	137	1	1	3	0.2788	0.0509	0	1	0.612	74	82	82
19	1	138	0	1	1	0.2788	0.0509	0	1	0.562	8	0	0
19	1	139	1	1	1	0.2788	0.0509	0	1	0.578	77	82	82
19	1	140	0	2	1	0.2788	0.0509	0	1	0.896	5	0	0
19	1	141	1	1	3	0.2788	0.0509	1	0	1.041	0	82	0
19	1	142	1	1	1	0.2788	0.0509	1	1	0.632	72	82	0
19	1	143	1	1	1	0.2788	0.0509	1	1	0.551	80	82	0
19	1	144	1	1	3	0.2788	0.0509	0	1	0.722	63	82	82
19	1	145	1	2	3	0.2788	0.0509	1	0	0.620	0	0	82
19	1	146	9	1	2	0.2788	0.0509	1	1	0.785	0	0	82
19	1	147	0	2	2	0.2788	0.0509	1	0	0.675	0	82	0
19	1	148	0	1	1	0.2788	0.0509	1	1	0.562	8	0	82
19	1	149	9	1	3	0.2788	0.0509	1	1	0.551	0	0	82
19	1	150	1	2	3	0.2788	0.0509	0	1	1.062	50	82	82
19	1	151	1	2	3	0.2788	0.0509	1	0	0.752	0	0	82
19	1	152	1	2	2	0.2788	0.0509	0	1	0.498	85	82	82
19	1	153	9	2	3	0.2788	0.0509	1	1	0.704	0	0	82
19	1	154	9	2	2	0.2788	0.0509	0	1	0.513	0	82	82
19	1	155	0	2	2	0.2788	0.0509	0	1	0.556	8	0	0
19	1	156	1	1	3	0.2788	0.0509	0	1	0.578	77	82	82
19	1	157	9	1	1	0.2788	0.0509	0	1	0.575	0	0	0
19	1	158	0	1	3	0.2788	0.0509	1	1	0.596	8	0	82
19	1	159	1	1	1	0.2788	0.0509	0	1	0.744	61	82	82
19	1	160	0	2	3	0.2788	0.0509	0	1	0.596	8	0	0
19	1	161	0	1	1	0.2788	0.0509	1	1	0.537	8	0	82
19	1	162	9	1	3	0.2788	0.0509	1	1	0.494	0	82	0
19	1	163	0	2	3	0.2788	0.0509	0	1	0.608	7	0	0
19	1	164	1	1	3	0.2788	0.0509	1	1	0.693	66	82	0
19	1	165	1	2	3	0.2788	0.0509	0	1	0.576	77	82	82
19	1	166	9	2	3	0.2788	0.0509	0	1	0.520	0	0	0
19	1	167	9	1	1	0.2788	0.0509	0	1	0.581	0	0	0
19	1	168	9	2	3	0.2788	0.0509	1	0	0.520	0	82	0
19	1	169	0	2	3	0.2788	0.0509	1	1	0.780	6	82	0
19	1	170	0	2	3	0.2788	0.0509	1	0	0.672	0	82	0
19	1	171	0	2	3	0.2788	0.0509	0	1	0.757	6	0	0
19	1	172	0	2	2	0.2788	0.0509	0	1	0.533	8	0	0
19	1	173	0	1	1	0.2788	0.0509	1	1	0.590	8	0	82
19	1	174	9	1	3	0.2788	0.0509	0	1	0.561	0	0	0
19	1	175	0	2	3	0.2788	0.0509	1	1	0.866	5	82	0
19	1	176	0	2	3	0.2788	0.0509	1	1	0.721	6	82	0
19	1	177	9	2	3	0.2788	0.0509	1	1	0.801	0	0	82
19	1	178	9	2	1	0.2788	0.0509	0	1	0.625	0	82	82
19	1	179	0	2	3	0.2788	0.0509	0	1	0.579	8	0	0
19	1	180	1	2	3	0.2788	0.0509	0	1	1.250	50	82	82
19	1	181	0	1	1	0.2788	0.0509	1	1	0.641	7	0	82
19	1	182	1	2	2	0.2788	0.0509	0	1	0.705	64	82	82
19	1	183	1	1	1	0.2788	0.0509	0	0	0.712	0	82	82
19	1	184	1	1	3	0.2788	0.0509	1	1	0.596	75	82	0
19	1	185	0	1	2	0.2788	0.0509	1	1	0.651	7	0	82
19	1	186	1	1	1	0.2788	0.0509	0	1	0.800	55	82	82
19	1	187	9	2	3	0.2788	0.0509	0	1	0.753	0	82	82
19	1	188	9	1	3	0.2788	0.0509	0	0	0.680	0	82	82
19	1	189	1	2	3	0.2788	0.0509	0	1	0.592	76	82	82
19	1	190	1	1	3	0.2788	0.0509	1	0	0.889	0	82	0
19	1	191	0	2	2	0.2788	0.0509	1	1	0.709	6	82	0
19	1	192	9	1	3	0.2788	0.0509	1	0	0.770	0	82	0
19	1	193	9	1	1	0.2788	0.0509	0	1	0.641	0	0	0
19	1	194	0	2	3	0.2788	0.0509	0	1	0.659	7	0	0
19	1	195	1	2	3	0.2788	0.0509	1	1	1.221	50	0	82
19	1	196	1	2	2	0.2788	0.0509	0	1	1.043	50	82	82
19	1	197	1	2	2	0.2788	0.0509	1	1	0.710	64	0	82
19	1	198	1	2	2	0.2788	0.0509	0	1	0.652	70	82	82
19	1	199	9	2	2	0.2788	0.0509	0	1	0.728	0	82	82
19	1	200	0	1	2	0.2788	0.0509	1	1	1.136	5	0	82
19	1	201	1	2	2	0.2788	0.0509	1	1	0.692	66	0	82
19	1	202	9	2	3	0.2788	0.0509	1	1	0.677	0	82	0
19	1	203	0	1	1	0.2788	0.0509	0	1	0.724	6	0	0
19	1	204	0	2	3	0.2788	0.0509	0	1	1.017	5	0	0
19	1	205	0	2	2	0.2788	0.0509	0	1	0.629	7	0	0
19	1	206	1	1	3	0.2788	0.0509	0	1	0.712	64	82	82
19	1	207	1	2	2	0.2788	0.0509	0	1	0.864	50	82	82
19	1	208	0	1	3	0.2788	0.0509	0	1	0.714	6	0	0
19	1	209	9	1	3	0.2788	0.0509	1	1	0.651	0	82	0
19	1	210	0	1	3	0.2788	0.0509	1	0	0.781	0	0	82
19	1	211	9	2	2	0.2788	0.0509	1	0	1.094	0	0	82
19	1	212	0	1	3	0.2788	0.0509	1	1	0.610	7	0	82
19	1	213	1	2	3	0.2788	0.0509	1	0	0.810	0	0	82
19	1	214	0	2	1	0.2788	0.0509	1	0	0.637	0	82	0
19	1	215	0	2	3	0.2788	0.0509	1	1	0.723	6	82	0
19	1	216	0	1	3	0.2788	0.0509	1	1	1.161	5	0	82
19	1	217	1	1	3	0.2788	0.0509	1	1	0.664	69	82	0
19	1	218	0	2	3	0.2788	0.0509	1	0	0.661	0	82	0
19	1	219	9	1	1	0.2788	0.0509	1	1	0.472	0	0	82
19	1	220	1	2	2	0.2788	0.0509	1	1	0.840	51	0	82
19	1	221	1	2	1	0.2788	0.0509	1	1	0.864	50	0	82
19	1	222	1	1	3	0.2788	0.0509	0	1	0.567	78	82	82
19	1	223	1	2	2	0.2788	0.0509	1	1	0.780	57	0	82
19	1	224	1	2	1	0.2788	0.0509	1	1	0.686	66	0	82
19	1	225	9	2	2	0.2788	0.0509	1	1	0.634	0	0	82
19	1	226	9	1	1	0.2788	0.0509	1	1	0.622	0	82	0
19	1	227	0	1	3	0.2788	0.0509	0	1	0.696	7	0	0
19	1	228	0	1	3	0.2788	0.0509	0	1	0.607	7	0	0
19	1	229	0	2	2	0.2788	0.0509	0	1	0.556	8	0	0
19	1	230	1	2	3	0.2788	0.0509	1	1	0.683	67	0	82
19	1	231	0	1	1	0.2788	0.0509	0	1	0.657	7	0	0
19	1	232	9	1	2	0.2788	0.0509	0	1	0.952	0	82	82
19	1	233	1	2	2	0.2788	0.0509	0	1	0.925	50	82	82
19	1	234	1	2	3	0.2788	0.0509	1	0	0.835	0	0	82
19	1	235	1	1	3	0.2788	0.0509	1	1	0.837	51	82	0
19	1	236	0	1	1	0.2788	0.0509	1	1	0.889	5	0	82
19	1	237	1	1	1	0.2788	0.0509	0	1	0.561	79	82	82
19	1	238	0	2	3	0.2788	0.0509	0	1	0.545	8	0	0
19	1	239	0	1	1	0.2788	0.0509	0	1	0.682	7	0	0
19	1	240	1	2	2	0.2788	0.0509	1	1	0.625	72	0	82
19	1	241	0	2	3	0.2788	0.0509	0	1	0.558	8	0	0
19	1	242	0	2	3	0.2788	0.0509	0	1	0.561	8	0	0
19	1	243	9	1	3	0.2788	0.0509	1	0	0.782	0	0	82
19	1	244	0	2	2	0.2788	0.0509	0	1	0.632	7	0	0
19	1	245	1	1	1	0.2788	0.0509	0	1	0.644	71	82	82
19	1	246	1	2	2	0.2788	0.0509	1	0	0.711	0	0	82
19	1	247	9	1	3	0.2788	0.0509	1	1	0.612	0	82	0
19	1	248	0	2	3	0.2788	0.0509	0	1	0.590	8	0	0
19	1	249	9	2	2	0.2788	0.0509	1	1	0.756	0	82	0
19	1	250	1	1	3	0.2788	0.0509	0	1	0.699	65	82	82
19	1	251	0	1	1	0.2788	0.0509	1	1	0.586	8	0	82
19	1	252	1	2	1	0.2788	0.0509	0	0	0.988	0	82	82
19	1	253	0	1	2	0.2788	0.0509	0	1	0.640	7	0	0
19	1	254	0	2	3	0.2788	0.0509	1	1	0.685	7	82	0
19	1	255	1	2	2	0.2788	0.0509	1	1	0.640	71	0	82
19	1	256	0	2	2	0.2788	0.0509	0	1	0.573	8	0	0
19	1	257	9	1	3	0.2788	0.0509	1	1	0.707	0	0	82
19	1	258	1	2	3	0.2788	0.0509	1	1	0.780	57	0	82
19	1	259	1	1	1	0.2788	0.0509	1	1	0.540	81	82	0
19	1	260	0	1	3	0.2788	0.0509	0	1	0.769	6	0	0
19	1	261	0	2	1	0.2788	0.0509	0	0	1.016	0	0	0
19	1	262	0	1	3	0.2788	0.0509	0	1	0.520	8	0	0
19	1	263	1	1	1	0.2788	0.0509	0	1	0.471	88	82	82
19	1	264	0	1	3	0.2788	0.0509	1	1	0.542	8	0	82
19	1	265	1	2	2	0.2788	0.0509	1	1	0.677	67	0	82
19	1	266	0	1	2	0.2788	0.0509	0	1	0.767	6	0	0
19	1	267	9	1	1	0.2788	0.0509	0	1	0.551	0	82	82
19	1	268	1	1	3	0.2788	0.0509	1	1	0.649	70	82	0
19	1	269	0	1	1	0.2788	0.0509	1	1	0.536	8	0	82
19	1	270	9	1	1	0.2788	0.0509	1	1	1.117	0	0	82
19	1	271	1	1	1	0.2788	0.0509	0	1	0.554	80	82	82
19	1	272	0	2	3	0.2788	0.0509	1	1	0.707	6	82	0
19	1	273	9	1	3	0.2788	0.0509	0	1	0.835	0	82	82
19	1	274	9	2	2	0.2788	0.0509	1	1	0.716	0	82	0
19	1	275	0	1	1	0.2788	0.0509	0	1	0.543	8	0	0
19	1	276	9	2	2	0.2788	0.0509	0	1	0.580	0	0	0
19	1	277	0	1	3	0.2788	0.0509	1	1	0.637	7	0	82
19	1	278	1	1	2	0.2788	0.0509	0	0	1.237	0	82	82
19	1	279	1	2	3	0.2788	0.0509	1	1	0.766	58	0	82
19	1	280	1	1	1	0.2788	0.0509	0	1	0.641	71	82	82
19	1	281	1	2	2	0.2788	0.0509	0	1	0.685	67	82	82
19	1	282	9	2	1	0.2788	0.0509	0	1	0.568	0	0	0
19	1	283	9	1	1	0.2788	0.0509	1	1	0.629	0	82	0
19	1	284	0	1	3	0.2788	0.0509	0	1	0.702	6	0	0
19	1	285	0	2	1	0.2788	0.0509	1	1	0.777	6	82	0
19	1	286	0	1	1	0.2788	0.0509	1	0	0.771	0	0	82
19	1	287	9	2	2	0.2788	0.0509	1	1	0.729	0	82	0
19	1	288	0	1	3	0.2788	0.0509	0	1	0.740	6	0	0
19	1	289	1	1	2	0.2788	0.0509	1	1	0.597	75	82	0
19	1	290	1	2	2	0.2788	0.0509	1	1	0.835	52	0	82
19	1	291	1	2	2	0.2788	0.0509	1	1	0.686	66	0	82
19	1	292	1	1	1	0.2788	0.0509	0	0	0.592	0	82	82
19	1	293	0	1	1	0.2788	0.0509	1	1	0.694	7	0	82
19	1	294	1	2	3	0.2788	0.0509	0	1	0.714	64	82	82
19	1	295	0	1	3	0.2788	0.0509	0	1	0.853	5	0	0
19	1	296	1	2	2	0.2788	0.0509	1	1	0.639	71	0	82
19	1	297	9	1	1	0.2788	0.0509	1	1	0.818	0	0	82
19	1	298	1	2	3	0.2788	0.0509	0	1	0.571	78	82	82
19	1	299	0	1	3	0.2788	0.0509	1	1	0.707	6	0	82
19	1	300	1	1	1	0.2788	0.0509	1	1	0.624	73	82	0
19	1	301	1	1	1	0.2788	0.0509	0	1	0.570	78	82	82
19	1	302	0	1	1	0.2788	0.0509	1	1	0.608	7	0	82
19	1	303	0	2	2	0.2788	0.0509	1	1	0.765	6	82	0
19	1	304	1	2	3	0.2788	0.0509	0	1	0.648	70	82	82
19	1	305	0	1	3	0.2788	0.0509	0	1	0.774	6	0	0
19	1	306	0	2	2	0.2788	0.0509	0	1	0.851	5	0	0
19	1	307	1	2	2	0.2788	0.0509	0	1	0.726	62	82	82
19	1	308	1	1	1	0.2788	0.0509	0	1	0.864	50	82	82
19	1	309	1	1	3	0.2788	0.0509	1	1	0.624	73	82	0
19	1	310	0	2	2	0.2788	0.0509	0	1	0.568	8	0	0
19	1	311	9	2	3	0.2788	0.0509	0	0	1.011	0	0	0
19	1	312	1	2	1	0.2788	0.0509	1	0	0.865	0	0	82
19	1	313	0	2	3	0.2788	0.0509	0	1	0.571	8	0	0
19	1	314	1	2	1	0.2788	0.0509	0	1	0.515	83	82	82
19	1	315	1	2	1	0.2788	0.0509	1	1	0.607	74	0	82
19	1	316	0	2	2	0.2788	0.0509	1	1	0.683	7	82	0
19	1	317	0	2	2	0.2788	0.0509	0	0	0.827	0	0	0
19	1	318	0	2	2	0.2788	0.0509	0	1	0.533	8	0	0
19	1	319	0	1	1	0.2788	0.0509	1	1	0.950	5	0	82
19	1	320	9	1	1	0.2788	0.0509	1	1	0.587	0	0	82
19	1	321	0	1	3	0.2788	0.0509	0	1	0.608	7	0	0
19	1	322	9	2	3	0.2788	0.0509	0	0	0.735	0	0	0
19	1	323	0	1	3	0.2788	0.0509	1	1	0.540	8	0	82
19	1	324	1	1	1	0.2788	0.0509	0	1	0.835	51	82	82
19	1	325	9	1	3	0.2788	0.0509	0	1	0.561	0	0	0
19	1	326	1	2	2	0.2788	0.0509	1	0	0.864	0	0	82
19	1	327	0	2	3	0.2788	0.0509	0	1	0.751	6	0	0
19	1	328	9	2	3	0.2788	0.0509	1	1	0.791	0	0	82
19	1	329	1	1	3	0.2788	0.0509	0	1	0.629	72	82	82
19	1	330	1	2	3	0.2788	0.0509	0	1	0.754	60	82	82
19	1	331	1	1	3	0.2788	0.0509	1	1	0.732	62	82	0
19	1	332	1	2	3	0.2788	0.0509	1	1	0.740	61	0	82
19	1	333	1	2	2	0.2788	0.0509	1	1	0.779	57	0	82
19	1	334	9	2	1	0.2788	0.0509	1	1	0.715	0	0	82
19	1	335	9	2	2	0.2788	0.0509	1	1	0.676	0	0	82
19	1	336	0	2	2	0.2788	0.0509	1	1	0.644	7	82	0
19	1	337	1	1	1	0.2788	0.0509	1	1	0.709	64	82	0
19	1	338	9	2	3	0.2788	0.0509	0	1	0.580	0	82	82
19	1	339	9	1	2	0.2788	0.0509	1	1	0.675	0	82	0
19	1	340	9	2	3	0.2788	0.0509	1	1	0.694	0	82	0
19	1	341	0	2	3	0.2788	0.0509	1	1	0.708	6	82	0
19	1	342	0	1	3	0.2788	0.0509	1	1	0.697	7	0	82
19	1	343	9	2	2	0.2788	0.0509	0	1	0.535	0	0	0
19	1	344	1	2	3	0.2788	0.0509	0	1	0.644	71	82	82
19	1	345	9	2	2	0.2788	0.0509	1	1	0.733	0	82	0
19	1	346	0	1	3	0.2788	0.0509	1	1	0.630	7	0	82
19	1	347	9	1	1	0.2788	0.0509	0	1	0.541	0	82	82
19	1	348	1	2	3	0.2788	0.0509	0	1	0.570	78	82	82
19	1	349	9	1	1	0.2788	0.0509	0	1	0.937	0	0	0
19	1	350	0	2	2	0.2788	0.0509	1	0	0.705	0	82	0
19	1	351	0	1	3	0.2788	0.0509	1	1	0.939	5	0	82
19	1	352	1	1	1	0.2788	0.0509	1	1	0.582	77	82	0
19	1	353	0	2	3	0.2788	0.0509	1	1	0.885	5	82	0
19	1	354	1	1	1	0.2788	0.0509	1	1	0.619	73	82	0
19	1	355	0	2	3	0.2788	0.0509	1	1	0.682	7	82	0
19	1	356	9	2	2	0.2788	0.0509	0	1	0.619	0	82	82
19	1	357	1	2	1	0.2788	0.0509	0	1	0.741	61	82	82
19	1	358	0	2	3	0.2788	0.0509	1	0	1.040	0	82	0
19	1	359	9	2	1	0.2788	0.0509	1	1	0.721	0	82	0
19	1	360	0	1	1	0.2788	0.0509	0	1	0.693	7	0	0
19	1	361	1	2	2	0.2788	0.0509	1	1	0.624	73	0	82
19	1	362	0	2	2	0.2788	0.0509	1	1	0.675	7	82	0
19	1	363	9	1	3	0.2788	0.0509	0	1	0.627	0	82	82
19	1	364	1	2	3	0.2788	0.0509	0	1	0.869	50	82	82
19	1	365	0	1	2	0.2788	0.0509	1	1	0.783	6	0	82
19	1	366	0	1	3	0.2788	0.0509	0	1	0.592	8	0	0
19	1	367	1	2	2	0.2788	0.0509	1	1	0.792	56	0	82
19	1	368	0	1	3	0.2788	0.0509	0	1	0.731	6	0	0
19	1	369	1	2	3	0.2788	0.0509	0	1	0.588	76	82	82
19	1	370	0	2	2	0.2788	0.0509	1	1	0.640	7	82	0
19	1	371	0	2	2	0.2788	0.0509	1	1	0.753	6	82	0
19	1	372	0	2	2	0.2788	0.0509	1	1	0.532	8	82	0
19	1	373	9	2	3	0.2788	0.0509	1	1	0.675	0	82	0
19	1	374	1	2	3	0.2788	0.0509	1	1	0.587	76	0	82
19	1	375	9	1	3	0.2788	0.0509	1	0	0.805	0	82	0
19	1	376	9	2	3	0.2788	0.0509	1	0	0.687	0	0	82
19	1	377	9	1	3	0.2788	0.0509	0	1	0.955	0	0	0
19	1	378	0	2	3	0.2788	0.0509	0	1	0.956	5	0	0
19	1	379	0	2	1	0.2788	0.0509	0	1	0.983	5	0	0
19	1	380	9	1	2	0.2788	0.0509	0	1	0.736	0	0	0
19	1	381	1	2	3	0.2788	0.0509	1	1	0.675	67	0	82
19	1	382	1	1	1	0.2788	0.0509	1	1	0.489	86	82	0
19	1	383	9	2	3	0.2788	0.0509	1	0	0.827	0	0	82
19	1	384	1	1	1	0.2788	0.0509	1	1	0.734	62	82	0
19	1	385	0	2	2	0.2788	0.0509	1	1	0.756	6	82	0
19	1	386	0	1	1	0.2788	0.0509	1	1	0.700	7	0	82
19	1	387	1	2	2	0.2788	0.0509	0	1	0.526	82	82	82
19	1	388	9	2	3	0.2788	0.0509	0	1	0.768	0	0	0
19	1	389	1	2	3	0.2788	0.0509	1	0	0.476	0	0	82
19	1	390	0	2	3	0.2788	0.0509	1	1	0.600	7	82	0
19	1	391	0	1	3	0.2788	0.0509	1	1	0.548	8	0	82
19	1	392	1	1	3	0.2788	0.0509	1	1	0.860	50	82	0
19	1	393	1	2	2	0.2788	0.0509	1	1	0.662	69	0	82
19	1	394	9	2	3	0.2788	0.0509	1	0	0.834	0	82	0
19	1	395	0	1	3	0.2788	0.0509	1	1	0.868	5	0	82
19	1	396	9	2	2	0.2788	0.0509	0	1	0.590	0	0	0
19	1	397	1	2	3	0.2788	0.0509	0	1	0.780	57	82	82
19	1	398	0	1	3	0.2788	0.0509	1	1	0.562	8	0	82
19	1	399	1	1	1	0.2788	0.0509	0	1	0.637	71	82	82
19	1	400	0	2	3	0.2788	0.0509	0	1	0.775	6	0	0
19	1	401	1	2	3	0.2788	0.0509	1	1	0.797	55	0	82
19	1	402	9	1	3	0.2788	0.0509	1	1	0.649	0	0	82
19	1	403	0	1	1	0.2788	0.0509	0	1	0.761	6	0	0
19	1	404	1	1	1	0.2788	0.0509	1	1	0.624	73	82	0
19	1	405	0	2	3	0.2788	0.0509	1	0	0.659	0	82	0
19	1	406	0	2	3	0.2788	0.0509	1	0	0.605	0	82	0
19	1	407	1	2	3	0.2788	0.0509	1	1	0.616	73	0	82
19	1	408	1	1	3	0.2788	0.0509	0	1	0.623	73	82	82
19	1	409	0	1	3	0.2788	0.0509	0	1	0.655	7	0	0
19	1	410	9	1	3	0.2788	0.0509	0	0	0.433	0	82	82
19	1	411	1	1	1	0.2788	0.0509	0	1	0.584	77	82	82
19	1	412	9	2	2	0.2788	0.0509	0	1	0.882	0	82	82
19	1	413	1	1	3	0.2788	0.0509	0	1	0.699	65	82	82
19	1	414	0	1	3	0.2788	0.0509	1	1	0.730	6	0	82
19	1	415	1	1	1	0.2788	0.0509	0	1	0.556	79	82	82
19	1	416	0	1	2	0.2788	0.0509	1	1	0.760	6	0	82
19	1	417	1	2	2	0.2788	0.0509	1	0	0.800	0	0	82
19	1	418	1	1	3	0.2788	0.0509	1	1	0.554	80	82	0
19	1	419	1	1	1	0.2788	0.0509	0	1	0.725	62	82	82
19	1	420	1	2	2	0.2788	0.0509	1	0	1.008	0	0	82
19	1	421	0	2	3	0.2788	0.0509	0	1	0.512	8	0	0
19	1	422	1	1	1	0.2788	0.0509	1	1	0.646	70	82	0
19	1	423	9	1	1	0.2788	0.0509	0	1	0.604	0	0	0
19	1	424	1	2	2	0.2788	0.0509	1	0	0.680	0	0	82
19	1	425	1	1	1	0.2788	0.0509	1	1	0.741	61	82	0
19	1	426	9	2	2	0.2788	0.0509	0	1	0.591	0	82	82
19	1	427	0	2	3	0.2788	0.0509	1	0	0.517	0	82	0
19	1	428	0	2	2	0.2788	0.0509	1	1	0.689	7	82	0
19	1	429	9	2	3	0.2788	0.0509	1	1	0.605	0	82	0
19	1	430	0	1	1	0.2788	0.0509	0	1	0.650	7	0	0
19	1	431	9	1	3	0.2788	0.0509	1	1	0.644	0	0	82
19	1	432	9	1	3	0.2788	0.0509	1	1	0.444	0	82	0
19	1	433	9	1	3	0.2788	0.0509	0	1	0.611	0	0	0
19	1	434	9	2	2	0.2788	0.0509	1	1	0.971	0	0	82
19	1	435	1	2	3	0.2788	0.0509	1	1	0.659	69	0	82
19	1	436	1	2	1	0.2788	0.0509	0	1	0.635	71	82	82
19	1	437	0	1	3	0.2788	0.0509	1	1	0.559	8	0	82
19	1	438	1	1	3	0.2788	0.0509	1	1	0.681	67	82	0
19	1	439	0	1	3	0.2788	0.0509	1	1	0.657	7	0	82
19	1	440	1	1	3	0.2788	0.0509	0	1	0.584	77	82	82
19	1	441	9	1	1	0.2788	0.0509	0	1	0.533	0	0	0
19	1	442	0	1	3	0.2788	0.0509	1	1	0.542	8	0	82
19	1	443	0	1	1	0.2788	0.0509	0	1	0.694	7	0	0
19	1	444	1	2	2	0.2788	0.0509	0	1	0.632	72	82	82
19	1	445	0	2	3	0.2788	0.0509	0	1	0.766	6	0	0
19	1	446	0	1	2	0.2788	0.0509	0	0	0.572	0	0	0
19	1	447	1	2	3	0.2788	0.0509	0	1	0.572	78	82	82
19	1	448	1	2	2	0.2788	0.0509	0	1	0.751	60	82	82
19	1	449	1	2	3	0.2788	0.0509	1	1	0.686	66	0	82
19	1	450	0	1	1	0.2788	0.0509	1	1	0.519	8	0	82
19	1	451	9	1	1	0.2788	0.0509	1	1	0.614	0	82	0
19	1	452	1	1	3	0.2788	0.0509	1	1	0.634	72	82	0
19	1	453	0	1	1	0.2788	0.0509	1	1	1.050	5	0	82
19	1	454	9	2	3	0.2788	0.0509	0	1	0.577	0	82	82
19	1	455	0	2	2	0.2788	0.0509	1	0	0.583	0	82	0
19	1	456	1	2	1	0.2788	0.0509	1	0	0.515	0	0	82
19	1	457	0	1	1	0.2788	0.0509	1	1	0.628	7	0	82
19	1	458	0	2	3	0.2788	0.0509	1	0	0.688	0	82	0
19	1	459	0	1	3	0.2788	0.0509	0	1	0.570	8	0	0
19	1	460	0	1	2	0.2788	0.0509	0	1	0.701	6	0	0
19	1	461	9	1	1	0.2788	0.0509	0	1	0.561	0	0	0
19	1	462	1	2	2	0.2788	0.0509	0	1	0.484	87	82	82
19	1	463	9	1	1	0.2788	0.0509	1	1	0.499	0	0	82
19	1	464	0	2	2	0.2788	0.0509	1	0	0.485	0	82	0
19	1	465	1	1	3	0.2788	0.0509	0	0	0.454	0	82	82
19	1	466	9	1	3	0.2788	0.0509	0	0	0.556	0	0	0
19	1	467	0	2	2	0.2788	0.0509	0	1	0.476	9	0	0
19	1	468	0	2	2	0.2788	0.0509	0	1	0.646	7	0	0
19	1	469	1	1	3	0.2788	0.0509	0	1	0.603	75	82	82
19	1	470	9	1	1	0.2788	0.0509	1	1	0.825	0	0	82
19	1	471	1	2	3	0.2788	0.0509	1	0	0.633	0	0	82
19	1	472	1	1	1	0.2788	0.0509	0	1	0.481	87	82	82
19	1	473	0	2	3	0.2788	0.0509	0	1	0.732	6	0	0
19	1	474	0	1	1	0.2788	0.0509	1	1	0.698	7	0	82
19	1	475	1	1	3	0.2788	0.0509	0	0	0.614	0	82	82
19	1	476	9	1	1	0.2788	0.0509	0	1	0.521	0	82	82
19	1	477	0	2	2	0.2788	0.0509	0	0	0.713	0	0	0
19	1	478	1	2	1	0.2788	0.0509	0	1	0.700	65	82	82
19	1	479	1	2	1	0.2788	0.0509	1	0	0.846	0	0	82
19	1	480	0	2	2	0.2788	0.0509	1	0	0.529	0	82	0
19	1	481	1	1	3	0.2788	0.0509	0	1	0.860	50	82	82
19	1	482	1	2	3	0.2788	0.0509	1	1	0.779	57	0	82
19	1	483	9	2	3	0.2788	0.0509	0	1	0.604	0	0	0
19	1	484	1	2	2	0.2788	0.0509	1	1	0.985	50	0	82
19	1	485	1	1	1	0.2788	0.0509	0	1	0.682	67	82	82
19	1	486	9	2	3	0.2788	0.0509	1	1	1.010	0	0	82
19	1	487	1	1	1	0.2788	0.0509	1	1	0.762	59	82	0
19	1	488	0	1	1	0.2788	0.0509	0	1	0.874	5	0	0
19	1	489	9	1	2	0.2788	0.0509	0	0	0.678	0	82	82
19	1	490	1	1	3	0.2788	0.0509	1	1	0.533	82	82	0
19	1	491	9	2	2	0.2788	0.0509	1	1	0.856	0	82	0
19	1	492	9	1	3	0.2788	0.0509	1	1	0.547	0	82	0
19	1	493	0	2	1	0.2788	0.0509	1	0	0.636	0	82	0
19	1	494	1	1	3	0.2788	0.0509	1	1	0.613	74	82	0
19	1	495	1	2	3	0.2788	0.0509	0	1	0.564	79	82	82
19	1	496	1	2	2	0.2788	0.0509	1	1	0.671	68	0	82
19	1	497	0	2	3	0.2788	0.0509	0	1	0.643	7	0	0
19	1	498	0	1	2	0.2788	0.0509	0	1	0.595	8	0	0
19	1	499	0	1	2	0.2788	0.0509	1	1	0.714	6	0	82
19	1	500	0	2	3	0.2788	0.0509	1	0	0.752	0	82	0
19	1	501	9	2	2	0.2788	0.0509	1	1	0.695	0	82	0
19	1	502	0	2	3	0.2788	0.0509	0	1	0.671	7	0	0
19	1	503	1	1	1	0.2788	0.0509	1	1	0.605	75	82	0
19	1	504	9	1	1	0.2788	0.0509	1	1	0.668	0	0	82
19	1	505	0	1	2	0.2788	0.0509	1	1	0.609	7	0	82
19	1	506	0	2	2	0.2788	0.0509	0	1	0.603	7	0	0
19	1	507	9	1	3	0.2788	0.0509	0	1	0.634	0	82	82
19	1	508	9	1	3	0.2788	0.0509	1	1	0.636	0	0	82
19	1	509	0	1	2	0.2788	0.0509	0	1	0.686	7	0	0
19	1	510	1	1	1	0.2788	0.0509	0	1	0.991	50	82	82
19	1	511	9	1	1	0.2788	0.0509	0	1	0.653	0	82	82
19	1	512	0	2	2	0.2788	0.0509	0	0	0.877	0	0	0
19	1	513	0	1	1	0.2788	0.0509	0	1	0.683	7	0	0
19	1	514	0	2	3	0.2788	0.0509	1	1	0.947	5	82	0
19	1	515	1	2	3	0.2788	0.0509	0	1	0.601	75	82	82
19	1	516	0	1	3	0.2788	0.0509	1	1	0.719	6	0	82
19	1	517	1	2	2	0.2788	0.0509	1	1	0.586	76	0	82
19	1	518	1	1	3	0.2788	0.0509	1	1	0.683	67	82	0
19	1	519	1	1	3	0.2788	0.0509	1	1	0.650	70	82	0
19	1	520	1	2	3	0.2788	0.0509	0	1	0.574	78	82	82
19	1	521	1	2	2	0.2788	0.0509	1	1	0.629	72	0	82
19	1	522	9	2	2	0.2788	0.0509	1	1	0.696	0	82	0
19	1	523	9	2	3	0.2788	0.0509	1	1	0.599	0	82	0
19	1	524	1	1	3	0.2788	0.0509	1	1	0.588	76	82	0
19	1	525	9	2	3	0.2788	0.0509	0	1	0.564	0	82	82
19	1	526	1	2	3	0.2788	0.0509	0	1	0.605	75	82	82
19	1	527	1	2	3	0.2788	0.0509	1	1	0.689	66	0	82
19	1	528	0	1	1	0.2788	0.0509	0	1	0.847	5	0	0
19	1	529	0	2	3	0.2788	0.0509	1	1	0.744	6	82	0
19	1	530	0	2	3	0.2788	0.0509	1	1	0.822	5	82	0
19	1	531	1	2	2	0.2788	0.0509	1	1	0.577	77	0	82
19	1	532	0	2	2	0.2788	0.0509	0	1	0.746	6	0	0
19	1	533	0	1	3	0.2788	0.0509	0	1	0.780	6	0	0
19	1	534	1	2	1	0.2788	0.0509	0	1	0.794	56	82	82
19	1	535	9	1	3	0.2788	0.0509	1	1	0.617	0	0	82
19	1	536	0	2	3	0.2788	0.0509	0	1	0.687	7	0	0
19	1	537	0	2	3	0.2788	0.0509	0	1	0.588	8	0	0
19	1	538	1	1	1	0.2788	0.0509	1	1	0.663	69	82	0
19	1	539	0	1	3	0.2788	0.0509	0	1	0.705	6	0	0
19	1	540	9	2	1	0.2788	0.0509	0	0	0.833	0	82	82
19	1	541	9	1	3	0.2788	0.0509	0	1	0.553	0	82	82
19	1	542	0	1	3	0.2788	0.0509	1	1	0.553	8	0	82
19	1	543	0	2	1	0.2788	0.0509	0	1	0.533	8	0	0
19	1	544	9	2	2	0.2788	0.0509	1	1	0.638	0	0	82
19	1	545	0	2	1	0.2788	0.0509	1	1	0.615	7	82	0
19	1	546	1	1	3	0.2788	0.0509	0	1	0.550	80	82	82
19	1	547	0	1	1	0.2788	0.0509	0	1	0.543	8	0	0
19	1	548	1	1	1	0.2788	0.0509	0	1	0.656	69	82	82
19	1	549	1	1	1	0.2788	0.0509	1	1	0.666	68	82	0
19	1	550	1	1	1	0.2788	0.0509	0	1	0.543	81	82	82
19	1	551	1	1	2	0.2788	0.0509	0	1	0.504	85	82	82
19	1	552	0	2	2	0.2788	0.0509	0	1	0.527	8	0	0
19	1	553	1	2	3	0.2788	0.0509	0	1	0.531	82	82	82
19	1	554	9	2	3	0.2788	0.0509	0	1	0.507	0	82	82
19	1	555	1	2	2	0.2788	0.0509	0	1	0.544	81	82	82
19	1	556	0	1	3	0.2788	0.0509	1	0	0.856	0	0	82
19	1	557	0	2	3	0.2788	0.0509	1	1	0.790	6	82	0
19	1	558	9	2	3	0.2788	0.0509	0	1	0.556	0	0	0
19	1	559	1	1	3	0.2788	0.0509	0	1	0.598	75	82	82
19	1	560	9	1	1	0.2788	0.0509	0	1	0.726	0	0	0
19	1	561	0	1	1	0.2788	0.0509	1	1	0.874	5	0	82
19	1	562	0	2	2	0.2788	0.0509	1	0	0.815	0	82	0
19	1	563	0	2	3	0.2788	0.0509	0	1	0.554	8	0	0
19	1	564	9	1	1	0.2788	0.0509	1	1	0.592	0	82	0
19	1	565	0	2	2	0.2788	0.0509	0	1	0.507	8	0	0
19	1	566	1	1	3	0.2788	0.0509	1	1	0.565	78	82	0
19	1	567	9	1	3	0.2788	0.0509	1	1	0.775	0	82	0
19	1	568	0	2	2	0.2788	0.0509	0	1	0.607	7	0	0
19	1	569	0	2	2	0.2788	0.0509	1	0	0.518	0	82	0
19	1	570	1	1	3	0.2788	0.0509	0	1	0.522	83	82	82
19	1	571	9	2	2	0.2788	0.0509	0	1	0.612	0	0	0
19	1	572	1	1	3	0.2788	0.0509	0	1	0.490	86	82	82
19	1	573	1	1	1	0.2788	0.0509	1	1	0.776	57	82	0
19	1	574	1	2	3	0.2788	0.0509	1	1	0.706	64	0	82
19	1	575	1	2	3	0.2788	0.0509	1	1	0.732	62	0	82
19	1	576	1	1	2	0.2788	0.0509	0	0	5.663	0	82	82
19	1	577	0	1	1	0.2788	0.0509	1	1	0.722	6	0	82
19	1	578	1	2	2	0.2788	0.0509	1	1	0.637	71	0	82
19	1	579	1	1	2	0.2788	0.0509	1	1	0.513	84	82	0
19	1	580	1	2	2	0.2788	0.0509	1	1	0.741	61	0	82
19	1	581	1	2	2	0.2788	0.0509	1	1	0.563	79	0	82
19	1	582	0	1	3	0.2788	0.0509	0	1	0.649	7	0	0
19	1	583	0	1	3	0.2788	0.0509	0	0	0.673	0	0	0
19	1	584	0	1	3	0.2788	0.0509	1	0	0.662	0	0	82
19	1	585	0	1	3	0.2788	0.0509	1	1	0.575	8	0	82
19	1	586	1	2	1	0.2788	0.0509	0	1	0.557	79	82	82
19	1	587	1	1	3	0.2788	0.0509	0	1	0.489	86	82	82
19	1	588	1	1	1	0.2788	0.0509	1	1	0.372	98	82	0
19	1	589	1	1	1	0.2788	0.0509	1	1	0.495	85	82	0
19	1	590	1	1	1	0.2788	0.0509	0	0	0.390	0	82	82
19	1	591	0	2	3	0.2788	0.0509	0	1	0.511	8	0	0
19	1	592	1	2	3	0.2788	0.0509	1	1	0.523	83	0	82
19	1	593	1	2	2	0.2788	0.0509	0	1	0.554	80	82	82
19	1	594	1	1	3	0.2788	0.0509	1	1	0.508	84	82	0
19	1	595	0	1	1	0.2788	0.0509	1	0	0.377	0	0	82
19	1	596	0	2	2	0.2788	0.0509	0	1	0.572	8	0	0
19	1	597	9	1	1	0.2788	0.0509	1	0	0.647	0	0	82
19	1	598	0	1	3	0.2788	0.0509	0	1	0.731	6	0	0
19	1	599	1	2	3	0.2788	0.0509	0	1	0.647	70	82	82
19	1	600	0	1	1	0.2788	0.0509	1	0	0.773	0	0	82
19	1	601	0	1	1	0.2788	0.0509	1	1	0.639	7	0	82
19	1	602	0	2	2	0.2788	0.0509	1	0	0.723	0	82	0
19	1	603	9	2	2	0.2788	0.0509	1	1	0.479	0	82	0
19	1	604	1	1	1	0.2788	0.0509	1	1	0.575	78	82	0
19	1	605	1	2	1	0.2788	0.0509	1	0	0.810	0	0	82
19	1	606	1	2	3	0.2788	0.0509	0	1	0.626	72	82	82
19	1	607	0	2	2	0.2788	0.0509	1	0	0.671	0	82	0
19	1	608	0	2	1	0.2788	0.0509	0	1	0.582	8	0	0
19	1	609	0	1	3	0.2788	0.0509	0	1	0.726	6	0	0
19	1	610	1	1	3	0.2788	0.0509	0	1	0.646	70	82	82
19	1	611	0	2	2	0.2788	0.0509	0	1	0.868	5	0	0
19	1	612	0	1	3	0.2788	0.0509	1	1	0.633	7	0	82
19	1	613	1	1	3	0.2788	0.0509	0	1	0.440	91	82	82
19	1	614	0	1	1	0.2788	0.0509	0	1	0.518	8	0	0
19	1	615	0	1	3	0.2788	0.0509	1	0	0.534	0	0	82
19	1	616	1	2	3	0.2788	0.0509	1	0	0.611	0	0	82
19	1	617	1	2	3	0.2788	0.0509	0	1	0.508	84	82	82
19	1	618	0	2	3	0.2788	0.0509	1	0	0.748	0	82	0
19	1	619	9	2	2	0.2788	0.0509	1	1	0.400	0	0	82
19	1	620	9	1	1	0.2788	0.0509	1	1	0.440	0	82	0
19	1	621	0	2	1	0.2788	0.0509	1	0	0.634	0	82	0
19	1	622	0	1	1	0.2788	0.0509	0	1	0.488	9	0	0
19	1	623	1	1	3	0.2788	0.0509	1	1	0.434	92	82	0
19	1	624	9	2	3	0.2788	0.0509	1	1	0.655	0	0	82
19	1	625	0	2	3	0.2788	0.0509	1	1	0.635	7	82	0
19	1	626	0	2	2	0.2788	0.0509	0	1	0.638	7	0	0
19	1	627	1	1	1	0.2788	0.0509	0	1	0.456	89	82	82
19	1	628	0	2	2	0.2788	0.0509	1	0	0.589	0	82	0
19	1	629	9	1	1	0.2788	0.0509	0	1	0.481	0	82	82
19	1	630	1	1	2	0.2788	0.0509	1	1	0.392	96	82	0
19	1	631	0	1	1	0.2788	0.0509	0	1	0.645	7	0	0
19	1	632	0	1	1	0.2788	0.0509	0	0	0.939	0	0	0
19	1	633	1	1	3	0.2788	0.0509	1	0	0.838	0	82	0
19	1	634	0	2	2	0.2788	0.0509	0	1	0.503	8	0	0
19	1	635	1	1	1	0.2788	0.0509	1	1	0.481	87	82	0
19	1	636	1	1	1	0.2788	0.0509	0	0	0.538	0	82	82
19	1	637	1	1	2	0.2788	0.0509	1	1	0.565	79	82	0
19	1	638	1	2	2	0.2788	0.0509	0	1	0.502	85	82	82
19	1	639	0	2	2	0.2788	0.0509	1	0	0.676	0	82	0
19	1	640	9	2	2	0.2788	0.0509	0	1	0.538	0	82	82
19	1	641	1	2	1	0.2788	0.0509	1	1	0.625	72	0	82
19	1	642	9	2	2	0.2788	0.0509	1	1	0.485	0	0	82
19	1	643	0	1	1	0.2788	0.0509	1	0	0.695	0	0	82
19	1	644	0	2	2	0.2788	0.0509	0	1	0.502	8	0	0
19	1	645	0	2	3	0.2788	0.0509	0	1	0.494	9	0	0
19	1	646	1	1	1	0.2788	0.0509	0	0	0.690	0	82	82
19	1	647	1	2	2	0.2788	0.0509	0	1	0.475	87	82	82
19	1	648	9	2	3	0.2788	0.0509	0	1	0.571	0	0	0
19	1	649	0	2	2	0.2788	0.0509	0	1	0.488	9	0	0
19	1	650	1	2	2	0.2788	0.0509	0	1	0.467	88	82	82
19	1	651	1	2	2	0.2788	0.0509	0	1	0.485	87	82	82
19	1	652	0	1	3	0.2788	0.0509	1	0	0.673	0	0	82
19	1	653	0	2	2	0.2788	0.0509	1	1	0.699	7	82	0
19	1	654	9	2	1	0.2788	0.0509	1	0	0.624	0	0	82
19	1	655	0	2	2	0.2788	0.0509	0	1	0.761	6	0	0
19	1	656	0	2	1	0.2788	0.0509	1	1	0.698	7	82	0
19	1	657	9	2	2	0.2788	0.0509	0	1	0.587	0	0	0
19	1	658	0	1	3	0.2788	0.0509	1	1	0.648	7	0	82
19	1	659	1	1	1	0.2788	0.0509	1	1	0.448	90	82	0
19	1	660	0	1	1	0.2788	0.0509	0	1	0.878	5	0	0
19	1	661	0	1	1	0.2788	0.0509	0	1	2.184	5	0	0
19	1	662	1	1	2	0.2788	0.0509	0	0	0.518	0	82	82
19	1	663	0	2	3	0.2788	0.0509	1	0	0.743	0	82	0
19	1	664	1	2	3	0.2788	0.0509	0	1	0.523	83	82	82
19	1	665	9	1	2	0.2788	0.0509	1	1	0.631	0	0	82
19	1	666	1	1	2	0.2788	0.0509	0	1	0.611	74	82	82
19	1	667	9	1	1	0.2788	0.0509	0	1	0.632	0	82	82
19	1	668	9	2	2	0.2788	0.0509	0	1	0.482	0	82	82
19	1	669	1	1	3	0.2788	0.0509	1	1	0.447	90	82	0
19	1	670	0	1	1	0.2788	0.0509	0	1	0.533	8	0	0
19	1	671	1	1	2	0.2788	0.0509	1	1	0.513	84	82	0
19	1	672	9	2	1	0.2788	0.0509	1	1	0.729	0	82	0
19	1	673	9	1	2	0.2788	0.0509	1	1	0.510	0	82	0
19	1	674	1	2	2	0.2788	0.0509	1	1	0.566	78	0	82
19	1	675	0	2	3	0.2788	0.0509	1	0	0.758	0	82	0
19	1	676	1	1	1	0.2788	0.0509	1	1	0.375	97	82	0
19	1	677	0	1	3	0.2788	0.0509	0	1	0.467	9	0	0
19	1	678	0	1	1	0.2788	0.0509	1	1	0.727	6	0	82
19	1	679	0	1	3	0.2788	0.0509	0	1	0.537	8	0	0
19	1	680	0	1	1	0.2788	0.0509	0	1	0.339	10	0	0
19	1	681	1	1	3	0.2788	0.0509	1	1	0.476	87	82	0
19	1	682	0	1	1	0.2788	0.0509	0	1	0.442	9	0	0
19	1	683	1	1	1	0.2788	0.0509	0	0	0.408	0	82	82
19	1	684	0	2	3	0.2788	0.0509	1	0	0.943	0	82	0
19	1	685	1	2	2	0.2788	0.0509	0	1	0.586	76	82	82
19	1	686	1	1	1	0.2788	0.0509	0	1	0.582	77	82	82
19	1	687	1	1	3	0.2788	0.0509	0	1	0.502	85	82	82
19	1	688	9	1	3	0.2788	0.0509	0	1	0.476	0	0	0
19	1	689	1	2	2	0.2788	0.0509	0	1	0.470	88	82	82
19	1	690	1	2	2	0.2788	0.0509	0	1	0.457	89	82	82
19	1	691	0	1	3	0.2788	0.0509	0	1	0.495	9	0	0
19	1	692	0	2	3	0.2788	0.0509	0	1	0.405	9	0	0
19	1	693	1	2	2	0.2788	0.0509	0	1	0.437	91	82	82
19	1	694	0	1	1	0.2788	0.0509	1	1	0.587	8	0	82
19	1	695	1	2	2	0.2788	0.0509	0	1	0.481	87	82	82
19	1	696	0	2	1	0.2788	0.0509	0	1	0.482	9	0	0
19	1	697	9	2	3	0.2788	0.0509	0	1	0.442	0	82	82
19	1	698	0	1	1	0.2788	0.0509	1	1	0.583	8	0	82
19	1	699	1	2	3	0.2788	0.0509	0	1	0.438	91	82	82
19	1	700	0	2	3	0.2788	0.0509	0	1	0.353	10	0	0
19	1	701	1	1	1	0.2788	0.0509	0	1	1.216	50	82	82
19	1	702	1	1	3	0.2788	0.0509	0	1	0.507	84	82	82
19	1	703	0	1	3	0.2788	0.0509	0	1	0.452	9	0	0
19	1	704	0	1	1	0.2788	0.0509	1	1	0.512	8	0	82
19	1	705	9	1	1	0.2788	0.0509	1	1	0.414	0	82	0
19	1	706	0	2	3	0.2788	0.0509	0	1	0.605	7	0	0
19	1	707	9	2	1	0.2788	0.0509	0	1	0.428	0	0	0
19	1	708	0	1	1	0.2788	0.0509	1	1	0.510	8	0	82
19	1	709	1	2	3	0.2788	0.0509	0	1	0.453	90	82	82
19	1	710	1	2	2	0.2788	0.0509	0	1	0.371	98	82	82
19	1	711	9	2	2	0.2788	0.0509	0	1	0.438	0	0	0
19	1	712	1	1	3	0.2788	0.0509	1	1	0.358	99	82	0
19	1	713	0	2	3	0.2788	0.0509	1	0	0.540	0	82	0
19	1	714	0	2	3	0.2788	0.0509	0	1	0.628	7	0	0
19	1	715	1	2	3	0.2788	0.0509	1	1	0.527	82	0	82
19	1	716	1	2	3	0.2788	0.0509	1	1	0.481	87	0	82
19	1	717	0	1	3	0.2788	0.0509	0	1	0.513	8	0	0
19	1	718	1	2	2	0.2788	0.0509	1	1	0.513	84	0	82
19	1	719	0	1	3	0.2788	0.0509	0	1	0.526	8	0	0
19	1	720	1	2	3	0.2788	0.0509	0	1	0.480	87	82	82
