sub	sess	t	loc	co1	co2	or	resp	rt
9	1	1	1	1.0000	1.0000	1	0	5.980
9	1	2	1	1.0000	1.0000	1	0	3.529
9	1	3	1	1.0000	1.0000	1	1	2.776
9	1	4	2	1.0000	1.0000	1	1	2.957
9	1	5	1	1.0000	1.0000	0	1	1.217
9	1	6	2	1.0000	1.0000	0	1	0.894
9	1	7	2	1.0000	1.0000	1	1	0.888
9	1	8	2	1.0000	1.0000	1	1	1.114
9	1	9	2	1.0000	1.0000	0	1	0.635
9	1	10	1	1.0000	1.0000	0	1	0.934
9	1	11	1	1.0000	1.0000	0	1	0.648
9	1	12	2	1.0000	1.0000	1	1	0.647
9	1	13	1	1.0000	1.0000	1	1	0.717
9	1	14	1	1.0000	1.0000	1	1	0.663
9	1	15	2	1.0000	1.0000	0	1	0.684
9	1	16	1	1.0000	1.0000	0	1	0.870
9	1	17	2	1.0000	1.0000	0	1	0.647
9	1	18	2	1.0000	1.0000	1	1	0.589
9	1	19	1	1.0000	1.0000	0	1	0.970
9	1	20	2	1.0000	1.0000	0	1	0.778
9	1	21	1	1.0000	1.0000	1	1	1.679
9	1	22	1	1.0000	1.0000	0	1	0.621
9	1	23	2	1.0000	1.0000	1	1	0.732
9	1	24	1	1.0000	1.0000	0	1	0.552
9	1	25	1	1.0000	1.0000	1	1	0.957
9	1	26	2	1.0000	1.0000	1	1	0.640
9	1	27	2	1.0000	1.0000	0	1	0.604
9	1	28	2	1.0000	1.0000	0	1	0.647
9	1	29	1	0.2500	0.2500	0	1	1.777
9	1	30	1	0.2629	0.2629	1	1	0.581
9	1	31	2	0.2758	0.2758	1	1	0.783
9	1	32	2	0.2887	0.2887	0	1	0.836
9	1	33	1	0.3016	0.3016	1	1	0.799
9	1	34	1	0.3145	0.3145	0	1	0.766
9	1	35	1	0.3274	0.3274	0	1	0.606
9	1	36	1	0.3403	0.3403	1	1	1.089
9	1	37	2	0.3532	0.3532	1	1	0.966
9	1	38	2	0.3661	0.3661	0	1	0.586
9	1	39	2	0.3790	0.3790	0	1	0.532
9	1	40	1	0.3919	0.3919	1	1	0.719
9	1	41	2	0.4048	0.4048	1	1	0.732
9	1	42	1	0.4177	0.4177	0	1	0.594
9	1	43	1	0.4306	0.4306	0	1	0.608
9	1	44	2	0.4435	0.4435	0	1	0.817
9	1	45	1	0.4565	0.4565	1	1	0.625
9	1	46	2	0.4694	0.4694	0	1	0.662
9	1	47	2	0.4823	0.4823	1	1	0.730
9	1	48	2	0.4952	0.4952	0	1	0.578
9	1	49	1	0.5081	0.5081	0	1	0.625
9	1	50	2	0.5210	0.5210	1	1	0.855
9	1	51	1	0.5339	0.5339	1	1	1.193
9	1	52	2	0.5468	0.5468	0	1	0.665
9	1	53	1	0.5597	0.5597	0	1	0.806
9	1	54	1	0.5726	0.5726	0	1	0.924
9	1	55	2	0.5855	0.5855	1	1	0.894
9	1	56	2	0.5984	0.5984	0	1	0.795
9	1	57	2	0.6113	0.6113	1	1	0.732
9	1	58	2	0.6242	0.6242	0	1	0.571
9	1	59	2	0.6371	0.6371	0	1	0.599
9	1	60	1	0.6500	0.6500	0	1	0.900
9	1	61	1	0.2500	0.2500	1	1	0.585
9	1	62	1	0.2629	0.2629	1	1	0.700
9	1	63	1	0.2758	0.2758	1	1	0.552
9	1	64	1	0.2887	0.2887	1	1	0.732
9	1	65	1	0.3016	0.3016	0	1	0.616
9	1	66	1	0.3145	0.3145	0	1	0.603
9	1	67	1	0.3274	0.3274	1	1	0.646
9	1	68	2	0.3403	0.3403	0	1	0.623
9	1	69	1	0.3532	0.3532	1	1	0.900
9	1	70	1	0.3661	0.3661	1	1	0.649
9	1	71	1	0.3790	0.3790	0	1	0.531
9	1	72	2	0.3919	0.3919	1	1	0.672
9	1	73	2	0.4048	0.4048	0	1	0.588
9	1	74	2	0.4177	0.4177	0	1	0.536
9	1	75	1	0.4306	0.4306	1	1	0.661
9	1	76	1	0.4435	0.4435	0	1	0.630
9	1	77	2	0.4565	0.4565	1	1	0.747
9	1	78	1	0.4694	0.4694	1	1	0.983
9	1	79	1	0.4823	0.4823	1	1	0.609
9	1	80	2	0.4952	0.4952	1	1	0.750
9	1	81	2	0.5081	0.5081	0	1	0.488
9	1	82	2	0.5210	0.5210	0	1	0.612
9	1	83	1	0.5339	0.5339	0	1	0.874
9	1	84	2	0.5468	0.5468	1	1	0.657
9	1	85	1	0.5597	0.5597	0	1	0.794
9	1	86	2	0.5726	0.5726	1	1	0.568
9	1	87	2	0.5855	0.5855	1	1	1.451
9	1	88	2	0.5984	0.5984	1	1	0.683
9	1	89	2	0.6113	0.6113	1	1	0.524
9	1	90	2	0.6242	0.6242	0	1	0.640
9	1	91	2	0.6371	0.6371	1	1	0.629
9	1	92	1	0.6500	0.6500	0	1	1.236
9	1	93	1	0.1393	0.6371	0	1	0.698
9	1	94	2	0.1393	0.2069	1	0	2.399
9	1	95	1	0.1298	0.2069	1	1	1.001
9	1	96	2	0.1298	0.2411	1	1	1.491
9	1	97	1	0.1202	0.2411	0	1	0.865
9	1	98	2	0.1202	0.2327	0	1	2.295
9	1	99	1	0.1104	0.2327	0	1	0.645
9	1	100	2	0.1104	0.2242	1	1	1.002
9	1	101	2	0.1104	0.2157	0	1	0.623
9	1	102	1	0.1004	0.2157	0	1	0.823
9	1	103	2	0.1004	0.2072	0	1	0.841
9	1	104	2	0.1004	0.1987	1	1	0.624
9	1	105	1	0.0901	0.1987	1	1	0.759
9	1	106	1	0.0798	0.1987	1	1	0.783
9	1	107	1	0.0694	0.1987	0	1	1.692
9	1	108	2	0.0694	0.1904	0	1	0.979
9	1	109	1	0.0590	0.1904	1	1	0.881
9	1	110	2	0.0590	0.1821	1	1	1.325
9	1	111	1	0.0486	0.1821	1	1	0.818
9	1	112	2	0.0486	0.1739	0	1	0.505
9	1	113	1	0.0384	0.1739	1	1	0.923
9	1	114	1	0.0285	0.1739	0	0	4.062
9	1	115	2	0.0285	0.1658	0	1	0.620
9	1	116	1	0.0574	0.1658	1	1	0.857
9	1	117	2	0.0574	0.1578	1	1	1.426
9	1	118	1	0.0486	0.1578	1	0	1.017
9	1	119	1	0.0745	0.1578	1	1	0.736
9	1	120	1	0.0667	0.1578	0	1	3.510
9	1	121	2	0.0667	0.1499	0	1	22.118
9	1	122	2	0.0667	0.1422	0	1	0.924
9	1	123	1	0.0591	0.1422	1	0	0.854
9	1	124	1	0.0816	0.1422	1	1	0.769
9	1	125	1	0.0747	0.1422	0	1	0.530
9	1	126	1	0.0679	0.1422	0	1	0.703
9	1	127	2	0.0679	0.1346	0	0	0.744
9	1	128	2	0.0679	0.1562	1	1	0.840
9	1	129	1	0.0613	0.1562	1	1	0.855
9	1	130	2	0.0613	0.1494	1	1	0.707
9	1	131	1	0.0550	0.1494	0	0	1.692
9	1	132	2	0.0550	0.1428	1	1	0.692
9	1	133	1	0.0730	0.1428	0	0	2.347
9	1	134	1	0.0906	0.1428	1	1	0.630
9	1	135	1	0.0849	0.1428	1	1	1.128
9	1	136	2	0.0849	0.1364	1	1	1.209
9	1	137	2	0.0849	0.1301	0	1	0.813
9	1	138	2	0.0849	0.1240	1	1	1.576
9	1	139	2	0.0849	0.1181	1	1	1.040
9	1	140	2	0.0849	0.1123	0	1	0.562
9	1	141	1	0.0793	0.1123	1	1	0.702
9	1	142	1	0.0739	0.1123	0	1	2.678
9	1	143	2	0.0739	0.1067	1	1	0.626
9	1	144	1	0.0685	0.1067	0	1	1.458
9	1	145	2	0.0685	0.1012	1	1	0.901
9	1	146	2	0.0685	0.0959	0	0	3.628
9	1	147	1	0.0634	0.0959	1	0	1.911
9	1	148	2	0.0634	0.1121	0	1	0.630
9	1	149	2	0.0634	0.1071	0	1	0.646
9	1	150	2	0.0634	0.1022	0	1	0.404
9	1	151	1	0.0781	0.1022	0	1	0.890
9	1	152	2	0.0781	0.0974	1	1	0.648
9	1	153	2	0.0781	0.0928	0	0	0.930
9	1	154	1	0.0732	0.0928	0	1	0.525
9	1	155	2	0.0732	0.1061	1	1	0.691
9	1	156	1	0.0684	0.1061	0	1	0.585
