sub	sess	t	rew	loc	cue	co1	co2	or	resp	rt	rew_tot	left_col	right_col
9	1	1	0	2	2	0.0605	0.0984	1	1	0.561	8	82	0
9	1	2	9	1	1	0.0605	0.0984	1	1	0.618	0	82	0
9	1	3	0	2	2	0.0605	0.0984	0	1	0.439	9	0	0
9	1	4	0	1	3	0.0605	0.0984	1	1	0.545	8	0	82
9	1	5	0	1	1	0.0605	0.0984	1	1	0.456	9	0	82
9	1	6	0	2	1	0.0605	0.0984	0	1	0.565	8	0	0
9	1	7	0	1	1	0.0605	0.0984	1	1	0.442	9	0	82
9	1	8	1	1	3	0.0605	0.0984	1	1	0.554	80	82	0
9	1	9	1	2	3	0.0605	0.0984	0	1	0.644	71	82	82
9	1	10	9	2	3	0.0605	0.0984	1	1	0.587	0	82	0
9	1	11	0	1	2	0.0605	0.0984	0	1	0.721	6	0	0
9	1	12	0	1	3	0.0605	0.0984	0	0	0.760	0	0	0
9	1	13	1	1	2	0.0605	0.0984	0	1	0.507	84	82	82
9	1	14	1	2	2	0.0605	0.0984	1	1	0.543	81	0	82
9	1	15	0	1	1	0.0605	0.0984	1	1	0.566	8	0	82
9	1	16	0	1	1	0.0605	0.0984	1	0	0.676	0	0	82
9	1	17	0	2	3	0.0605	0.0984	1	1	0.655	7	82	0
9	1	18	0	1	1	0.0605	0.0984	1	1	0.639	7	0	82
9	1	19	0	2	3	0.0605	0.0984	0	1	0.546	8	0	0
9	1	20	1	1	3	0.0605	0.0984	1	1	0.539	81	82	0
9	1	21	1	2	3	0.0605	0.0984	0	1	0.476	87	82	82
9	1	22	1	1	1	0.0605	0.0984	0	0	0.535	0	82	82
9	1	23	1	1	3	0.0605	0.0984	1	1	0.527	82	82	0
9	1	24	1	1	3	0.0605	0.0984	1	1	0.586	76	82	0
9	1	25	0	1	1	0.0605	0.0984	0	1	0.519	8	0	0
9	1	26	0	1	3	0.0605	0.0984	0	1	0.489	9	0	0
9	1	27	1	1	3	0.0605	0.0984	1	1	0.542	81	82	0
9	1	28	1	1	1	0.0605	0.0984	0	1	0.582	77	82	82
9	1	29	1	2	2	0.0605	0.0984	1	1	0.764	59	0	82
9	1	30	9	2	3	0.0605	0.0984	0	1	0.530	0	0	0
9	1	31	0	2	3	0.0605	0.0984	1	1	0.601	7	82	0
9	1	32	1	2	2	0.0605	0.0984	0	1	0.520	83	82	82
9	1	33	9	2	2	0.0605	0.0984	0	1	0.466	0	82	82
9	1	34	0	1	1	0.0605	0.0984	0	1	0.611	7	0	0
9	1	35	9	2	2	0.0605	0.0984	1	1	0.592	0	82	0
9	1	36	9	2	2	0.0605	0.0984	1	1	0.587	0	82	0
9	1	37	1	1	3	0.0605	0.0984	0	1	0.712	64	82	82
9	1	38	0	2	3	0.0605	0.0984	0	1	0.553	8	0	0
9	1	39	0	1	1	0.0605	0.0984	0	1	0.570	8	0	0
9	1	40	1	1	1	0.0605	0.0984	0	1	0.458	89	82	82
9	1	41	9	1	3	0.0605	0.0984	1	1	0.742	0	82	0
9	1	42	9	1	3	0.0605	0.0984	1	1	1.184	0	0	82
9	1	43	0	2	3	0.0605	0.0984	0	1	0.488	9	0	0
9	1	44	0	1	1	0.0605	0.0984	0	1	0.465	9	0	0
9	1	45	0	1	1	0.0605	0.0984	1	1	0.576	8	0	82
9	1	46	0	1	3	0.0605	0.0984	0	1	0.508	8	0	0
9	1	47	0	1	3	0.0605	0.0984	0	1	0.646	7	0	0
9	1	48	1	2	3	0.0605	0.0984	1	0	0.788	0	0	82
9	1	49	9	1	1	0.0605	0.0984	1	1	0.577	0	0	82
9	1	50	1	2	2	0.0605	0.0984	1	1	0.702	65	0	82
9	1	51	1	1	3	0.0605	0.0984	1	1	0.555	80	82	0
9	1	52	0	1	1	0.0605	0.0984	0	1	0.534	8	0	0
9	1	53	0	1	2	0.0605	0.0984	1	1	0.722	6	0	82
9	1	54	1	2	3	0.0605	0.0984	1	1	0.630	72	0	82
9	1	55	1	1	3	0.0605	0.0984	0	1	0.650	70	82	82
9	1	56	0	2	2	0.0605	0.0984	0	1	0.518	8	0	0
9	1	57	1	2	2	0.0605	0.0984	1	1	0.511	84	0	82
9	1	58	9	2	2	0.0605	0.0984	0	1	0.432	0	82	82
9	1	59	0	1	3	0.0605	0.0984	1	1	0.542	8	0	82
9	1	60	0	1	3	0.0605	0.0984	0	1	0.481	9	0	0
9	1	61	0	2	2	0.0605	0.0984	1	1	0.615	7	82	0
9	1	62	0	1	1	0.0605	0.0984	1	1	0.519	8	0	82
9	1	63	1	2	2	0.0605	0.0984	0	1	0.436	91	82	82
9	1	64	9	2	2	0.0605	0.0984	0	1	0.412	0	82	82
9	1	65	1	1	2	0.0605	0.0984	0	0	0.524	0	82	82
9	1	66	0	2	2	0.0605	0.0984	0	1	0.466	9	0	0
9	1	67	1	1	1	0.0605	0.0984	0	1	0.944	50	82	82
9	1	68	0	1	1	0.0605	0.0984	1	1	0.461	9	0	82
9	1	69	1	2	2	0.0605	0.0984	1	1	0.475	88	0	82
9	1	70	9	1	3	0.0605	0.0984	1	1	0.517	0	0	82
9	1	71	0	1	3	0.0605	0.0984	0	1	0.552	8	0	0
9	1	72	0	2	3	0.0605	0.0984	1	1	0.603	7	82	0
9	1	73	9	1	1	0.0605	0.0984	1	1	0.475	0	82	0
9	1	74	0	2	3	0.0605	0.0984	0	1	0.664	7	0	0
9	1	75	9	2	2	0.0605	0.0984	1	1	0.482	0	0	82
9	1	76	1	2	2	0.0605	0.0984	1	1	0.479	87	0	82
9	1	77	0	1	3	0.0605	0.0984	1	0	0.632	0	0	82
9	1	78	9	2	2	0.0605	0.0984	1	1	0.480	0	82	0
9	1	79	9	2	1	0.0605	0.0984	0	1	0.575	0	82	82
9	1	80	0	2	3	0.0605	0.0984	1	1	1.634	5	82	0
9	1	81	0	2	3	0.0605	0.0984	0	1	0.645	7	0	0
9	1	82	1	1	1	0.0605	0.0984	1	1	0.705	65	82	0
9	1	83	1	1	1	0.0605	0.0984	0	1	0.500	85	82	82
9	1	84	1	2	2	0.0605	0.0984	1	1	0.482	87	0	82
9	1	85	9	1	1	0.0605	0.0984	0	1	0.562	0	82	82
9	1	86	0	2	2	0.0605	0.0984	0	1	0.842	5	0	0
9	1	87	9	1	2	0.0605	0.0984	0	1	0.607	0	82	82
9	1	88	1	1	1	0.0605	0.0984	1	1	0.613	74	82	0
9	1	89	1	2	2	0.0605	0.0984	0	1	0.455	89	82	82
9	1	90	1	2	1	0.0605	0.0984	1	1	0.583	77	0	82
9	1	91	1	2	3	0.0605	0.0984	1	1	0.560	79	0	82
9	1	92	0	2	2	0.0605	0.0984	1	1	0.435	9	82	0
9	1	93	9	2	3	0.0605	0.0984	1	1	0.444	0	0	82
9	1	94	1	2	3	0.0605	0.0984	0	1	0.480	87	82	82
9	1	95	1	2	3	0.0605	0.0984	1	1	0.445	91	0	82
9	1	96	9	2	3	0.0605	0.0984	0	0	0.572	0	0	0
9	1	97	9	1	3	0.0605	0.0984	0	1	0.896	0	0	0
9	1	98	1	1	1	0.0605	0.0984	1	1	0.543	81	82	0
9	1	99	0	1	3	0.0605	0.0984	1	1	0.999	5	0	82
9	1	100	0	2	2	0.0605	0.0984	1	1	0.514	8	82	0
9	1	101	0	2	2	0.0605	0.0984	1	1	0.708	6	82	0
9	1	102	9	2	1	0.0605	0.0984	1	1	0.543	0	0	82
9	1	103	0	2	3	0.0605	0.0984	1	1	0.556	8	82	0
9	1	104	0	1	1	0.0605	0.0984	0	1	0.665	7	0	0
9	1	105	9	1	1	0.0605	0.0984	0	1	0.446	0	0	0
9	1	106	9	1	3	0.0605	0.0984	0	1	0.596	0	82	82
9	1	107	0	1	1	0.0605	0.0984	0	1	0.711	6	0	0
9	1	108	1	1	3	0.0605	0.0984	1	1	0.715	63	82	0
9	1	109	0	2	2	0.0605	0.0984	0	1	0.513	8	0	0
9	1	110	9	1	1	0.0605	0.0984	0	1	0.538	0	82	82
9	1	111	0	1	3	0.0605	0.0984	1	1	0.536	8	0	82
9	1	112	0	1	3	0.0605	0.0984	1	1	0.559	8	0	82
9	1	113	0	1	1	0.0605	0.0984	0	1	0.485	9	0	0
9	1	114	1	1	1	0.0605	0.0984	1	1	0.519	83	82	0
9	1	115	0	2	3	0.0605	0.0984	1	1	0.838	5	82	0
9	1	116	1	2	3	0.0605	0.0984	0	1	0.615	74	82	82
9	1	117	1	2	2	0.0605	0.0984	1	1	0.628	72	0	82
9	1	118	9	2	2	0.0605	0.0984	1	1	0.480	0	0	82
9	1	119	1	2	2	0.0605	0.0984	0	1	0.563	79	82	82
9	1	120	9	2	3	0.0605	0.0984	1	1	0.605	0	82	0
9	1	121	0	2	1	0.0605	0.0984	1	1	0.601	7	82	0
9	1	122	9	2	3	0.0605	0.0984	0	1	0.517	0	0	0
9	1	123	0	1	3	0.0605	0.0984	0	1	0.730	6	0	0
9	1	124	1	1	3	0.0605	0.0984	0	1	0.518	83	82	82
9	1	125	1	1	3	0.0605	0.0984	0	1	0.510	84	82	82
9	1	126	0	2	3	0.0605	0.0984	0	1	0.765	6	0	0
9	1	127	1	1	3	0.0605	0.0984	1	1	0.527	82	82	0
9	1	128	0	1	1	0.0605	0.0984	1	1	0.463	9	0	82
9	1	129	1	1	3	0.0605	0.0984	0	1	0.489	86	82	82
9	1	130	1	2	3	0.0605	0.0984	1	0	0.983	0	0	82
9	1	131	1	2	2	0.0605	0.0984	1	1	0.537	81	0	82
9	1	132	0	1	3	0.0605	0.0984	1	1	0.519	8	0	82
9	1	133	0	1	3	0.0605	0.0984	0	1	0.491	9	0	0
9	1	134	1	1	1	0.0605	0.0984	0	1	0.647	70	82	82
9	1	135	0	1	3	0.0605	0.0984	1	1	0.520	8	0	82
9	1	136	0	1	1	0.0605	0.0984	0	1	0.491	9	0	0
9	1	137	1	1	2	0.0605	0.0984	1	1	0.555	79	82	0
9	1	138	0	2	2	0.0605	0.0984	0	1	0.429	9	0	0
9	1	139	1	2	1	0.0605	0.0984	1	1	0.624	73	0	82
9	1	140	9	1	1	0.0605	0.0984	1	1	0.614	0	0	82
9	1	141	0	2	3	0.0605	0.0984	1	1	0.573	8	82	0
9	1	142	1	2	3	0.0605	0.0984	1	1	0.575	78	0	82
9	1	143	1	1	1	0.0605	0.0984	0	1	0.627	72	82	82
9	1	144	9	1	3	0.0605	0.0984	0	1	0.517	0	82	82
9	1	145	1	1	3	0.0605	0.0984	1	1	0.578	77	82	0
9	1	146	1	1	3	0.0605	0.0984	0	1	0.438	91	82	82
9	1	147	9	2	3	0.0605	0.0984	1	1	0.754	0	0	82
9	1	148	0	1	1	0.0605	0.0984	1	1	0.457	9	0	82
9	1	149	9	2	2	0.0605	0.0984	1	1	0.645	0	0	82
9	1	150	0	1	3	0.0605	0.0984	1	1	0.890	5	0	82
9	1	151	0	1	3	0.0605	0.0984	0	1	0.587	8	0	0
9	1	152	0	2	3	0.0605	0.0984	1	1	0.559	8	82	0
9	1	153	0	2	3	0.0605	0.0984	1	1	0.899	5	82	0
9	1	154	0	2	3	0.0605	0.0984	0	1	0.503	8	0	0
9	1	155	0	1	3	0.0605	0.0984	0	1	0.538	8	0	0
9	1	156	1	1	1	0.0605	0.0984	0	1	0.466	88	82	82
9	1	157	9	2	1	0.0605	0.0984	1	1	0.637	0	82	0
9	1	158	1	2	2	0.0605	0.0984	0	1	0.523	83	82	82
9	1	159	9	2	3	0.0605	0.0984	1	1	0.662	0	82	0
9	1	160	1	2	1	0.0605	0.0984	0	1	1.093	50	82	82
9	1	161	9	1	2	0.0605	0.0984	1	1	0.581	0	0	82
9	1	162	1	1	2	0.0605	0.0984	1	0	0.526	0	82	0
9	1	163	0	2	2	0.0605	0.0984	1	0	0.587	0	82	0
9	1	164	9	2	3	0.0605	0.0984	0	1	0.493	0	0	0
9	1	165	0	2	2	0.0605	0.0984	1	1	0.520	8	82	0
9	1	166	9	1	2	0.0605	0.0984	0	1	0.553	0	0	0
9	1	167	1	2	1	0.0605	0.0984	1	1	0.689	66	0	82
9	1	168	1	1	3	0.0605	0.0984	0	1	0.524	83	82	82
9	1	169	1	2	3	0.0605	0.0984	0	1	0.468	88	82	82
9	1	170	9	1	3	0.0605	0.0984	1	1	0.591	0	0	82
9	1	171	1	1	1	0.0605	0.0984	1	1	0.512	84	82	0
9	1	172	1	2	2	0.0605	0.0984	0	1	0.383	97	82	82
9	1	173	1	1	3	0.0605	0.0984	0	0	0.470	0	82	82
9	1	174	1	1	1	0.0605	0.0984	0	1	0.387	96	82	82
9	1	175	0	1	3	0.0605	0.0984	0	1	0.434	9	0	0
9	1	176	1	2	2	0.0605	0.0984	0	1	0.411	94	82	82
9	1	177	0	2	3	0.0605	0.0984	1	1	0.556	8	82	0
9	1	178	0	2	2	0.0605	0.0984	0	1	0.583	8	0	0
9	1	179	0	2	2	0.0605	0.0984	0	1	0.439	9	0	0
9	1	180	1	2	2	0.0605	0.0984	0	1	0.368	98	82	82
9	1	181	0	1	2	0.0605	0.0984	1	0	0.407	0	0	82
9	1	182	1	2	1	0.0605	0.0984	0	1	0.586	76	82	82
9	1	183	9	1	1	0.0605	0.0984	0	1	0.521	0	0	0
9	1	184	1	2	2	0.0605	0.0984	0	1	0.480	87	82	82
9	1	185	0	2	3	0.0605	0.0984	0	1	0.455	9	0	0
9	1	186	9	1	3	0.0605	0.0984	0	1	0.566	0	0	0
9	1	187	0	2	3	0.0605	0.0984	0	1	0.533	8	0	0
9	1	188	9	1	3	0.0605	0.0984	1	1	0.506	0	82	0
9	1	189	1	2	2	0.0605	0.0984	1	1	0.584	77	0	82
9	1	190	9	1	3	0.0605	0.0984	1	1	0.609	0	82	0
9	1	191	1	2	3	0.0605	0.0984	1	0	0.658	0	0	82
9	1	192	1	1	1	0.0605	0.0984	0	1	0.508	84	82	82
9	1	193	1	2	3	0.0605	0.0984	0	1	0.500	85	82	82
9	1	194	0	1	2	0.0605	0.0984	1	1	0.598	8	0	82
9	1	195	0	1	1	0.0605	0.0984	1	1	0.563	8	0	82
9	1	196	9	1	3	0.0605	0.0984	0	1	0.494	0	82	82
9	1	197	0	2	3	0.0605	0.0984	0	1	0.428	9	0	0
9	1	198	0	2	2	0.0605	0.0984	0	1	0.398	10	0	0
9	1	199	9	1	1	0.0605	0.0984	1	1	0.395	0	82	0
9	1	200	1	2	2	0.0605	0.0984	1	1	0.577	77	0	82
9	1	201	1	1	1	0.0605	0.0984	0	1	0.407	94	82	82
9	1	202	1	2	2	0.0605	0.0984	0	1	0.394	96	82	82
9	1	203	1	1	1	0.0605	0.0984	0	1	0.464	89	82	82
9	1	204	0	2	1	0.0605	0.0984	0	1	0.404	9	0	0
9	1	205	0	2	2	0.0605	0.0984	0	1	0.342	10	0	0
9	1	206	0	2	3	0.0605	0.0984	1	0	0.932	0	82	0
9	1	207	1	1	1	0.0605	0.0984	1	1	0.501	85	82	0
9	1	208	0	1	3	0.0605	0.0984	1	0	0.465	0	0	82
9	1	209	0	2	2	0.0605	0.0984	0	1	0.355	10	0	0
9	1	210	0	2	3	0.0605	0.0984	0	1	0.465	9	0	0
9	1	211	1	1	2	0.0605	0.0984	0	1	0.565	79	82	82
9	1	212	1	2	3	0.0605	0.0984	1	1	0.893	50	0	82
9	1	213	0	1	3	0.0605	0.0984	1	1	0.520	8	0	82
9	1	214	1	2	2	0.0605	0.0984	1	1	0.858	50	0	82
9	1	215	1	2	2	0.0605	0.0984	0	1	0.453	90	82	82
9	1	216	9	1	1	0.0605	0.0984	0	1	0.504	0	0	0
9	1	217	1	2	1	0.0605	0.0984	1	1	0.739	61	0	82
9	1	218	1	1	2	0.0605	0.0984	1	1	0.553	80	82	0
9	1	219	0	2	1	0.0605	0.0984	1	1	0.535	8	82	0
9	1	220	0	1	1	0.0605	0.0984	0	1	0.471	9	0	0
9	1	221	1	2	3	0.0605	0.0984	0	1	1.103	50	82	82
9	1	222	0	2	1	0.0605	0.0984	0	1	0.416	9	0	0
9	1	223	1	1	1	0.0605	0.0984	1	1	0.433	92	82	0
9	1	224	0	2	1	0.0605	0.0984	1	1	0.555	8	82	0
9	1	225	0	1	2	0.0605	0.0984	0	1	0.557	8	0	0
9	1	226	1	2	1	0.0605	0.0984	0	1	0.545	81	82	82
9	1	227	0	1	1	0.0605	0.0984	1	1	0.406	9	0	82
9	1	228	0	1	3	0.0605	0.0984	1	1	0.486	9	0	82
9	1	229	1	1	3	0.0605	0.0984	0	1	0.473	88	82	82
9	1	230	1	1	1	0.0605	0.0984	0	1	0.373	98	82	82
9	1	231	1	1	3	0.0605	0.0984	1	1	0.435	91	82	0
9	1	232	9	2	3	0.0605	0.0984	1	0	0.506	0	82	0
9	1	233	0	2	1	0.0605	0.0984	1	0	0.451	0	82	0
9	1	234	1	2	2	0.0605	0.0984	1	1	0.504	85	0	82
9	1	235	0	1	1	0.0605	0.0984	1	1	0.675	7	0	82
9	1	236	0	1	1	0.0605	0.0984	0	1	0.384	10	0	0
9	1	237	9	1	1	0.0605	0.0984	0	1	0.410	0	82	82
9	1	238	0	2	2	0.0605	0.0984	0	1	0.466	9	0	0
9	1	239	9	2	3	0.0605	0.0984	0	1	0.527	0	82	82
9	1	240	9	1	1	0.0605	0.0984	1	1	0.494	0	0	82
9	1	241	1	1	3	0.0605	0.0984	0	0	0.666	0	82	82
9	1	242	1	1	2	0.0605	0.0984	1	1	0.617	73	82	0
9	1	243	0	1	3	0.0605	0.0984	0	1	0.462	9	0	0
9	1	244	1	1	1	0.0605	0.0984	1	1	0.611	74	82	0
9	1	245	0	2	2	0.0605	0.0984	1	1	0.505	8	82	0
9	1	246	1	2	3	0.0605	0.0984	1	1	0.526	82	0	82
9	1	247	1	2	3	0.0605	0.0984	0	1	0.448	90	82	82
9	1	248	0	2	3	0.0605	0.0984	1	1	0.457	9	82	0
9	1	249	1	1	3	0.0605	0.0984	1	1	0.647	70	82	0
9	1	250	0	1	1	0.0605	0.0984	0	1	0.524	8	0	0
9	1	251	0	2	3	0.0605	0.0984	1	1	0.436	9	82	0
9	1	252	0	1	3	0.0605	0.0984	0	1	0.560	8	0	0
9	1	253	0	1	1	0.0605	0.0984	0	1	0.491	9	0	0
9	1	254	0	2	2	0.0605	0.0984	1	1	0.472	9	82	0
9	1	255	9	2	2	0.0605	0.0984	1	0	0.411	0	82	0
9	1	256	9	1	1	0.0605	0.0984	1	1	0.556	0	0	82
9	1	257	1	1	3	0.0605	0.0984	0	1	0.497	85	82	82
9	1	258	0	2	3	0.0605	0.0984	0	0	0.563	0	0	0
9	1	259	9	1	3	0.0605	0.0984	0	1	0.420	0	82	82
9	1	260	0	2	2	0.0605	0.0984	1	1	0.382	10	82	0
9	1	261	1	2	2	0.0605	0.0984	1	1	0.566	78	0	82
9	1	262	9	2	3	0.0605	0.0984	0	1	0.340	0	82	82
9	1	263	0	1	3	0.0605	0.0984	1	1	0.516	8	0	82
9	1	264	1	2	3	0.0605	0.0984	1	1	0.663	69	0	82
9	1	265	0	1	1	0.0605	0.0984	1	1	0.386	10	0	82
9	1	266	1	2	3	0.0605	0.0984	0	1	0.444	91	82	82
9	1	267	0	1	3	0.0605	0.0984	1	1	0.420	9	0	82
9	1	268	1	2	2	0.0605	0.0984	0	1	0.314	100	82	82
9	1	269	0	2	3	0.0605	0.0984	0	1	0.367	10	0	0
9	1	270	0	2	2	0.0605	0.0984	0	1	0.335	10	0	0
9	1	271	9	1	1	0.0605	0.0984	0	1	0.396	0	82	82
9	1	272	9	1	2	0.0605	0.0984	1	1	0.740	0	82	0
9	1	273	0	2	3	0.0605	0.0984	1	1	0.516	8	82	0
9	1	274	9	2	3	0.0605	0.0984	0	1	0.403	0	82	82
9	1	275	1	2	3	0.0605	0.0984	0	1	0.448	90	82	82
9	1	276	0	1	2	0.0605	0.0984	1	1	0.629	7	0	82
9	1	277	9	2	3	0.0605	0.0984	1	1	0.440	0	0	82
9	1	278	1	2	3	0.0605	0.0984	1	0	0.341	0	0	82
9	1	279	0	2	2	0.0605	0.0984	1	1	0.493	9	82	0
9	1	280	1	1	1	0.0605	0.0984	1	1	0.496	85	82	0
9	1	281	9	2	1	0.0605	0.0984	0	1	0.586	0	0	0
9	1	282	1	1	1	0.0605	0.0984	0	1	0.609	74	82	82
9	1	283	9	2	2	0.0605	0.0984	0	1	0.363	0	0	0
9	1	284	1	1	3	0.0605	0.0984	0	1	0.584	77	82	82
9	1	285	1	1	3	0.0605	0.0984	0	1	0.475	88	82	82
9	1	286	1	2	2	0.0605	0.0984	0	1	0.456	89	82	82
9	1	287	0	2	2	0.0605	0.0984	0	1	0.557	8	0	0
9	1	288	0	1	3	0.0605	0.0984	1	1	0.689	7	0	82
9	1	289	1	2	2	0.0605	0.0984	1	1	0.532	82	0	82
9	1	290	0	1	1	0.0605	0.0984	1	1	0.462	9	0	82
9	1	291	9	1	1	0.0605	0.0984	0	1	0.463	0	0	0
9	1	292	1	2	3	0.0605	0.0984	1	0	0.592	0	0	82
9	1	293	9	2	2	0.0605	0.0984	0	1	0.406	0	0	0
9	1	294	1	2	1	0.0605	0.0984	0	1	0.623	73	82	82
9	1	295	0	2	2	0.0605	0.0984	1	1	0.460	9	82	0
9	1	296	1	1	1	0.0605	0.0984	1	1	0.500	85	82	0
9	1	297	1	1	3	0.0605	0.0984	0	1	0.509	84	82	82
9	1	298	0	1	3	0.0605	0.0984	0	0	0.503	0	0	0
9	1	299	1	2	3	0.0605	0.0984	1	1	0.500	85	0	82
9	1	300	1	2	2	0.0605	0.0984	0	1	0.406	94	82	82
9	1	301	0	1	2	0.0605	0.0984	0	1	0.542	8	0	0
9	1	302	9	2	2	0.0605	0.0984	0	1	0.363	0	0	0
9	1	303	9	1	3	0.0605	0.0984	0	1	0.573	0	0	0
9	1	304	1	1	3	0.0605	0.0984	0	1	0.446	90	82	82
9	1	305	0	2	1	0.0605	0.0984	0	1	0.314	10	0	0
9	1	306	0	2	3	0.0605	0.0984	1	1	0.584	8	82	0
9	1	307	0	1	1	0.0605	0.0984	0	1	0.459	9	0	0
9	1	308	1	1	1	0.0605	0.0984	1	1	0.529	82	82	0
9	1	309	0	1	2	0.0605	0.0984	0	0	0.451	0	0	0
9	1	310	0	2	2	0.0605	0.0984	0	1	0.426	9	0	0
9	1	311	9	1	3	0.0605	0.0984	1	1	0.498	0	82	0
9	1	312	1	2	3	0.0605	0.0984	0	1	0.448	90	82	82
9	1	313	1	2	2	0.0605	0.0984	0	1	0.350	100	82	82
9	1	314	0	1	1	0.0605	0.0984	0	0	0.457	0	0	0
9	1	315	9	2	2	0.0605	0.0984	1	0	0.632	0	0	82
9	1	316	9	2	3	0.0605	0.0984	1	1	0.599	0	0	82
9	1	317	0	2	3	0.0605	0.0984	0	1	0.406	9	0	0
9	1	318	1	1	1	0.0605	0.0984	1	1	0.353	100	82	0
9	1	319	1	1	2	0.0605	0.0984	0	1	0.309	100	82	82
9	1	320	0	2	2	0.0605	0.0984	0	1	0.350	10	0	0
9	1	321	9	1	3	0.0605	0.0984	1	1	0.484	0	0	82
9	1	322	1	2	3	0.0605	0.0984	0	1	0.290	100	82	82
9	1	323	1	1	1	0.0605	0.0984	1	1	0.368	98	82	0
9	1	324	1	2	3	0.0605	0.0984	0	1	0.283	100	82	82
9	1	325	1	1	1	0.0605	0.0984	0	0	0.232	0	82	82
9	1	326	1	1	3	0.0605	0.0984	1	1	0.363	99	82	0
9	1	327	0	2	3	0.0605	0.0984	0	1	0.361	10	0	0
9	1	328	1	2	3	0.0605	0.0984	1	1	0.466	88	0	82
9	1	329	1	1	3	0.0605	0.0984	1	0	0.619	0	82	0
9	1	330	1	2	2	0.0605	0.0984	1	1	0.360	99	0	82
9	1	331	9	1	1	0.0605	0.0984	1	1	0.488	0	82	0
9	1	332	1	2	2	0.0605	0.0984	0	1	0.289	100	82	82
9	1	333	1	1	1	0.0605	0.0984	1	1	0.363	99	82	0
9	1	334	0	1	1	0.0605	0.0984	1	1	0.496	9	0	82
9	1	335	1	1	1	0.0605	0.0984	1	1	0.448	90	82	0
9	1	336	0	1	3	0.0605	0.0984	0	1	0.425	9	0	0
9	1	337	1	1	3	0.0605	0.0984	1	1	0.470	88	82	0
9	1	338	1	1	3	0.0605	0.0984	1	0	0.341	0	82	0
9	1	339	9	1	3	0.0605	0.0984	0	1	0.552	0	0	0
9	1	340	1	2	3	0.0605	0.0984	0	1	0.578	77	82	82
9	1	341	9	2	3	0.0605	0.0984	0	1	0.432	0	82	82
9	1	342	0	2	2	0.0605	0.0984	1	1	0.455	9	82	0
9	1	343	1	1	3	0.0605	0.0984	1	0	0.509	0	82	0
9	1	344	0	2	2	0.0605	0.0984	1	1	0.486	9	82	0
9	1	345	0	1	1	0.0605	0.0984	0	1	0.250	10	0	0
9	1	346	0	2	2	0.0605	0.0984	1	1	0.321	10	82	0
9	1	347	0	1	3	0.0605	0.0984	0	1	0.341	10	0	0
9	1	348	0	2	3	0.0605	0.0984	1	1	0.308	10	82	0
9	1	349	9	2	2	0.0605	0.0984	0	1	0.438	0	82	82
9	1	350	1	2	3	0.0605	0.0984	0	1	0.529	82	82	82
9	1	351	1	1	3	0.0605	0.0984	0	1	0.342	100	82	82
9	1	352	0	2	3	0.0605	0.0984	0	1	0.290	10	0	0
9	1	353	0	1	3	0.0605	0.0984	1	0	0.321	0	0	82
9	1	354	1	1	1	0.0605	0.0984	1	1	0.347	100	82	0
9	1	355	0	2	2	0.0605	0.0984	1	0	0.264	0	82	0
9	1	356	1	1	1	0.0605	0.0984	0	1	0.448	90	82	82
9	1	357	1	2	3	0.0605	0.0984	1	1	0.494	86	0	82
9	1	358	1	2	3	0.0605	0.0984	1	0	0.324	0	0	82
9	1	359	1	2	3	0.0605	0.0984	0	1	0.419	93	82	82
9	1	360	9	2	2	0.0605	0.0984	0	1	0.351	0	0	0
9	1	361	1	2	2	0.0605	0.0984	1	1	0.428	92	0	82
9	1	362	1	1	2	0.0605	0.0984	0	1	0.274	100	82	82
9	1	363	0	1	3	0.0605	0.0984	0	1	0.319	10	0	0
9	1	364	0	1	3	0.0605	0.0984	0	1	0.300	10	0	0
9	1	365	1	1	1	0.0605	0.0984	0	1	0.298	100	82	82
9	1	366	0	2	2	0.0605	0.0984	1	1	0.583	8	82	0
9	1	367	0	2	1	0.0605	0.0984	1	0	0.298	0	82	0
9	1	368	0	1	3	0.0605	0.0984	0	0	0.661	0	0	0
9	1	369	0	2	3	0.0605	0.0984	0	0	0.997	0	0	0
9	1	370	1	2	2	0.0605	0.0984	0	1	0.640	71	82	82
9	1	371	1	1	3	0.0605	0.0984	1	1	0.648	70	82	0
9	1	372	0	1	3	0.0605	0.0984	0	1	0.508	8	0	0
9	1	373	1	1	2	0.0605	0.0984	0	1	0.302	100	82	82
9	1	374	1	2	2	0.0605	0.0984	1	0	0.303	0	0	82
9	1	375	0	1	3	0.0605	0.0984	0	1	0.779	6	0	0
9	1	376	0	2	1	0.0605	0.0984	0	0	0.646	0	0	0
9	1	377	1	2	3	0.0605	0.0984	1	1	1.417	50	0	82
9	1	378	0	2	2	0.0605	0.0984	1	1	1.055	5	82	0
9	1	379	1	2	2	0.0605	0.0984	0	1	0.481	87	82	82
9	1	380	1	1	1	0.0605	0.0984	1	1	0.527	82	82	0
9	1	381	1	1	3	0.0605	0.0984	0	1	0.385	97	82	82
9	1	382	1	1	1	0.0605	0.0984	1	1	0.390	96	82	0
9	1	383	1	2	2	0.0605	0.0984	1	0	0.280	0	0	82
9	1	384	0	1	3	0.0605	0.0984	0	1	0.565	8	0	0
9	1	385	0	1	1	0.0605	0.0984	0	0	0.277	0	0	0
9	1	386	1	2	3	0.0605	0.0984	0	1	0.289	100	82	82
9	1	387	0	1	2	0.0605	0.0984	1	0	-0.010	0	0	82
9	1	388	0	2	3	0.0605	0.0984	0	1	0.427	9	0	0
9	1	389	1	1	1	0.0605	0.0984	1	1	0.290	100	82	0
9	1	390	9	2	3	0.0605	0.0984	1	0	0.297	0	0	82
9	1	391	9	1	3	0.0605	0.0984	1	1	0.329	0	0	82
9	1	392	1	1	1	0.0605	0.0984	1	1	0.309	100	82	0
9	1	393	0	1	3	0.0605	0.0984	1	1	0.351	10	0	82
9	1	394	0	2	3	0.0605	0.0984	0	1	0.405	9	0	0
9	1	395	1	1	1	0.0605	0.0984	1	1	0.397	95	82	0
9	1	396	1	1	3	0.0605	0.0984	0	1	0.306	100	82	82
9	1	397	9	1	1	0.0605	0.0984	1	1	0.236	0	0	82
9	1	398	1	2	2	0.0605	0.0984	0	1	0.316	100	82	82
9	1	399	1	1	3	0.0605	0.0984	1	1	0.284	100	82	0
9	1	400	9	1	1	0.0605	0.0984	1	1	0.278	0	0	82
9	1	401	9	1	1	0.0605	0.0984	1	1	0.311	0	82	0
9	1	402	1	1	3	0.0605	0.0984	0	1	0.431	92	82	82
9	1	403	0	2	2	0.0605	0.0984	1	1	0.261	10	82	0
9	1	404	0	1	1	0.0605	0.0984	1	1	0.247	10	0	82
9	1	405	9	1	1	0.0605	0.0984	0	0	0.372	0	82	82
9	1	406	1	2	3	0.0605	0.0984	1	0	0.391	0	0	82
9	1	407	9	2	3	0.0605	0.0984	0	1	0.477	0	0	0
9	1	408	9	1	3	0.0605	0.0984	0	0	0.314	0	82	82
9	1	409	1	2	3	0.0605	0.0984	1	1	0.628	72	0	82
9	1	410	0	2	2	0.0605	0.0984	1	1	0.516	8	82	0
9	1	411	1	2	2	0.0605	0.0984	1	0	0.285	0	0	82
9	1	412	0	2	3	0.0605	0.0984	0	1	0.455	9	0	0
9	1	413	1	1	3	0.0605	0.0984	0	1	0.520	83	82	82
9	1	414	0	2	2	0.0605	0.0984	0	1	0.424	9	0	0
9	1	415	0	1	1	0.0605	0.0984	0	1	0.379	10	0	0
9	1	416	1	1	1	0.0605	0.0984	0	1	0.303	100	82	82
9	1	417	0	2	3	0.0605	0.0984	1	0	0.450	0	82	0
9	1	418	1	1	1	0.0605	0.0984	1	1	0.540	81	82	0
9	1	419	0	2	2	0.0605	0.0984	0	1	0.378	10	0	0
9	1	420	0	2	3	0.0605	0.0984	1	1	0.838	5	82	0
9	1	421	1	2	3	0.0605	0.0984	1	1	0.428	92	0	82
9	1	422	0	1	1	0.0605	0.0984	0	1	0.335	10	0	0
9	1	423	9	1	1	0.0605	0.0984	0	1	0.304	0	0	0
9	1	424	0	2	2	0.0605	0.0984	0	0	0.317	0	0	0
9	1	425	1	1	1	0.0605	0.0984	0	1	0.383	97	82	82
9	1	426	0	2	2	0.0605	0.0984	0	1	0.524	8	0	0
9	1	427	9	2	3	0.0605	0.0984	1	1	0.553	0	0	82
9	1	428	9	2	2	0.0605	0.0984	1	1	0.475	0	82	0
9	1	429	1	1	1	0.0605	0.0984	0	1	0.333	100	82	82
9	1	430	1	1	3	0.0605	0.0984	1	1	0.669	68	82	0
9	1	431	1	2	3	0.0605	0.0984	0	1	0.626	72	82	82
9	1	432	9	2	2	0.0605	0.0984	0	1	0.340	0	0	0
9	1	433	0	2	2	0.0605	0.0984	0	1	0.429	9	0	0
9	1	434	1	1	1	0.0605	0.0984	0	1	0.367	98	82	82
9	1	435	1	2	1	0.0605	0.0984	0	1	0.967	50	82	82
9	1	436	1	2	3	0.0605	0.0984	0	1	0.350	100	82	82
9	1	437	0	2	3	0.0605	0.0984	0	1	0.292	10	0	0
9	1	438	0	1	3	0.0605	0.0984	1	1	0.423	9	0	82
9	1	439	0	2	3	0.0605	0.0984	1	1	0.454	9	82	0
9	1	440	0	1	3	0.0605	0.0984	1	1	0.344	10	0	82
9	1	441	1	1	1	0.0605	0.0984	0	1	0.456	89	82	82
9	1	442	1	2	3	0.0605	0.0984	0	1	0.402	95	82	82
9	1	443	1	2	2	0.0605	0.0984	0	1	0.255	100	82	82
9	1	444	1	1	1	0.0605	0.0984	0	1	0.461	89	82	82
9	1	445	0	2	2	0.0605	0.0984	1	0	0.274	0	82	0
9	1	446	0	1	1	0.0605	0.0984	1	1	0.438	9	0	82
9	1	447	1	2	2	0.0605	0.0984	0	1	0.288	100	82	82
9	1	448	0	1	2	0.0605	0.0984	0	1	0.492	9	0	0
9	1	449	0	2	3	0.0605	0.0984	1	1	0.370	10	82	0
9	1	450	0	1	1	0.0605	0.0984	0	0	0.260	0	0	0
9	1	451	1	1	1	0.0605	0.0984	0	1	0.288	100	82	82
9	1	452	1	1	2	0.0605	0.0984	1	0	0.276	0	82	0
9	1	453	1	2	3	0.0605	0.0984	0	1	0.334	100	82	82
9	1	454	0	1	3	0.0605	0.0984	1	1	0.456	9	0	82
9	1	455	0	1	1	0.0605	0.0984	0	1	0.455	9	0	0
9	1	456	0	1	3	0.0605	0.0984	1	1	0.469	9	0	82
9	1	457	0	2	2	0.0605	0.0984	1	0	0.265	0	82	0
9	1	458	0	1	1	0.0605	0.0984	1	1	0.438	9	0	82
9	1	459	9	2	3	0.0605	0.0984	0	1	0.341	0	0	0
9	1	460	1	1	2	0.0605	0.0984	1	0	0.336	0	82	0
9	1	461	1	2	3	0.0605	0.0984	0	1	0.364	99	82	82
9	1	462	0	2	3	0.0605	0.0984	1	0	0.363	0	82	0
9	1	463	0	2	2	0.0605	0.0984	0	1	0.416	9	0	0
9	1	464	9	1	3	0.0605	0.0984	0	1	0.336	0	0	0
9	1	465	1	1	1	0.0605	0.0984	1	1	0.446	90	82	0
9	1	466	0	1	2	0.0605	0.0984	1	0	0.209	0	0	82
9	1	467	1	2	3	0.0605	0.0984	1	1	0.388	96	0	82
9	1	468	1	1	3	0.0605	0.0984	1	0	0.361	0	82	0
9	1	469	0	2	3	0.0605	0.0984	1	1	0.427	9	82	0
9	1	470	0	2	2	0.0605	0.0984	0	1	0.309	10	0	0
9	1	471	9	1	3	0.0605	0.0984	0	1	0.727	0	0	0
9	1	472	1	1	3	0.0605	0.0984	1	1	0.308	100	82	0
9	1	473	9	1	1	0.0605	0.0984	0	1	0.374	0	82	82
9	1	474	9	2	3	0.0605	0.0984	0	0	0.372	0	82	82
9	1	475	1	2	3	0.0605	0.0984	0	1	0.367	98	82	82
9	1	476	0	1	3	0.0605	0.0984	0	1	0.282	10	0	0
9	1	477	0	1	2	0.0605	0.0984	0	1	0.277	10	0	0
9	1	478	0	1	1	0.0605	0.0984	1	1	0.284	10	0	82
9	1	479	1	2	1	0.0605	0.0984	1	0	0.282	0	0	82
9	1	480	0	1	1	0.0605	0.0984	1	1	0.486	9	0	82
9	1	481	9	1	3	0.0605	0.0984	0	1	0.498	0	82	82
9	1	482	1	2	3	0.0605	0.0984	1	1	0.327	100	0	82
9	1	483	0	1	1	0.0605	0.0984	1	1	0.235	10	0	82
9	1	484	0	1	3	0.0605	0.0984	1	0	0.290	0	0	82
9	1	485	1	2	3	0.0605	0.0984	0	1	0.496	85	82	82
9	1	486	0	1	3	0.0605	0.0984	0	1	0.303	10	0	0
9	1	487	1	1	3	0.0605	0.0984	0	1	0.462	89	82	82
9	1	488	1	2	3	0.0605	0.0984	0	1	0.291	100	82	82
9	1	489	1	1	3	0.0605	0.0984	0	0	0.526	0	82	82
9	1	490	0	2	2	0.0605	0.0984	1	1	0.529	8	82	0
9	1	491	9	1	1	0.0605	0.0984	0	1	0.302	0	0	0
9	1	492	9	1	1	0.0605	0.0984	1	1	0.500	0	0	82
9	1	493	1	1	3	0.0605	0.0984	1	0	0.699	0	82	0
9	1	494	0	1	3	0.0605	0.0984	1	0	0.371	0	0	82
9	1	495	1	2	3	0.0605	0.0984	0	1	0.280	100	82	82
9	1	496	9	1	3	0.0605	0.0984	1	0	0.329	0	82	0
9	1	497	1	1	1	0.0605	0.0984	1	1	0.404	95	82	0
9	1	498	1	2	2	0.0605	0.0984	1	0	0.370	0	0	82
9	1	499	0	1	1	0.0605	0.0984	0	1	0.577	8	0	0
9	1	500	0	2	3	0.0605	0.0984	0	1	0.370	10	0	0
9	1	501	0	1	3	0.0605	0.0984	1	1	0.493	9	0	82
9	1	502	0	1	1	0.0605	0.0984	1	1	0.282	10	0	82
9	1	503	1	2	2	0.0605	0.0984	0	1	0.221	100	82	82
9	1	504	9	2	1	0.0605	0.0984	1	1	0.139	0	0	82
9	1	505	9	1	1	0.0605	0.0984	1	1	0.471	0	82	0
9	1	506	1	2	1	0.0605	0.0984	0	1	0.379	97	82	82
9	1	507	9	2	3	0.0605	0.0984	0	1	0.329	0	82	82
9	1	508	9	1	3	0.0605	0.0984	1	0	0.303	0	82	0
9	1	509	1	2	2	0.0605	0.0984	0	1	0.330	100	82	82
9	1	510	0	1	3	0.0605	0.0984	1	0	0.354	0	0	82
9	1	511	1	2	3	0.0605	0.0984	1	0	0.561	0	0	82
9	1	512	1	2	3	0.0605	0.0984	0	1	0.404	95	82	82
9	1	513	1	2	2	0.0605	0.0984	1	0	0.244	0	0	82
9	1	514	9	2	3	0.0605	0.0984	0	1	0.360	0	82	82
9	1	515	0	1	1	0.0605	0.0984	1	1	0.470	9	0	82
9	1	516	1	2	2	0.0605	0.0984	1	1	0.490	86	0	82
9	1	517	9	2	3	0.0605	0.0984	1	1	0.347	0	82	0
9	1	518	0	2	2	0.0605	0.0984	0	1	0.298	10	0	0
9	1	519	1	1	1	0.0605	0.0984	1	1	0.255	100	82	0
9	1	520	1	1	2	0.0605	0.0984	0	1	0.320	100	82	82
9	1	521	0	2	1	0.0605	0.0984	1	1	0.463	9	82	0
9	1	522	0	2	2	0.0605	0.0984	0	1	0.227	10	0	0
9	1	523	1	1	1	0.0605	0.0984	0	0	0.277	0	82	82
9	1	524	1	1	3	0.0605	0.0984	0	1	0.249	100	82	82
9	1	525	9	1	3	0.0605	0.0984	1	0	0.375	0	0	82
9	1	526	9	2	2	0.0605	0.0984	0	1	0.495	0	82	82
9	1	527	0	1	3	0.0605	0.0984	0	0	0.393	0	0	0
9	1	528	9	2	3	0.0605	0.0984	1	1	0.335	0	0	82
9	1	529	9	1	3	0.0605	0.0984	0	1	0.286	0	0	0
9	1	530	0	1	1	0.0605	0.0984	0	1	0.470	9	0	0
9	1	531	9	1	3	0.0605	0.0984	0	1	0.325	0	0	0
9	1	532	0	1	3	0.0605	0.0984	0	1	0.360	10	0	0
9	1	533	1	1	3	0.0605	0.0984	1	0	0.307	0	82	0
9	1	534	1	2	3	0.0605	0.0984	0	1	0.204	100	82	82
9	1	535	1	1	3	0.0605	0.0984	1	0	0.260	0	82	0
9	1	536	1	1	3	0.0605	0.0984	0	1	0.369	98	82	82
9	1	537	9	2	2	0.0605	0.0984	1	1	0.384	0	82	0
9	1	538	0	2	2	0.0605	0.0984	1	0	0.309	0	82	0
9	1	539	9	1	1	0.0605	0.0984	0	1	0.282	0	0	0
9	1	540	0	1	3	0.0605	0.0984	1	0	0.500	0	0	82
9	1	541	1	1	1	0.0605	0.0984	1	0	0.237	0	82	0
9	1	542	0	2	1	0.0605	0.0984	0	1	0.347	10	0	0
9	1	543	1	1	3	0.0605	0.0984	1	0	0.294	0	82	0
9	1	544	9	2	3	0.0605	0.0984	0	1	0.317	0	0	0
9	1	545	1	2	2	0.0605	0.0984	0	1	0.339	100	82	82
9	1	546	0	2	3	0.0605	0.0984	0	1	0.320	10	0	0
9	1	547	0	1	1	0.0605	0.0984	1	1	-0.019	10	0	82
9	1	548	1	2	3	0.0605	0.0984	1	0	0.225	0	0	82
9	1	549	0	2	3	0.0605	0.0984	1	0	0.272	0	82	0
9	1	550	9	2	2	0.0605	0.0984	0	1	0.307	0	0	0
9	1	551	0	2	3	0.0605	0.0984	1	1	0.318	10	82	0
9	1	552	0	1	3	0.0605	0.0984	1	1	0.364	10	0	82
9	1	553	1	1	3	0.0605	0.0984	0	1	0.641	71	82	82
9	1	554	0	2	2	0.0605	0.0984	1	0	0.267	0	82	0
9	1	555	0	2	2	0.0605	0.0984	1	0	0.305	0	82	0
9	1	556	0	1	3	0.0605	0.0984	1	1	0.394	10	0	82
9	1	557	9	1	2	0.0605	0.0984	1	0	0.118	0	0	82
9	1	558	1	1	3	0.0605	0.0984	1	1	0.360	99	82	0
9	1	559	1	1	3	0.0605	0.0984	1	1	0.313	100	82	0
9	1	560	0	2	1	0.0605	0.0984	1	1	0.315	10	82	0
9	1	561	0	1	3	0.0605	0.0984	0	1	0.286	10	0	0
9	1	562	0	1	3	0.0605	0.0984	0	1	0.311	10	0	0
9	1	563	0	2	2	0.0605	0.0984	1	0	0.258	0	82	0
9	1	564	1	2	2	0.0605	0.0984	1	0	-0.035	0	0	82
9	1	565	1	1	1	0.0605	0.0984	0	1	0.136	100	82	82
9	1	566	9	2	3	0.0605	0.0984	1	0	0.184	0	82	0
9	1	567	0	2	1	0.0605	0.0984	0	0	0.292	0	0	0
9	1	568	1	1	3	0.0605	0.0984	1	0	0.072	0	82	0
9	1	569	1	2	3	0.0605	0.0984	1	0	0.250	0	0	82
9	1	570	1	1	3	0.0605	0.0984	0	1	0.273	100	82	82
9	1	571	9	2	2	0.0605	0.0984	0	1	0.166	0	0	0
9	1	572	0	1	1	0.0605	0.0984	0	1	5.101	5	0	0
9	1	573	9	2	1	0.0605	0.0984	0	1	0.291	0	82	82
9	1	574	0	2	2	0.0605	0.0984	1	1	0.269	10	82	0
9	1	575	9	1	2	0.0605	0.0984	0	1	0.249	0	0	0
9	1	576	1	1	1	0.0605	0.0984	1	1	0.567	78	82	0
9	1	577	1	1	2	0.0605	0.0984	0	1	0.325	100	82	82
9	1	578	1	2	2	0.0605	0.0984	1	1	0.354	100	0	82
9	1	579	1	1	1	0.0605	0.0984	0	1	0.307	100	82	82
9	1	580	0	2	3	0.0605	0.0984	0	1	0.306	10	0	0
9	1	581	0	2	3	0.0605	0.0984	1	0	0.245	0	82	0
9	1	582	0	2	3	0.0605	0.0984	0	1	0.243	10	0	0
9	1	583	0	1	1	0.0605	0.0984	0	1	0.052	10	0	0
9	1	584	9	2	2	0.0605	0.0984	0	0	0.260	0	82	82
9	1	585	9	2	1	0.0605	0.0984	1	0	0.266	0	82	0
9	1	586	9	2	2	0.0605	0.0984	1	1	0.698	0	0	82
9	1	587	1	1	3	0.0605	0.0984	1	0	0.380	0	82	0
9	1	588	0	1	1	0.0605	0.0984	1	0	0.285	0	0	82
9	1	589	0	1	1	0.0605	0.0984	0	1	0.203	10	0	0
9	1	590	1	1	1	0.0605	0.0984	0	1	0.232	100	82	82
9	1	591	1	1	1	0.0605	0.0984	1	0	0.230	0	82	0
9	1	592	0	2	2	0.0605	0.0984	1	0	0.137	0	82	0
9	1	593	1	1	1	0.0605	0.0984	0	1	0.120	100	82	82
9	1	594	9	2	3	0.0605	0.0984	0	1	0.251	0	0	0
9	1	595	1	2	3	0.0605	0.0984	1	0	0.262	0	0	82
9	1	596	0	1	3	0.0605	0.0984	0	1	0.172	10	0	0
9	1	597	1	1	3	0.0605	0.0984	1	0	0.273	0	82	0
9	1	598	1	2	3	0.0605	0.0984	1	0	0.346	0	0	82
9	1	599	1	2	3	0.0605	0.0984	1	0	0.278	0	0	82
9	1	600	0	2	3	0.0605	0.0984	1	1	0.418	9	82	0
9	1	601	9	1	1	0.0605	0.0984	0	1	0.075	0	82	82
9	1	602	9	2	2	0.0605	0.0984	1	0	0.194	0	82	0
9	1	603	9	1	3	0.0605	0.0984	1	1	0.335	0	0	82
9	1	604	0	2	3	0.0605	0.0984	1	0	0.224	0	82	0
9	1	605	0	2	2	0.0605	0.0984	0	1	0.129	10	0	0
9	1	606	0	1	3	0.0605	0.0984	1	0	0.293	0	0	82
9	1	607	0	2	3	0.0605	0.0984	0	1	0.241	10	0	0
9	1	608	1	2	2	0.0605	0.0984	1	0	0.239	0	0	82
9	1	609	0	1	3	0.0605	0.0984	1	0	0.184	0	0	82
9	1	610	0	2	2	0.0605	0.0984	0	1	0.203	10	0	0
9	1	611	1	2	2	0.0605	0.0984	0	1	0.154	100	82	82
9	1	612	0	2	3	0.0605	0.0984	0	1	0.180	10	0	0
9	1	613	0	1	3	0.0605	0.0984	1	0	0.118	0	0	82
9	1	614	0	2	2	0.0605	0.0984	1	0	0.069	0	82	0
9	1	615	0	2	2	0.0605	0.0984	0	1	0.143	10	0	0
9	1	616	9	2	3	0.0605	0.0984	0	0	0.264	0	82	82
9	1	617	1	1	3	0.0605	0.0984	1	0	0.322	0	82	0
9	1	618	9	2	2	0.0605	0.0984	0	1	0.166	0	82	82
9	1	619	1	2	3	0.0605	0.0984	0	0	0.406	0	82	82
9	1	620	9	1	1	0.0605	0.0984	1	0	0.162	0	0	82
9	1	621	0	1	2	0.0605	0.0984	1	0	0.209	0	0	82
9	1	622	0	2	2	0.0605	0.0984	0	1	0.116	10	0	0
9	1	623	1	2	3	0.0605	0.0984	1	1	0.189	100	0	82
9	1	624	1	1	1	0.0605	0.0984	1	0	0.125	0	82	0
9	1	625	0	2	3	0.0605	0.0984	1	0	0.265	0	82	0
9	1	626	1	2	2	0.0605	0.0984	0	1	0.323	100	82	82
9	1	627	0	2	3	0.0605	0.0984	0	1	0.167	10	0	0
9	1	628	1	2	1	0.0605	0.0984	0	1	0.136	100	82	82
9	1	629	1	2	1	0.0605	0.0984	1	0	0.211	0	0	82
9	1	630	1	2	2	0.0605	0.0984	0	1	0.230	100	82	82
9	1	631	9	1	1	0.0605	0.0984	1	0	0.188	0	82	0
9	1	632	0	2	3	0.0605	0.0984	0	1	0.274	10	0	0
9	1	633	0	1	1	0.0605	0.0984	0	0	0.314	0	0	0
9	1	634	0	2	3	0.0605	0.0984	1	0	0.201	0	82	0
9	1	635	1	1	3	0.0605	0.0984	0	0	0.256	0	82	82
9	1	636	9	2	2	0.0605	0.0984	1	0	0.151	0	0	82
9	1	637	0	1	1	0.0605	0.0984	0	1	0.841	5	0	0
9	1	638	0	2	3	0.0605	0.0984	0	1	0.370	10	0	0
9	1	639	0	1	1	0.0605	0.0984	1	0	0.076	0	0	82
9	1	640	1	1	1	0.0605	0.0984	0	1	0.122	100	82	82
9	1	641	9	2	3	0.0605	0.0984	1	0	0.212	0	82	0
9	1	642	0	2	3	0.0605	0.0984	1	0	0.278	0	82	0
9	1	643	9	2	1	0.0605	0.0984	0	1	0.238	0	0	0
9	1	644	0	1	1	0.0605	0.0984	0	1	0.210	10	0	0
9	1	645	1	2	2	0.0605	0.0984	1	0	0.140	0	0	82
9	1	646	1	2	1	0.0605	0.0984	1	0	0.285	0	0	82
9	1	647	9	1	3	0.0605	0.0984	1	0	0.106	0	82	0
9	1	648	0	2	3	0.0605	0.0984	0	1	0.256	10	0	0
9	1	649	9	2	2	0.0605	0.0984	0	1	0.264	0	82	82
9	1	650	1	2	1	0.0605	0.0984	1	0	0.186	0	0	82
9	1	651	9	2	2	0.0605	0.0984	1	0	0.303	0	0	82
9	1	652	9	1	2	0.0605	0.0984	0	1	0.135	0	82	82
9	1	653	0	2	3	0.0605	0.0984	1	0	0.331	0	82	0
9	1	654	0	1	3	0.0605	0.0984	0	1	0.315	10	0	0
9	1	655	1	2	2	0.0605	0.0984	1	0	0.220	0	0	82
9	1	656	0	1	1	0.0605	0.0984	1	0	0.254	0	0	82
9	1	657	0	1	1	0.0605	0.0984	0	1	0.288	10	0	0
9	1	658	1	1	3	0.0605	0.0984	1	0	0.251	0	82	0
9	1	659	1	2	2	0.0605	0.0984	0	1	0.227	100	82	82
9	1	660	0	2	2	0.0605	0.0984	1	1	0.348	10	82	0
9	1	661	0	2	2	0.0605	0.0984	0	1	0.233	10	0	0
9	1	662	9	1	2	0.0605	0.0984	1	1	0.485	0	82	0
9	1	663	1	2	2	0.0605	0.0984	0	1	0.261	100	82	82
9	1	664	1	1	3	0.0605	0.0984	0	1	0.292	100	82	82
9	1	665	1	1	1	0.0605	0.0984	1	1	0.251	100	82	0
9	1	666	1	1	1	0.0605	0.0984	1	1	0.290	100	82	0
9	1	667	0	2	2	0.0605	0.0984	0	1	0.302	10	0	0
9	1	668	0	2	1	0.0605	0.0984	1	1	0.351	10	82	0
9	1	669	0	1	1	0.0605	0.0984	1	0	0.278	0	0	82
9	1	670	0	1	3	0.0605	0.0984	0	1	0.240	10	0	0
9	1	671	9	2	3	0.0605	0.0984	1	1	0.393	0	82	0
9	1	672	0	2	3	0.0605	0.0984	0	1	0.125	10	0	0
9	1	673	0	1	1	0.0605	0.0984	0	1	0.238	10	0	0
9	1	674	1	2	2	0.0605	0.0984	0	1	0.182	100	82	82
9	1	675	1	2	3	0.0605	0.0984	1	0	0.230	0	0	82
9	1	676	9	1	3	0.0605	0.0984	0	0	0.241	0	82	82
9	1	677	0	1	1	0.0605	0.0984	1	0	0.184	0	0	82
9	1	678	9	2	2	0.0605	0.0984	1	0	-0.133	0	82	0
9	1	679	1	2	3	0.0605	0.0984	1	1	0.311	100	0	82
9	1	680	1	2	3	0.0605	0.0984	0	1	0.242	100	82	82
9	1	681	1	1	1	0.0605	0.0984	1	0	0.337	0	82	0
9	1	682	1	1	3	0.0605	0.0984	0	1	0.228	100	82	82
9	1	683	9	1	1	0.0605	0.0984	0	0	0.183	0	0	0
9	1	684	0	2	1	0.0605	0.0984	0	1	0.252	10	0	0
9	1	685	0	1	2	0.0605	0.0984	1	0	0.255	0	0	82
9	1	686	0	1	2	0.0605	0.0984	0	1	0.135	10	0	0
9	1	687	9	1	1	0.0605	0.0984	0	1	0.409	0	82	82
9	1	688	1	2	2	0.0605	0.0984	0	1	0.276	100	82	82
9	1	689	0	2	2	0.0605	0.0984	1	1	0.474	9	82	0
9	1	690	1	1	3	0.0605	0.0984	0	1	0.202	100	82	82
9	1	691	0	1	2	0.0605	0.0984	0	1	0.271	10	0	0
9	1	692	0	1	3	0.0605	0.0984	0	1	0.274	10	0	0
9	1	693	0	1	1	0.0605	0.0984	0	1	0.294	10	0	0
9	1	694	9	1	3	0.0605	0.0984	1	1	0.429	0	82	0
9	1	695	1	1	3	0.0605	0.0984	0	1	0.193	100	82	82
9	1	696	0	1	3	0.0605	0.0984	1	0	0.160	0	0	82
9	1	697	1	1	2	0.0605	0.0984	1	0	0.184	0	82	0
9	1	698	1	2	1	0.0605	0.0984	0	0	0.095	0	82	82
9	1	699	1	1	3	0.0605	0.0984	0	1	0.282	100	82	82
9	1	700	1	2	3	0.0605	0.0984	1	0	0.483	0	0	82
9	1	701	0	1	1	0.0605	0.0984	1	1	0.384	10	0	82
9	1	702	9	1	3	0.0605	0.0984	0	1	0.305	0	82	82
9	1	703	1	2	3	0.0605	0.0984	0	1	0.420	93	82	82
9	1	704	1	1	1	0.0605	0.0984	0	1	0.294	100	82	82
9	1	705	1	1	2	0.0605	0.0984	1	1	0.496	85	82	0
9	1	706	1	2	3	0.0605	0.0984	0	1	0.286	100	82	82
9	1	707	9	1	3	0.0605	0.0984	1	1	0.410	0	0	82
9	1	708	0	2	3	0.0605	0.0984	1	0	0.508	0	82	0
9	1	709	1	1	1	0.0605	0.0984	0	1	0.291	100	82	82
9	1	710	9	2	3	0.0605	0.0984	1	0	0.286	0	0	82
9	1	711	1	2	2	0.0605	0.0984	1	0	0.236	0	0	82
9	1	712	9	2	2	0.0605	0.0984	0	1	0.282	0	0	0
9	1	713	0	1	1	0.0605	0.0984	1	0	0.299	0	0	82
9	1	714	1	2	2	0.0605	0.0984	1	0	0.306	0	0	82
9	1	715	9	1	1	0.0605	0.0984	1	0	0.255	0	82	0
9	1	716	1	2	2	0.0605	0.0984	1	0	0.529	0	0	82
9	1	717	9	2	2	0.0605	0.0984	1	1	0.442	0	0	82
9	1	718	1	2	2	0.0605	0.0984	0	1	0.261	100	82	82
9	1	719	0	2	2	0.0605	0.0984	0	1	0.325	10	0	0
9	1	720	1	2	2	0.0605	0.0984	1	0	0.241	0	0	82
