sub	sess	t	rew	loc	cue	co1	co2	or	resp	rt	rew_tot	left_col	right_col
103	1	1	0	1	2	0.5717	0.0500	1	1	1.498	5	0	82
103	1	2	9	1	3	0.5717	0.0500	0	1	0.937	0	0	0
103	1	3	9	1	1	0.5717	0.0500	1	1	0.758	0	82	0
103	1	4	0	2	2	0.5717	0.0500	0	1	0.965	5	0	0
103	1	5	0	2	3	0.5717	0.0500	0	0	0.888	0	0	0
103	1	6	1	2	3	0.5717	0.0500	0	1	1.161	50	82	82
103	1	7	1	2	3	0.5717	0.0500	1	1	0.941	50	0	82
103	1	8	0	1	3	0.5717	0.0500	1	1	0.737	6	0	82
103	1	9	9	1	3	0.5717	0.0500	0	1	0.559	0	0	0
103	1	10	0	2	2	0.5717	0.0500	0	1	1.021	5	0	0
103	1	11	0	2	2	0.5717	0.0500	1	1	0.578	8	82	0
103	1	12	0	1	1	0.5717	0.0500	1	1	0.744	6	0	82
103	1	13	1	1	2	0.5717	0.0500	0	1	0.686	66	82	82
103	1	14	1	2	2	0.5717	0.0500	0	1	0.633	72	82	82
103	1	15	1	2	3	0.5717	0.0500	1	1	0.854	50	0	82
103	1	16	9	2	2	0.5717	0.0500	0	0	0.850	0	0	0
103	1	17	0	1	1	0.5717	0.0500	1	1	1.025	5	0	82
103	1	18	9	1	1	0.5717	0.0500	0	0	0.677	0	0	0
103	1	19	0	2	3	0.5717	0.0500	1	1	0.636	7	82	0
103	1	20	9	2	3	0.5717	0.0500	1	1	0.665	0	0	82
103	1	21	0	1	1	0.5717	0.0500	0	1	2.044	5	0	0
103	1	22	0	1	3	0.5717	0.0500	1	1	0.780	6	0	82
103	1	23	0	1	3	0.5717	0.0500	0	1	0.564	8	0	0
103	1	24	0	2	3	0.5717	0.0500	1	1	0.909	5	82	0
103	1	25	0	1	3	0.5717	0.0500	0	1	0.606	7	0	0
103	1	26	0	1	1	0.5717	0.0500	1	1	0.693	7	0	82
103	1	27	1	2	2	0.5717	0.0500	1	1	0.705	64	0	82
103	1	28	0	1	3	0.5717	0.0500	1	1	0.979	5	0	82
103	1	29	1	2	1	0.5717	0.0500	1	1	0.971	50	0	82
103	1	30	0	1	3	0.5717	0.0500	0	1	0.561	8	0	0
103	1	31	9	1	3	0.5717	0.0500	0	1	0.553	0	0	0
103	1	32	0	2	1	0.5717	0.0500	0	0	0.695	0	0	0
103	1	33	0	1	3	0.5717	0.0500	0	1	0.501	8	0	0
103	1	34	1	2	3	0.5717	0.0500	0	1	0.691	66	82	82
103	1	35	0	1	1	0.5717	0.0500	0	1	0.698	7	0	0
103	1	36	1	2	3	0.5717	0.0500	1	1	0.908	50	0	82
103	1	37	1	2	1	0.5717	0.0500	1	1	0.755	60	0	82
103	1	38	9	2	3	0.5717	0.0500	0	1	0.534	0	0	0
103	1	39	0	2	3	0.5717	0.0500	0	1	0.651	7	0	0
103	1	40	1	2	3	0.5717	0.0500	1	1	0.672	68	0	82
103	1	41	9	1	1	0.5717	0.0500	1	0	0.669	0	0	82
103	1	42	0	2	2	0.5717	0.0500	0	1	0.646	7	0	0
103	1	43	1	1	2	0.5717	0.0500	0	0	0.936	0	82	82
103	1	44	1	1	3	0.5717	0.0500	1	1	0.716	63	82	0
103	1	45	0	2	1	0.5717	0.0500	1	1	0.506	8	82	0
103	1	46	9	2	2	0.5717	0.0500	0	1	0.755	0	0	0
103	1	47	0	1	3	0.5717	0.0500	0	1	0.828	5	0	0
103	1	48	0	1	2	0.5717	0.0500	1	1	0.697	7	0	82
103	1	49	1	2	3	0.5717	0.0500	1	0	0.693	0	0	82
103	1	50	0	1	1	0.5717	0.0500	1	1	0.911	5	0	82
103	1	51	0	1	1	0.5717	0.0500	1	1	1.066	5	0	82
103	1	52	1	1	1	0.5717	0.0500	0	1	0.537	81	82	82
103	1	53	9	1	3	0.5717	0.0500	1	1	0.684	0	0	82
103	1	54	9	2	1	0.5717	0.0500	1	1	1.085	0	82	0
103	1	55	0	1	3	0.5717	0.0500	1	1	0.678	7	0	82
103	1	56	1	1	3	0.5717	0.0500	0	0	0.697	0	82	82
103	1	57	9	1	1	0.5717	0.0500	0	1	0.551	0	82	82
103	1	58	9	1	2	0.5717	0.0500	0	1	0.792	0	82	82
103	1	59	9	2	3	0.5717	0.0500	1	1	1.085	0	82	0
103	1	60	1	1	3	0.5717	0.0500	1	1	0.754	60	82	0
103	1	61	1	2	2	0.5717	0.0500	1	1	0.959	50	0	82
103	1	62	1	1	3	0.5717	0.0500	1	1	0.940	50	82	0
103	1	63	0	2	3	0.5717	0.0500	0	1	0.682	7	0	0
103	1	64	1	1	3	0.5717	0.0500	1	1	0.909	50	82	0
103	1	65	1	1	1	0.5717	0.0500	0	1	0.498	85	82	82
103	1	66	9	1	1	0.5717	0.0500	0	1	0.566	0	82	82
103	1	67	0	2	2	0.5717	0.0500	0	0	0.820	0	0	0
103	1	68	1	1	3	0.5717	0.0500	0	1	0.599	75	82	82
103	1	69	0	2	3	0.5717	0.0500	1	1	0.882	5	82	0
103	1	70	1	2	2	0.5717	0.0500	1	1	0.837	51	0	82
103	1	71	1	2	2	0.5717	0.0500	1	1	0.720	63	0	82
103	1	72	0	2	3	0.5717	0.0500	1	0	0.800	0	82	0
103	1	73	1	2	3	0.5717	0.0500	0	1	1.085	50	82	82
103	1	74	9	1	1	0.5717	0.0500	1	1	0.946	0	82	0
103	1	75	0	2	2	0.5717	0.0500	1	1	0.720	6	82	0
103	1	76	0	2	3	0.5717	0.0500	0	1	0.632	7	0	0
103	1	77	9	2	1	0.5717	0.0500	0	0	0.914	0	82	82
103	1	78	1	1	1	0.5717	0.0500	1	1	0.715	63	82	0
103	1	79	1	1	2	0.5717	0.0500	1	1	0.712	64	82	0
103	1	80	9	1	3	0.5717	0.0500	1	1	0.530	0	0	82
103	1	81	0	2	2	0.5717	0.0500	0	1	0.857	5	0	0
103	1	82	1	2	3	0.5717	0.0500	1	0	0.868	0	0	82
103	1	83	0	1	1	0.5717	0.0500	0	1	0.677	7	0	0
103	1	84	1	2	2	0.5717	0.0500	0	0	1.036	0	82	82
103	1	85	0	2	3	0.5717	0.0500	0	1	0.681	7	0	0
103	1	86	9	2	3	0.5717	0.0500	1	1	0.516	0	82	0
103	1	87	1	2	3	0.5717	0.0500	1	1	0.623	73	0	82
103	1	88	0	2	3	0.5717	0.0500	1	1	0.453	9	82	0
103	1	89	9	1	1	0.5717	0.0500	1	0	0.917	0	0	82
103	1	90	1	2	2	0.5717	0.0500	1	1	0.583	77	0	82
103	1	91	9	1	1	0.5717	0.0500	1	1	0.593	0	82	0
103	1	92	1	1	3	0.5717	0.0500	1	1	0.563	79	82	0
103	1	93	0	2	2	0.5717	0.0500	1	1	0.695	7	82	0
103	1	94	0	2	1	0.5717	0.0500	1	1	0.554	8	82	0
103	1	95	1	2	3	0.5717	0.0500	1	1	0.548	80	0	82
103	1	96	1	1	2	0.5717	0.0500	1	0	0.692	0	82	0
103	1	97	1	2	3	0.5717	0.0500	0	1	0.870	50	82	82
103	1	98	1	1	1	0.5717	0.0500	0	1	0.564	79	82	82
103	1	99	1	1	1	0.5717	0.0500	0	1	0.583	77	82	82
103	1	100	9	2	2	0.5717	0.0500	1	1	0.657	0	0	82
103	1	101	1	2	3	0.5717	0.0500	1	1	0.582	77	0	82
103	1	102	0	2	3	0.5717	0.0500	1	1	0.601	7	82	0
103	1	103	9	1	1	0.5717	0.0500	0	1	0.840	0	82	82
103	1	104	1	2	2	0.5717	0.0500	0	0	0.665	0	82	82
103	1	105	1	2	2	0.5717	0.0500	1	1	0.537	81	0	82
103	1	106	0	1	1	0.5717	0.0500	0	1	0.605	7	0	0
103	1	107	0	1	3	0.5717	0.0500	1	1	0.757	6	0	82
103	1	108	0	1	1	0.5717	0.0500	1	1	1.052	5	0	82
103	1	109	0	2	2	0.5717	0.0500	0	1	0.593	8	0	0
103	1	110	1	1	1	0.5717	0.0500	1	1	0.734	62	82	0
103	1	111	0	1	1	0.5717	0.0500	1	1	0.529	8	0	82
103	1	112	1	2	2	0.5717	0.0500	1	1	0.550	80	0	82
103	1	113	9	2	3	0.5717	0.0500	0	1	0.589	0	82	82
103	1	114	1	1	3	0.5717	0.0500	0	1	0.824	53	82	82
103	1	115	9	2	3	0.5717	0.0500	0	1	0.942	0	82	82
103	1	116	9	1	3	0.5717	0.0500	1	1	0.906	0	82	0
103	1	117	1	1	1	0.5717	0.0500	1	1	0.682	67	82	0
103	1	118	9	2	2	0.5717	0.0500	0	1	0.624	0	82	82
103	1	119	1	2	1	0.5717	0.0500	0	1	0.615	73	82	82
103	1	120	0	1	1	0.5717	0.0500	0	1	0.514	8	0	0
103	1	121	1	2	2	0.5717	0.0500	1	0	0.735	0	0	82
103	1	122	1	1	1	0.5717	0.0500	0	1	0.561	79	82	82
103	1	123	1	2	3	0.5717	0.0500	0	1	0.946	50	82	82
103	1	124	0	2	3	0.5717	0.0500	1	1	0.685	7	82	0
103	1	125	0	2	3	0.5717	0.0500	0	1	0.699	7	0	0
103	1	126	0	1	3	0.5717	0.0500	1	1	0.781	6	0	82
103	1	127	9	1	2	0.5717	0.0500	1	1	0.674	0	0	82
103	1	128	0	2	3	0.5717	0.0500	0	1	0.599	8	0	0
103	1	129	0	1	1	0.5717	0.0500	0	1	0.610	7	0	0
103	1	130	1	1	1	0.5717	0.0500	0	1	0.487	86	82	82
103	1	131	0	2	2	0.5717	0.0500	0	1	0.650	7	0	0
103	1	132	0	1	3	0.5717	0.0500	1	1	0.578	8	0	82
103	1	133	0	1	3	0.5717	0.0500	1	1	0.546	8	0	82
103	1	134	0	1	1	0.5717	0.0500	1	1	0.599	8	0	82
103	1	135	1	2	2	0.5717	0.0500	0	1	0.675	68	82	82
103	1	136	9	2	3	0.5717	0.0500	0	1	0.539	0	0	0
103	1	137	1	1	3	0.5717	0.0500	1	1	0.870	50	82	0
103	1	138	0	2	2	0.5717	0.0500	0	1	0.891	5	0	0
103	1	139	9	2	3	0.5717	0.0500	0	1	0.855	0	82	82
103	1	140	9	1	3	0.5717	0.0500	1	0	0.873	0	0	82
103	1	141	1	2	2	0.5717	0.0500	0	1	1.219	50	82	82
103	1	142	1	2	3	0.5717	0.0500	0	0	0.852	0	82	82
103	1	143	1	1	3	0.5717	0.0500	1	0	0.909	0	82	0
103	1	144	9	2	2	0.5717	0.0500	1	1	0.620	0	0	82
103	1	145	0	2	2	0.5717	0.0500	0	1	0.557	8	0	0
103	1	146	0	1	1	0.5717	0.0500	0	1	0.529	8	0	0
103	1	147	0	1	1	0.5717	0.0500	0	1	0.520	8	0	0
103	1	148	9	2	1	0.5717	0.0500	0	1	0.795	0	0	0
103	1	149	1	2	2	0.5717	0.0500	0	1	0.976	50	82	82
103	1	150	1	1	3	0.5717	0.0500	0	0	0.929	0	82	82
103	1	151	9	1	3	0.5717	0.0500	1	1	1.976	0	82	0
103	1	152	0	2	1	0.5717	0.0500	1	1	0.675	7	82	0
103	1	153	1	2	2	0.5717	0.0500	0	1	1.020	50	82	82
103	1	154	1	1	1	0.5717	0.0500	1	0	0.918	0	82	0
103	1	155	1	1	3	0.5717	0.0500	1	0	0.653	0	82	0
103	1	156	0	1	3	0.5717	0.0500	0	1	0.655	7	0	0
103	1	157	0	2	1	0.5717	0.0500	0	1	0.527	8	0	0
103	1	158	9	2	3	0.5717	0.0500	1	1	0.613	0	0	82
103	1	159	1	2	2	0.5717	0.0500	1	1	0.561	79	0	82
103	1	160	9	2	3	0.5717	0.0500	1	1	0.572	0	82	0
103	1	161	1	2	2	0.5717	0.0500	0	1	1.265	50	82	82
103	1	162	9	1	3	0.5717	0.0500	1	0	0.637	0	82	0
103	1	163	9	2	1	0.5717	0.0500	1	1	1.138	0	0	82
103	1	164	0	1	1	0.5717	0.0500	0	1	0.608	7	0	0
103	1	165	0	1	3	0.5717	0.0500	0	1	0.552	8	0	0
103	1	166	0	2	3	0.5717	0.0500	1	1	1.149	5	82	0
103	1	167	1	2	3	0.5717	0.0500	1	1	0.584	77	0	82
103	1	168	1	2	2	0.5717	0.0500	0	1	0.847	50	82	82
103	1	169	0	1	3	0.5717	0.0500	0	1	0.648	7	0	0
103	1	170	9	2	3	0.5717	0.0500	0	0	0.610	0	0	0
103	1	171	0	2	2	0.5717	0.0500	0	0	0.665	0	0	0
103	1	172	1	2	1	0.5717	0.0500	1	1	0.658	69	0	82
103	1	173	0	2	3	0.5717	0.0500	1	1	0.641	7	82	0
103	1	174	1	1	3	0.5717	0.0500	1	0	0.591	0	82	0
103	1	175	0	1	3	0.5717	0.0500	1	1	1.095	5	0	82
103	1	176	1	2	2	0.5717	0.0500	1	1	0.667	68	0	82
103	1	177	1	1	3	0.5717	0.0500	0	1	0.555	79	82	82
103	1	178	0	2	3	0.5717	0.0500	1	0	0.607	0	82	0
103	1	179	0	2	3	0.5717	0.0500	0	0	0.691	0	0	0
103	1	180	9	1	3	0.5717	0.0500	0	1	1.207	0	0	0
103	1	181	0	1	1	0.5717	0.0500	1	0	0.663	0	0	82
103	1	182	0	2	3	0.5717	0.0500	1	1	0.590	8	82	0
103	1	183	1	2	3	0.5717	0.0500	1	1	0.657	69	0	82
103	1	184	1	1	1	0.5717	0.0500	0	0	0.830	0	82	82
103	1	185	9	1	1	0.5717	0.0500	1	1	0.574	0	82	0
103	1	186	0	1	1	0.5717	0.0500	1	1	0.643	7	0	82
103	1	187	9	1	2	0.5717	0.0500	1	1	1.869	0	82	0
103	1	188	1	1	2	0.5717	0.0500	0	1	0.590	76	82	82
103	1	189	9	2	3	0.5717	0.0500	1	1	0.668	0	0	82
103	1	190	1	2	2	0.5717	0.0500	0	1	0.619	73	82	82
103	1	191	9	2	2	0.5717	0.0500	1	1	0.572	0	82	0
103	1	192	0	2	3	0.5717	0.0500	0	0	0.727	0	0	0
103	1	193	1	1	3	0.5717	0.0500	0	1	0.860	50	82	82
103	1	194	1	2	3	0.5717	0.0500	1	0	0.801	0	0	82
103	1	195	1	1	3	0.5717	0.0500	1	0	0.741	0	82	0
103	1	196	1	1	1	0.5717	0.0500	0	1	0.510	84	82	82
103	1	197	1	1	1	0.5717	0.0500	0	1	0.495	85	82	82
103	1	198	0	1	3	0.5717	0.0500	0	1	0.440	9	0	0
103	1	199	1	1	2	0.5717	0.0500	1	0	0.933	0	82	0
103	1	200	0	2	2	0.5717	0.0500	1	0	1.027	0	82	0
103	1	201	1	1	3	0.5717	0.0500	0	1	0.590	76	82	82
103	1	202	1	1	3	0.5717	0.0500	0	1	0.494	86	82	82
103	1	203	0	2	3	0.5717	0.0500	0	0	0.643	0	0	0
103	1	204	1	2	2	0.5717	0.0500	1	0	1.279	0	0	82
103	1	205	1	2	3	0.5717	0.0500	0	0	1.083	0	82	82
103	1	206	9	2	3	0.5717	0.0500	0	0	1.328	0	0	0
103	1	207	0	2	3	0.5717	0.0500	1	0	0.697	0	82	0
103	1	208	0	2	3	0.5717	0.0500	0	0	1.100	0	0	0
103	1	209	0	1	3	0.5717	0.0500	0	0	0.998	0	0	0
103	1	210	0	2	2	0.5717	0.0500	1	0	0.742	0	82	0
103	1	211	9	1	3	0.5717	0.0500	1	0	1.148	0	82	0
103	1	212	0	1	2	0.5717	0.0500	1	1	0.797	6	0	82
103	1	213	1	1	1	0.5717	0.0500	1	1	0.620	73	82	0
103	1	214	0	2	3	0.5717	0.0500	1	1	0.618	7	82	0
103	1	215	0	1	3	0.5717	0.0500	1	1	0.539	8	0	82
103	1	216	0	1	1	0.5717	0.0500	0	1	0.601	7	0	0
103	1	217	1	1	1	0.5717	0.0500	1	1	0.699	65	82	0
103	1	218	1	2	1	0.5717	0.0500	0	1	0.913	50	82	82
103	1	219	0	1	3	0.5717	0.0500	0	1	0.548	8	0	0
103	1	220	1	2	3	0.5717	0.0500	0	0	0.806	0	82	82
103	1	221	1	2	3	0.5717	0.0500	0	0	0.628	0	82	82
103	1	222	1	1	3	0.5717	0.0500	1	1	0.725	63	82	0
103	1	223	1	1	1	0.5717	0.0500	0	1	0.463	89	82	82
103	1	224	1	1	1	0.5717	0.0500	1	1	0.589	76	82	0
103	1	225	1	2	1	0.5717	0.0500	0	1	0.734	62	82	82
103	1	226	0	1	3	0.5717	0.0500	1	1	0.673	7	0	82
103	1	227	1	1	1	0.5717	0.0500	1	1	0.546	80	82	0
103	1	228	0	1	1	0.5717	0.0500	1	1	0.521	8	0	82
103	1	229	1	1	1	0.5717	0.0500	0	1	0.489	86	82	82
103	1	230	1	2	1	0.5717	0.0500	1	1	0.699	65	0	82
103	1	231	0	1	3	0.5717	0.0500	1	1	0.683	7	0	82
103	1	232	9	1	1	0.5717	0.0500	0	1	0.453	0	82	82
103	1	233	9	1	1	0.5717	0.0500	0	1	0.444	0	0	0
103	1	234	1	1	3	0.5717	0.0500	0	1	0.395	95	82	82
103	1	235	0	2	3	0.5717	0.0500	1	1	1.028	5	82	0
103	1	236	9	1	3	0.5717	0.0500	0	1	0.446	0	82	82
103	1	237	9	2	2	0.5717	0.0500	0	0	1.042	0	0	0
103	1	238	0	1	3	0.5717	0.0500	1	1	0.950	5	0	82
103	1	239	9	2	2	0.5717	0.0500	0	1	0.730	0	82	82
103	1	240	1	1	2	0.5717	0.0500	1	1	0.520	83	82	0
103	1	241	1	1	1	0.5717	0.0500	0	1	0.455	90	82	82
103	1	242	1	2	3	0.5717	0.0500	0	0	0.886	0	82	82
103	1	243	0	2	3	0.5717	0.0500	0	1	0.600	8	0	0
103	1	244	1	1	1	0.5717	0.0500	1	1	0.751	60	82	0
103	1	245	0	2	2	0.5717	0.0500	1	1	0.699	7	82	0
103	1	246	0	2	2	0.5717	0.0500	1	1	0.592	8	82	0
103	1	247	0	2	2	0.5717	0.0500	0	0	0.582	0	0	0
103	1	248	1	1	1	0.5717	0.0500	1	1	0.780	57	82	0
103	1	249	1	1	3	0.5717	0.0500	0	1	0.506	84	82	82
103	1	250	9	2	2	0.5717	0.0500	1	1	0.746	0	82	0
103	1	251	1	2	3	0.5717	0.0500	1	0	0.766	0	0	82
103	1	252	9	1	2	0.5717	0.0500	0	1	0.641	0	0	0
103	1	253	0	2	2	0.5717	0.0500	1	1	0.508	8	82	0
103	1	254	1	1	1	0.5717	0.0500	0	1	0.502	85	82	82
103	1	255	0	1	3	0.5717	0.0500	0	1	0.528	8	0	0
103	1	256	0	1	3	0.5717	0.0500	1	1	0.960	5	0	82
103	1	257	1	1	3	0.5717	0.0500	0	1	0.588	76	82	82
103	1	258	0	2	2	0.5717	0.0500	0	1	0.650	7	0	0
103	1	259	0	2	2	0.5717	0.0500	1	1	0.462	9	82	0
103	1	260	1	1	3	0.5717	0.0500	0	1	0.854	50	82	82
103	1	261	1	1	1	0.5717	0.0500	0	1	0.646	70	82	82
103	1	262	0	1	1	0.5717	0.0500	1	1	0.459	9	0	82
103	1	263	0	1	1	0.5717	0.0500	1	1	0.631	7	0	82
103	1	264	0	2	3	0.5717	0.0500	1	1	0.598	8	82	0
103	1	265	9	2	2	0.5717	0.0500	0	0	0.712	0	82	82
103	1	266	9	2	2	0.5717	0.0500	0	1	0.606	0	82	82
103	1	267	0	1	1	0.5717	0.0500	0	1	0.487	9	0	0
103	1	268	9	1	3	0.5717	0.0500	1	1	0.499	0	0	82
103	1	269	1	2	3	0.5717	0.0500	1	1	0.608	74	0	82
103	1	270	0	1	2	0.5717	0.0500	0	1	0.421	9	0	0
103	1	271	1	2	3	0.5717	0.0500	0	1	0.714	64	82	82
103	1	272	0	2	1	0.5717	0.0500	0	1	0.580	8	0	0
103	1	273	1	1	3	0.5717	0.0500	0	1	0.467	88	82	82
103	1	274	1	1	1	0.5717	0.0500	1	0	0.798	0	82	0
103	1	275	1	1	3	0.5717	0.0500	1	1	1.135	50	82	0
103	1	276	0	1	1	0.5717	0.0500	0	1	0.470	9	0	0
103	1	277	1	1	1	0.5717	0.0500	1	1	0.669	68	82	0
103	1	278	9	2	2	0.5717	0.0500	1	1	0.845	0	0	82
103	1	279	1	2	2	0.5717	0.0500	0	0	1.325	0	82	82
103	1	280	1	1	3	0.5717	0.0500	0	1	0.519	83	82	82
103	1	281	0	2	2	0.5717	0.0500	1	1	0.532	8	82	0
103	1	282	1	2	3	0.5717	0.0500	0	0	0.523	0	82	82
103	1	283	0	1	1	0.5717	0.0500	0	1	0.366	10	0	0
103	1	284	1	1	3	0.5717	0.0500	1	0	0.565	0	82	0
103	1	285	0	2	3	0.5717	0.0500	0	1	0.693	7	0	0
103	1	286	1	2	3	0.5717	0.0500	0	0	0.583	0	82	82
103	1	287	0	2	2	0.5717	0.0500	1	1	0.528	8	82	0
103	1	288	1	1	2	0.5717	0.0500	0	1	0.522	83	82	82
103	1	289	9	1	1	0.5717	0.0500	0	1	0.499	0	0	0
103	1	290	1	2	2	0.5717	0.0500	0	0	0.497	0	82	82
103	1	291	1	2	2	0.5717	0.0500	0	1	0.843	51	82	82
103	1	292	0	2	3	0.5717	0.0500	1	1	0.592	8	82	0
103	1	293	1	1	3	0.5717	0.0500	1	1	0.571	78	82	0
103	1	294	9	1	1	0.5717	0.0500	1	1	0.762	0	0	82
103	1	295	0	1	1	0.5717	0.0500	1	1	0.880	5	0	82
103	1	296	1	1	3	0.5717	0.0500	0	1	0.459	89	82	82
103	1	297	1	1	1	0.5717	0.0500	1	1	0.578	77	82	0
103	1	298	0	1	3	0.5717	0.0500	1	1	0.531	8	0	82
103	1	299	9	1	3	0.5717	0.0500	0	1	0.411	0	82	82
103	1	300	9	1	3	0.5717	0.0500	0	1	0.703	0	82	82
103	1	301	0	1	2	0.5717	0.0500	1	1	0.746	6	0	82
103	1	302	0	1	2	0.5717	0.0500	0	1	0.427	9	0	0
103	1	303	9	2	3	0.5717	0.0500	1	1	0.902	0	82	0
103	1	304	1	2	3	0.5717	0.0500	1	1	0.627	72	0	82
103	1	305	9	2	3	0.5717	0.0500	1	1	0.522	0	0	82
103	1	306	0	2	2	0.5717	0.0500	0	1	0.587	8	0	0
103	1	307	1	1	3	0.5717	0.0500	0	0	0.620	0	82	82
103	1	308	9	1	3	0.5717	0.0500	0	1	0.449	0	82	82
103	1	309	1	2	3	0.5717	0.0500	0	0	0.690	0	82	82
103	1	310	0	2	2	0.5717	0.0500	1	1	0.510	8	82	0
103	1	311	9	2	2	0.5717	0.0500	1	1	0.501	0	0	82
103	1	312	1	1	1	0.5717	0.0500	1	0	0.564	0	82	0
103	1	313	1	1	3	0.5717	0.0500	1	1	1.080	50	82	0
103	1	314	0	2	2	0.5717	0.0500	0	0	0.544	0	0	0
103	1	315	0	2	2	0.5717	0.0500	1	0	0.680	0	82	0
103	1	316	9	2	2	0.5717	0.0500	0	1	0.755	0	0	0
103	1	317	0	2	2	0.5717	0.0500	0	1	0.754	6	0	0
103	1	318	9	2	3	0.5717	0.0500	0	1	0.592	0	82	82
103	1	319	0	2	1	0.5717	0.0500	1	0	0.555	0	82	0
103	1	320	0	2	2	0.5717	0.0500	0	0	0.595	0	0	0
103	1	321	1	2	3	0.5717	0.0500	1	1	0.634	72	0	82
103	1	322	0	1	3	0.5717	0.0500	1	1	0.505	8	0	82
103	1	323	1	1	1	0.5717	0.0500	1	1	0.529	82	82	0
103	1	324	1	2	2	0.5717	0.0500	1	1	0.688	66	0	82
103	1	325	1	2	2	0.5717	0.0500	1	1	0.462	89	0	82
103	1	326	9	2	2	0.5717	0.0500	1	1	0.394	0	82	0
103	1	327	0	1	1	0.5717	0.0500	1	1	0.616	7	0	82
103	1	328	0	2	2	0.5717	0.0500	1	1	0.536	8	82	0
103	1	329	9	2	2	0.5717	0.0500	1	1	0.647	0	82	0
103	1	330	1	1	1	0.5717	0.0500	1	0	0.578	0	82	0
103	1	331	0	1	2	0.5717	0.0500	0	1	0.481	9	0	0
103	1	332	0	2	2	0.5717	0.0500	1	1	0.523	8	82	0
103	1	333	1	2	2	0.5717	0.0500	1	1	1.149	50	0	82
103	1	334	9	1	1	0.5717	0.0500	1	1	0.541	0	0	82
103	1	335	1	1	1	0.5717	0.0500	0	1	0.451	90	82	82
103	1	336	0	2	3	0.5717	0.0500	0	1	0.849	5	0	0
103	1	337	1	2	2	0.5717	0.0500	1	1	0.570	78	0	82
103	1	338	1	2	3	0.5717	0.0500	0	0	0.552	0	82	82
103	1	339	0	1	1	0.5717	0.0500	0	1	0.433	9	0	0
103	1	340	0	1	3	0.5717	0.0500	0	1	0.394	10	0	0
103	1	341	1	1	3	0.5717	0.0500	1	1	0.879	50	82	0
103	1	342	1	2	2	0.5717	0.0500	1	1	0.647	70	0	82
103	1	343	1	2	2	0.5717	0.0500	0	1	0.549	80	82	82
103	1	344	0	1	2	0.5717	0.0500	0	1	0.314	10	0	0
103	1	345	0	2	3	0.5717	0.0500	0	1	0.416	9	0	0
103	1	346	0	1	3	0.5717	0.0500	0	1	0.347	10	0	0
103	1	347	0	1	3	0.5717	0.0500	0	0	0.562	0	0	0
103	1	348	0	2	2	0.5717	0.0500	1	1	0.489	9	82	0
103	1	349	1	2	2	0.5717	0.0500	0	1	0.899	50	82	82
103	1	350	0	2	3	0.5717	0.0500	0	0	0.714	0	0	0
103	1	351	0	1	3	0.5717	0.0500	0	1	0.421	9	0	0
103	1	352	1	2	2	0.5717	0.0500	0	0	0.469	0	82	82
103	1	353	0	2	1	0.5717	0.0500	0	1	0.550	8	0	0
103	1	354	9	1	1	0.5717	0.0500	0	1	0.468	0	0	0
103	1	355	1	2	3	0.5717	0.0500	0	1	0.476	87	82	82
103	1	356	0	1	1	0.5717	0.0500	1	0	0.591	0	0	82
103	1	357	1	2	1	0.5717	0.0500	0	1	0.485	86	82	82
103	1	358	0	1	1	0.5717	0.0500	0	1	0.477	9	0	0
103	1	359	1	1	1	0.5717	0.0500	0	1	0.485	86	82	82
103	1	360	0	1	1	0.5717	0.0500	0	1	0.430	9	0	0
103	1	361	9	2	2	0.5717	0.0500	1	1	0.531	0	82	0
103	1	362	9	1	1	0.5717	0.0500	1	1	0.571	0	82	0
103	1	363	0	2	1	0.5717	0.0500	0	1	0.483	9	0	0
103	1	364	1	1	1	0.5717	0.0500	1	0	0.665	0	82	0
103	1	365	1	1	1	0.5717	0.0500	1	1	0.452	90	82	0
103	1	366	1	1	1	0.5717	0.0500	0	1	0.426	92	82	82
103	1	367	1	1	1	0.5717	0.0500	0	1	0.379	97	82	82
103	1	368	1	1	3	0.5717	0.0500	1	0	0.510	0	82	0
103	1	369	9	1	1	0.5717	0.0500	0	0	0.538	0	0	0
103	1	370	0	1	3	0.5717	0.0500	0	1	0.627	7	0	0
103	1	371	1	2	2	0.5717	0.0500	0	0	0.796	0	82	82
103	1	372	0	1	3	0.5717	0.0500	1	1	0.492	9	0	82
103	1	373	9	2	2	0.5717	0.0500	0	1	0.887	0	82	82
103	1	374	1	2	1	0.5717	0.0500	0	1	0.596	75	82	82
103	1	375	1	2	2	0.5717	0.0500	0	1	0.773	58	82	82
103	1	376	1	1	1	0.5717	0.0500	0	0	0.126	0	82	82
103	1	377	0	1	2	0.5717	0.0500	1	1	0.653	7	0	82
103	1	378	1	1	1	0.5717	0.0500	1	1	0.490	86	82	0
103	1	379	0	2	2	0.5717	0.0500	0	1	0.579	8	0	0
103	1	380	9	1	3	0.5717	0.0500	1	1	0.732	0	0	82
103	1	381	9	2	3	0.5717	0.0500	0	1	0.903	0	0	0
103	1	382	1	2	3	0.5717	0.0500	1	0	0.843	0	0	82
103	1	383	0	2	1	0.5717	0.0500	1	1	0.747	6	82	0
103	1	384	1	2	3	0.5717	0.0500	0	0	0.814	0	82	82
103	1	385	0	1	3	0.5717	0.0500	1	0	0.711	0	0	82
103	1	386	0	1	3	0.5717	0.0500	1	1	0.660	7	0	82
103	1	387	1	2	1	0.5717	0.0500	0	1	0.551	80	82	82
103	1	388	0	2	3	0.5717	0.0500	1	1	0.561	8	82	0
103	1	389	0	1	1	0.5717	0.0500	0	1	0.566	8	0	0
103	1	390	0	2	2	0.5717	0.0500	1	1	0.512	8	82	0
103	1	391	1	2	1	0.5717	0.0500	1	1	0.561	79	0	82
103	1	392	1	1	1	0.5717	0.0500	0	1	0.638	71	82	82
103	1	393	9	1	3	0.5717	0.0500	1	1	0.697	0	0	82
103	1	394	0	1	1	0.5717	0.0500	0	1	0.372	10	0	0
103	1	395	0	2	2	0.5717	0.0500	1	1	0.480	9	82	0
103	1	396	9	2	2	0.5717	0.0500	0	1	0.635	0	0	0
103	1	397	0	1	1	0.5717	0.0500	1	1	0.601	7	0	82
103	1	398	9	2	2	0.5717	0.0500	1	1	0.569	0	0	82
103	1	399	1	2	3	0.5717	0.0500	0	0	0.573	0	82	82
103	1	400	9	2	2	0.5717	0.0500	1	1	0.451	0	82	0
103	1	401	0	2	2	0.5717	0.0500	1	1	0.588	8	82	0
103	1	402	1	2	2	0.5717	0.0500	1	1	0.387	96	0	82
103	1	403	0	1	1	0.5717	0.0500	1	0	0.598	0	0	82
103	1	404	1	2	3	0.5717	0.0500	1	1	0.479	87	0	82
103	1	405	0	1	3	0.5717	0.0500	1	1	0.542	8	0	82
103	1	406	1	1	1	0.5717	0.0500	1	1	0.599	75	82	0
103	1	407	0	2	2	0.5717	0.0500	0	1	0.540	8	0	0
103	1	408	1	1	3	0.5717	0.0500	1	1	0.541	81	82	0
103	1	409	1	2	3	0.5717	0.0500	1	0	0.583	0	0	82
103	1	410	9	1	1	0.5717	0.0500	0	1	0.405	0	82	82
103	1	411	0	1	1	0.5717	0.0500	1	1	0.628	7	0	82
103	1	412	1	1	1	0.5717	0.0500	0	1	0.367	98	82	82
103	1	413	9	1	3	0.5717	0.0500	1	1	0.443	0	82	0
103	1	414	1	1	1	0.5717	0.0500	0	1	0.394	96	82	82
103	1	415	9	1	3	0.5717	0.0500	1	1	0.431	0	82	0
103	1	416	0	2	3	0.5717	0.0500	1	1	0.505	8	82	0
103	1	417	1	1	2	0.5717	0.0500	0	1	0.375	98	82	82
103	1	418	0	1	3	0.5717	0.0500	0	1	0.359	10	0	0
103	1	419	0	2	2	0.5717	0.0500	0	0	0.564	0	0	0
103	1	420	0	2	3	0.5717	0.0500	1	1	0.709	6	82	0
103	1	421	0	2	3	0.5717	0.0500	1	1	0.518	8	82	0
103	1	422	0	1	1	0.5717	0.0500	1	1	0.709	6	0	82
103	1	423	1	1	3	0.5717	0.0500	1	1	0.509	84	82	0
103	1	424	0	2	3	0.5717	0.0500	1	0	0.670	0	82	0
103	1	425	9	1	3	0.5717	0.0500	1	1	0.878	0	0	82
103	1	426	0	2	2	0.5717	0.0500	0	1	0.493	9	0	0
103	1	427	0	1	3	0.5717	0.0500	0	1	0.529	8	0	0
103	1	428	0	2	2	0.5717	0.0500	0	0	0.555	0	0	0
103	1	429	0	2	3	0.5717	0.0500	1	1	0.577	8	82	0
103	1	430	9	2	2	0.5717	0.0500	0	0	0.480	0	0	0
103	1	431	1	2	3	0.5717	0.0500	0	1	0.644	71	82	82
103	1	432	1	2	2	0.5717	0.0500	1	1	0.386	96	0	82
103	1	433	0	2	1	0.5717	0.0500	0	1	0.385	10	0	0
103	1	434	1	2	3	0.5717	0.0500	1	1	0.422	93	0	82
103	1	435	0	2	2	0.5717	0.0500	1	0	0.337	0	82	0
103	1	436	1	1	2	0.5717	0.0500	1	0	0.326	0	82	0
103	1	437	1	1	3	0.5717	0.0500	0	1	0.441	91	82	82
103	1	438	0	2	3	0.5717	0.0500	1	1	0.399	10	82	0
103	1	439	0	2	2	0.5717	0.0500	0	1	0.428	9	0	0
103	1	440	1	2	2	0.5717	0.0500	0	0	0.667	0	82	82
103	1	441	0	1	3	0.5717	0.0500	0	1	0.560	8	0	0
103	1	442	9	2	3	0.5717	0.0500	0	1	0.456	0	0	0
103	1	443	9	1	3	0.5717	0.0500	0	0	0.576	0	82	82
103	1	444	9	1	1	0.5717	0.0500	1	0	0.582	0	82	0
103	1	445	9	1	1	0.5717	0.0500	0	1	0.501	0	0	0
103	1	446	0	2	2	0.5717	0.0500	1	1	0.446	9	82	0
103	1	447	1	2	2	0.5717	0.0500	1	0	0.421	0	0	82
103	1	448	0	2	3	0.5717	0.0500	0	1	0.468	9	0	0
103	1	449	0	1	1	0.5717	0.0500	0	1	0.422	9	0	0
103	1	450	0	2	3	0.5717	0.0500	1	0	0.691	0	82	0
103	1	451	0	2	3	0.5717	0.0500	0	1	0.426	9	0	0
103	1	452	0	1	1	0.5717	0.0500	1	1	0.694	7	0	82
103	1	453	1	2	3	0.5717	0.0500	0	1	0.520	83	82	82
103	1	454	0	1	2	0.5717	0.0500	1	1	0.617	7	0	82
103	1	455	1	1	1	0.5717	0.0500	0	1	0.323	100	82	82
103	1	456	1	1	1	0.5717	0.0500	0	1	0.363	99	82	82
103	1	457	9	1	1	0.5717	0.0500	1	1	0.436	0	0	82
103	1	458	1	1	1	0.5717	0.0500	1	0	0.335	0	82	0
103	1	459	1	1	1	0.5717	0.0500	1	0	0.303	0	82	0
103	1	460	1	1	3	0.5717	0.0500	1	0	0.397	0	82	0
103	1	461	1	2	3	0.5717	0.0500	0	1	1.171	50	82	82
103	1	462	9	1	2	0.5717	0.0500	0	1	0.513	0	82	82
103	1	463	9	2	3	0.5717	0.0500	1	1	0.498	0	0	82
103	1	464	0	1	1	0.5717	0.0500	0	1	0.481	9	0	0
103	1	465	1	2	2	0.5717	0.0500	1	1	1.176	50	0	82
103	1	466	1	1	1	0.5717	0.0500	0	1	0.446	90	82	82
103	1	467	0	1	1	0.5717	0.0500	1	0	0.651	0	0	82
103	1	468	1	1	3	0.5717	0.0500	0	1	0.387	96	82	82
103	1	469	9	2	1	0.5717	0.0500	1	1	0.504	0	0	82
103	1	470	0	2	3	0.5717	0.0500	0	1	0.872	5	0	0
103	1	471	1	1	3	0.5717	0.0500	1	1	0.455	89	82	0
103	1	472	1	1	1	0.5717	0.0500	1	1	0.585	76	82	0
103	1	473	0	1	3	0.5717	0.0500	1	1	0.536	8	0	82
103	1	474	1	1	2	0.5717	0.0500	1	1	0.709	64	82	0
103	1	475	0	2	2	0.5717	0.0500	1	1	0.490	9	82	0
103	1	476	0	1	1	0.5717	0.0500	0	1	0.372	10	0	0
103	1	477	1	1	1	0.5717	0.0500	1	1	0.601	75	82	0
103	1	478	1	1	3	0.5717	0.0500	0	1	0.370	98	82	82
103	1	479	0	1	3	0.5717	0.0500	0	1	0.443	9	0	0
103	1	480	1	1	3	0.5717	0.0500	0	1	0.379	97	82	82
103	1	481	1	2	2	0.5717	0.0500	0	1	0.647	70	82	82
103	1	482	1	1	2	0.5717	0.0500	1	0	0.579	0	82	0
103	1	483	0	1	3	0.5717	0.0500	0	1	0.395	10	0	0
103	1	484	0	1	3	0.5717	0.0500	1	1	0.507	8	0	82
103	1	485	1	2	1	0.5717	0.0500	0	1	0.764	59	82	82
103	1	486	1	1	1	0.5717	0.0500	0	1	0.343	100	82	82
103	1	487	9	2	3	0.5717	0.0500	0	0	0.578	0	82	82
103	1	488	1	2	2	0.5717	0.0500	1	1	0.796	55	0	82
103	1	489	0	1	3	0.5717	0.0500	1	0	1.144	0	0	82
103	1	490	0	1	3	0.5717	0.0500	1	0	0.539	0	0	82
103	1	491	0	2	2	0.5717	0.0500	1	1	0.676	7	82	0
103	1	492	9	1	3	0.5717	0.0500	0	1	0.486	0	82	82
103	1	493	9	2	2	0.5717	0.0500	1	1	0.540	0	82	0
103	1	494	9	2	3	0.5717	0.0500	1	1	0.543	0	82	0
103	1	495	0	1	3	0.5717	0.0500	0	1	0.492	9	0	0
103	1	496	1	1	1	0.5717	0.0500	1	1	0.600	75	82	0
103	1	497	0	1	3	0.5717	0.0500	0	1	0.331	10	0	0
103	1	498	1	2	2	0.5717	0.0500	0	0	0.619	0	82	82
103	1	499	0	2	1	0.5717	0.0500	1	0	0.689	0	82	0
103	1	500	0	1	2	0.5717	0.0500	0	1	0.476	9	0	0
103	1	501	1	2	2	0.5717	0.0500	1	1	1.009	50	0	82
103	1	502	1	2	2	0.5717	0.0500	1	1	0.741	61	0	82
103	1	503	0	2	3	0.5717	0.0500	1	1	0.619	7	82	0
103	1	504	1	2	2	0.5717	0.0500	1	1	0.515	84	0	82
103	1	505	0	1	1	0.5717	0.0500	1	0	0.338	0	0	82
103	1	506	1	2	1	0.5717	0.0500	1	1	0.789	56	0	82
103	1	507	0	2	2	0.5717	0.0500	0	1	0.558	8	0	0
103	1	508	0	2	2	0.5717	0.0500	0	1	0.666	7	0	0
103	1	509	1	1	3	0.5717	0.0500	1	0	0.691	0	82	0
103	1	510	1	1	2	0.5717	0.0500	0	0	0.555	0	82	82
103	1	511	0	1	1	0.5717	0.0500	0	1	0.713	6	0	0
103	1	512	0	2	3	0.5717	0.0500	1	0	0.917	0	82	0
103	1	513	1	2	2	0.5717	0.0500	1	1	0.946	50	0	82
103	1	514	0	1	3	0.5717	0.0500	0	1	0.503	8	0	0
103	1	515	0	2	2	0.5717	0.0500	1	0	0.717	0	82	0
103	1	516	9	1	1	0.5717	0.0500	0	1	0.517	0	0	0
103	1	517	9	1	1	0.5717	0.0500	1	1	0.772	0	82	0
103	1	518	0	2	2	0.5717	0.0500	0	1	0.492	9	0	0
103	1	519	1	1	1	0.5717	0.0500	1	1	0.696	65	82	0
103	1	520	1	1	3	0.5717	0.0500	1	1	0.659	69	82	0
103	1	521	1	2	3	0.5717	0.0500	0	1	0.821	53	82	82
103	1	522	1	2	3	0.5717	0.0500	1	1	0.645	70	0	82
103	1	523	1	1	1	0.5717	0.0500	0	1	0.457	89	82	82
103	1	524	1	2	2	0.5717	0.0500	0	1	0.487	86	82	82
103	1	525	0	1	2	0.5717	0.0500	1	1	0.807	5	0	82
103	1	526	9	1	1	0.5717	0.0500	0	1	0.428	0	82	82
103	1	527	9	2	2	0.5717	0.0500	0	1	0.617	0	0	0
103	1	528	9	1	3	0.5717	0.0500	0	1	0.511	0	0	0
103	1	529	1	2	3	0.5717	0.0500	1	1	0.466	88	0	82
103	1	530	9	2	2	0.5717	0.0500	0	1	0.657	0	82	82
103	1	531	1	1	3	0.5717	0.0500	1	0	0.786	0	82	0
103	1	532	1	2	2	0.5717	0.0500	0	1	0.678	67	82	82
103	1	533	1	1	3	0.5717	0.0500	0	1	0.461	89	82	82
103	1	534	1	1	3	0.5717	0.0500	0	1	0.411	94	82	82
103	1	535	1	1	1	0.5717	0.0500	1	1	0.812	54	82	0
103	1	536	0	2	2	0.5717	0.0500	0	1	0.541	8	0	0
103	1	537	0	2	3	0.5717	0.0500	1	1	0.608	7	82	0
103	1	538	9	1	1	0.5717	0.0500	1	0	0.670	0	0	82
103	1	539	9	2	3	0.5717	0.0500	0	1	0.585	0	82	82
103	1	540	1	1	3	0.5717	0.0500	0	1	0.457	89	82	82
103	1	541	0	1	1	0.5717	0.0500	1	1	0.725	6	0	82
103	1	542	0	2	3	0.5717	0.0500	1	1	0.569	8	82	0
103	1	543	1	1	3	0.5717	0.0500	0	1	0.441	91	82	82
103	1	544	0	1	3	0.5717	0.0500	0	1	0.424	9	0	0
103	1	545	1	1	3	0.5717	0.0500	0	1	0.463	89	82	82
103	1	546	0	1	1	0.5717	0.0500	0	1	0.378	10	0	0
103	1	547	1	2	3	0.5717	0.0500	1	1	0.624	73	0	82
103	1	548	1	1	3	0.5717	0.0500	0	1	0.433	92	82	82
103	1	549	0	2	2	0.5717	0.0500	0	0	0.462	0	0	0
103	1	550	0	2	1	0.5717	0.0500	1	1	0.675	7	82	0
103	1	551	1	2	3	0.5717	0.0500	1	0	0.489	0	0	82
103	1	552	1	2	2	0.5717	0.0500	0	1	0.374	98	82	82
103	1	553	1	1	1	0.5717	0.0500	1	1	0.512	84	82	0
103	1	554	0	1	1	0.5717	0.0500	1	1	0.592	8	0	82
103	1	555	0	1	3	0.5717	0.0500	1	1	0.541	8	0	82
103	1	556	1	1	3	0.5717	0.0500	1	1	0.437	91	82	0
103	1	557	1	2	2	0.5717	0.0500	1	1	0.689	66	0	82
103	1	558	9	2	3	0.5717	0.0500	1	1	0.550	0	82	0
103	1	559	0	1	1	0.5717	0.0500	1	1	0.471	9	0	82
103	1	560	0	2	3	0.5717	0.0500	0	1	0.498	9	0	0
103	1	561	0	2	1	0.5717	0.0500	0	1	0.528	8	0	0
103	1	562	1	1	1	0.5717	0.0500	1	1	0.559	79	82	0
103	1	563	9	2	1	0.5717	0.0500	1	1	0.527	0	82	0
103	1	564	9	1	2	0.5717	0.0500	1	0	0.387	0	0	82
103	1	565	1	1	3	0.5717	0.0500	0	1	0.487	86	82	82
103	1	566	0	2	3	0.5717	0.0500	0	0	0.633	0	0	0
103	1	567	9	1	1	0.5717	0.0500	0	1	0.417	0	82	82
103	1	568	1	2	2	0.5717	0.0500	1	1	0.543	81	0	82
103	1	569	9	2	2	0.5717	0.0500	1	1	0.380	0	0	82
103	1	570	9	1	1	0.5717	0.0500	0	1	0.349	0	82	82
103	1	571	1	2	3	0.5717	0.0500	0	0	0.728	0	82	82
103	1	572	0	1	1	0.5717	0.0500	1	0	0.425	0	0	82
103	1	573	0	1	3	0.5717	0.0500	0	1	0.396	10	0	0
103	1	574	0	1	1	0.5717	0.0500	0	1	0.450	9	0	0
103	1	575	0	2	3	0.5717	0.0500	0	0	0.706	0	0	0
103	1	576	9	2	3	0.5717	0.0500	0	1	0.410	0	0	0
103	1	577	1	1	1	0.5717	0.0500	0	1	0.470	88	82	82
103	1	578	1	2	3	0.5717	0.0500	0	1	0.849	50	82	82
103	1	579	0	2	2	0.5717	0.0500	0	1	0.642	7	0	0
103	1	580	1	1	1	0.5717	0.0500	0	1	0.430	92	82	82
103	1	581	9	1	3	0.5717	0.0500	0	1	0.352	0	82	82
103	1	582	0	2	3	0.5717	0.0500	1	0	0.440	0	82	0
103	1	583	1	2	1	0.5717	0.0500	1	1	0.488	86	0	82
103	1	584	0	1	1	0.5717	0.0500	1	1	0.565	8	0	82
103	1	585	9	2	3	0.5717	0.0500	1	1	0.587	0	0	82
103	1	586	0	1	3	0.5717	0.0500	1	1	0.806	5	0	82
103	1	587	0	1	3	0.5717	0.0500	0	1	0.384	10	0	0
103	1	588	1	2	3	0.5717	0.0500	1	1	0.639	71	0	82
103	1	589	1	2	2	0.5717	0.0500	1	1	0.473	88	0	82
103	1	590	1	1	3	0.5717	0.0500	0	1	0.442	91	82	82
103	1	591	9	2	1	0.5717	0.0500	0	1	0.596	0	82	82
103	1	592	1	2	2	0.5717	0.0500	0	1	0.642	71	82	82
103	1	593	1	1	3	0.5717	0.0500	0	1	0.437	91	82	82
103	1	594	9	1	1	0.5717	0.0500	0	1	0.375	0	0	0
103	1	595	1	2	2	0.5717	0.0500	1	1	0.517	83	0	82
103	1	596	0	2	3	0.5717	0.0500	0	1	0.546	8	0	0
103	1	597	1	1	1	0.5717	0.0500	1	1	0.427	92	82	0
103	1	598	0	1	3	0.5717	0.0500	1	1	0.598	8	0	82
103	1	599	0	2	3	0.5717	0.0500	1	1	0.596	8	82	0
103	1	600	9	2	2	0.5717	0.0500	1	1	0.434	0	82	0
103	1	601	0	1	1	0.5717	0.0500	1	1	0.529	8	0	82
103	1	602	9	1	1	0.5717	0.0500	1	1	0.339	0	82	0
103	1	603	1	1	3	0.5717	0.0500	1	1	0.332	100	82	0
103	1	604	1	2	1	0.5717	0.0500	0	0	0.383	0	82	82
103	1	605	9	1	2	0.5717	0.0500	0	1	0.435	0	0	0
103	1	606	1	1	1	0.5717	0.0500	0	1	0.454	90	82	82
103	1	607	0	1	1	0.5717	0.0500	0	1	0.348	10	0	0
103	1	608	0	1	3	0.5717	0.0500	1	1	0.479	9	0	82
103	1	609	0	1	1	0.5717	0.0500	0	1	0.354	10	0	0
103	1	610	9	2	2	0.5717	0.0500	1	0	0.921	0	0	82
103	1	611	1	2	3	0.5717	0.0500	0	0	0.711	0	82	82
103	1	612	1	2	2	0.5717	0.0500	0	0	0.703	0	82	82
103	1	613	1	1	3	0.5717	0.0500	1	1	0.553	80	82	0
103	1	614	0	1	2	0.5717	0.0500	0	1	0.405	9	0	0
103	1	615	9	1	1	0.5717	0.0500	1	1	0.674	0	0	82
103	1	616	0	2	2	0.5717	0.0500	1	0	0.629	0	82	0
103	1	617	1	2	2	0.5717	0.0500	1	1	0.737	61	0	82
103	1	618	1	2	3	0.5717	0.0500	0	1	0.495	86	82	82
103	1	619	1	1	3	0.5717	0.0500	1	1	0.591	76	82	0
103	1	620	1	1	1	0.5717	0.0500	0	1	0.471	88	82	82
103	1	621	0	2	3	0.5717	0.0500	0	1	0.451	9	0	0
103	1	622	0	1	2	0.5717	0.0500	0	1	0.436	9	0	0
103	1	623	1	2	3	0.5717	0.0500	0	0	0.551	0	82	82
103	1	624	0	1	1	0.5717	0.0500	0	1	0.352	10	0	0
103	1	625	0	1	1	0.5717	0.0500	0	1	0.365	10	0	0
103	1	626	1	2	3	0.5717	0.0500	1	1	0.557	79	0	82
103	1	627	0	1	3	0.5717	0.0500	1	0	0.485	0	0	82
103	1	628	0	2	2	0.5717	0.0500	1	1	0.823	5	82	0
103	1	629	0	1	1	0.5717	0.0500	0	1	0.321	10	0	0
103	1	630	9	2	3	0.5717	0.0500	0	0	0.543	0	0	0
103	1	631	1	1	2	0.5717	0.0500	1	1	0.624	73	82	0
103	1	632	9	2	3	0.5717	0.0500	0	1	0.535	0	82	82
103	1	633	0	2	1	0.5717	0.0500	1	1	0.627	7	82	0
103	1	634	0	1	1	0.5717	0.0500	0	1	0.317	10	0	0
103	1	635	0	2	2	0.5717	0.0500	1	1	0.319	10	82	0
103	1	636	1	2	2	0.5717	0.0500	0	0	0.460	0	82	82
103	1	637	9	1	2	0.5717	0.0500	1	0	0.623	0	82	0
103	1	638	9	1	3	0.5717	0.0500	0	0	0.782	0	0	0
103	1	639	0	2	2	0.5717	0.0500	1	1	0.609	7	82	0
103	1	640	9	2	2	0.5717	0.0500	1	0	0.675	0	0	82
103	1	641	1	1	2	0.5717	0.0500	0	1	0.396	95	82	82
103	1	642	1	1	3	0.5717	0.0500	1	1	0.504	85	82	0
103	1	643	9	2	2	0.5717	0.0500	0	1	0.566	0	82	82
103	1	644	0	1	3	0.5717	0.0500	1	1	0.528	8	0	82
103	1	645	1	1	1	0.5717	0.0500	0	1	0.374	98	82	82
103	1	646	1	2	1	0.5717	0.0500	1	1	0.421	93	0	82
103	1	647	0	2	2	0.5717	0.0500	0	1	0.592	8	0	0
103	1	648	0	1	1	0.5717	0.0500	1	1	0.597	8	0	82
103	1	649	1	2	3	0.5717	0.0500	1	1	0.652	70	0	82
103	1	650	9	1	3	0.5717	0.0500	1	1	0.595	0	82	0
103	1	651	1	2	3	0.5717	0.0500	0	1	0.628	72	82	82
103	1	652	9	2	1	0.5717	0.0500	0	1	0.653	0	0	0
103	1	653	0	2	3	0.5717	0.0500	0	1	0.412	9	0	0
103	1	654	9	2	3	0.5717	0.0500	1	0	0.759	0	0	82
103	1	655	0	2	2	0.5717	0.0500	1	1	0.621	7	82	0
103	1	656	1	2	2	0.5717	0.0500	0	0	0.536	0	82	82
103	1	657	9	2	2	0.5717	0.0500	0	1	0.370	0	0	0
103	1	658	1	2	2	0.5717	0.0500	0	0	0.426	0	82	82
103	1	659	9	2	3	0.5717	0.0500	1	1	0.561	0	82	0
103	1	660	1	1	3	0.5717	0.0500	1	1	0.661	69	82	0
103	1	661	9	1	3	0.5717	0.0500	1	1	0.543	0	0	82
103	1	662	0	2	3	0.5717	0.0500	0	1	0.460	9	0	0
103	1	663	1	2	3	0.5717	0.0500	0	0	0.455	0	82	82
103	1	664	0	2	1	0.5717	0.0500	0	1	0.583	8	0	0
103	1	665	0	1	1	0.5717	0.0500	0	1	0.722	6	0	0
103	1	666	1	1	1	0.5717	0.0500	1	0	0.895	0	82	0
103	1	667	0	2	3	0.5717	0.0500	0	0	3.634	0	0	0
103	1	668	0	1	1	0.5717	0.0500	1	0	0.600	0	0	82
103	1	669	1	2	3	0.5717	0.0500	1	1	1.196	50	0	82
103	1	670	9	1	1	0.5717	0.0500	1	0	0.559	0	0	82
103	1	671	0	1	1	0.5717	0.0500	1	1	0.658	7	0	82
103	1	672	9	2	2	0.5717	0.0500	0	1	0.570	0	82	82
103	1	673	0	1	3	0.5717	0.0500	0	1	0.420	9	0	0
103	1	674	0	2	3	0.5717	0.0500	0	1	0.615	7	0	0
103	1	675	9	2	3	0.5717	0.0500	0	1	0.873	0	82	82
103	1	676	1	2	3	0.5717	0.0500	1	1	0.569	78	0	82
103	1	677	1	2	3	0.5717	0.0500	0	1	0.941	50	82	82
103	1	678	1	2	2	0.5717	0.0500	0	0	0.659	0	82	82
103	1	679	1	2	2	0.5717	0.0500	0	1	0.439	91	82	82
103	1	680	0	2	3	0.5717	0.0500	0	1	0.809	5	0	0
103	1	681	1	2	2	0.5717	0.0500	0	1	0.675	68	82	82
103	1	682	1	1	3	0.5717	0.0500	0	1	0.435	92	82	82
103	1	683	1	1	3	0.5717	0.0500	1	1	0.497	85	82	0
103	1	684	0	1	3	0.5717	0.0500	0	1	0.422	9	0	0
103	1	685	1	2	3	0.5717	0.0500	0	1	0.607	74	82	82
103	1	686	1	2	2	0.5717	0.0500	1	1	0.555	79	0	82
103	1	687	0	2	3	0.5717	0.0500	0	1	0.675	7	0	0
103	1	688	1	1	2	0.5717	0.0500	0	1	0.387	96	82	82
103	1	689	1	2	3	0.5717	0.0500	0	1	0.940	50	82	82
103	1	690	0	2	3	0.5717	0.0500	1	1	0.418	9	82	0
103	1	691	1	1	3	0.5717	0.0500	1	1	0.580	77	82	0
103	1	692	0	2	2	0.5717	0.0500	0	0	0.565	0	0	0
103	1	693	9	1	3	0.5717	0.0500	0	1	0.455	0	0	0
103	1	694	1	2	3	0.5717	0.0500	1	0	0.305	0	0	82
103	1	695	0	1	3	0.5717	0.0500	1	1	0.460	9	0	82
103	1	696	0	1	3	0.5717	0.0500	0	1	0.322	10	0	0
103	1	697	0	2	2	0.5717	0.0500	0	0	0.384	0	0	0
103	1	698	0	2	2	0.5717	0.0500	1	1	0.524	8	82	0
103	1	699	0	2	3	0.5717	0.0500	0	1	0.785	6	0	0
103	1	700	0	1	1	0.5717	0.0500	0	1	0.451	9	0	0
103	1	701	0	2	2	0.5717	0.0500	1	1	0.587	8	82	0
103	1	702	1	1	1	0.5717	0.0500	1	0	0.589	0	82	0
103	1	703	0	1	3	0.5717	0.0500	1	1	0.548	8	0	82
103	1	704	9	1	3	0.5717	0.0500	0	1	0.447	0	82	82
103	1	705	1	1	3	0.5717	0.0500	0	1	0.371	98	82	82
103	1	706	9	1	3	0.5717	0.0500	1	1	0.459	0	82	0
103	1	707	9	1	3	0.5717	0.0500	0	1	0.370	0	0	0
103	1	708	0	1	3	0.5717	0.0500	0	1	0.354	10	0	0
103	1	709	1	1	3	0.5717	0.0500	0	1	0.408	94	82	82
103	1	710	0	2	3	0.5717	0.0500	1	1	0.810	5	82	0
103	1	711	0	1	2	0.5717	0.0500	1	0	0.611	0	0	82
103	1	712	0	2	2	0.5717	0.0500	0	1	1.185	5	0	0
103	1	713	0	2	3	0.5717	0.0500	0	1	0.543	8	0	0
103	1	714	9	2	3	0.5717	0.0500	1	1	0.569	0	82	0
103	1	715	0	1	2	0.5717	0.0500	0	1	0.323	10	0	0
103	1	716	9	2	3	0.5717	0.0500	1	1	0.491	0	0	82
103	1	717	1	2	3	0.5717	0.0500	1	0	0.563	0	0	82
103	1	718	0	2	2	0.5717	0.0500	1	1	0.429	9	82	0
103	1	719	1	2	2	0.5717	0.0500	1	1	0.408	94	0	82
103	1	720	1	2	3	0.5717	0.0500	1	1	0.392	96	0	82
