sub	sess	t	rew	loc	cue	co1	co2	or	resp	rt	rew_tot	left_col	right_col
117	1	1	1	2	1	0.3887	0.1316	1	1	0.385	96	0	82
117	1	2	0	2	2	0.3887	0.1316	1	0	0.354	0	82	0
117	1	3	0	1	2	0.3887	0.1316	0	1	0.394	10	0	0
117	1	4	0	2	1	0.3887	0.1316	1	1	0.351	10	82	0
117	1	5	0	2	2	0.3887	0.1316	0	1	0.300	10	0	0
117	1	6	9	1	3	0.3887	0.1316	1	1	0.460	0	82	0
117	1	7	0	1	1	0.3887	0.1316	0	1	0.363	10	0	0
117	1	8	1	2	3	0.3887	0.1316	1	1	0.355	100	0	82
117	1	9	1	1	2	0.3887	0.1316	1	1	0.354	100	82	0
117	1	10	0	2	2	0.3887	0.1316	1	0	0.291	0	82	0
117	1	11	0	2	2	0.3887	0.1316	1	1	0.368	10	82	0
117	1	12	1	1	1	0.3887	0.1316	1	1	0.283	100	82	0
117	1	13	0	1	3	0.3887	0.1316	0	1	0.448	9	0	0
117	1	14	9	2	1	0.3887	0.1316	1	1	0.395	0	82	0
117	1	15	1	2	1	0.3887	0.1316	1	0	0.479	0	0	82
117	1	16	1	1	2	0.3887	0.1316	0	0	0.443	0	82	82
117	1	17	1	2	2	0.3887	0.1316	0	0	0.411	0	82	82
117	1	18	9	1	3	0.3887	0.1316	1	1	0.487	0	0	82
117	1	19	1	1	3	0.3887	0.1316	1	1	0.468	88	82	0
117	1	20	1	2	3	0.3887	0.1316	1	1	0.411	94	0	82
117	1	21	9	1	3	0.3887	0.1316	0	1	0.577	0	0	0
117	1	22	0	2	2	0.3887	0.1316	0	0	0.422	0	0	0
117	1	23	0	1	1	0.3887	0.1316	1	1	0.444	9	0	82
117	1	24	1	2	2	0.3887	0.1316	1	1	0.458	89	0	82
117	1	25	9	2	3	0.3887	0.1316	1	1	0.386	0	0	82
117	1	26	1	2	1	0.3887	0.1316	0	0	0.359	0	82	82
117	1	27	0	1	1	0.3887	0.1316	1	1	0.385	10	0	82
117	1	28	0	2	2	0.3887	0.1316	0	0	0.416	0	0	0
117	1	29	9	2	3	0.3887	0.1316	1	1	0.404	0	0	82
117	1	30	9	1	2	0.3887	0.1316	0	1	0.377	0	0	0
117	1	31	0	1	1	0.3887	0.1316	0	1	0.394	10	0	0
117	1	32	9	2	2	0.3887	0.1316	1	1	0.367	0	0	82
117	1	33	9	2	2	0.3887	0.1316	0	1	0.575	0	82	82
117	1	34	9	2	3	0.3887	0.1316	1	1	0.475	0	82	0
117	1	35	0	1	1	0.3887	0.1316	0	1	0.383	10	0	0
117	1	36	1	2	1	0.3887	0.1316	0	1	0.436	91	82	82
117	1	37	0	1	3	0.3887	0.1316	0	0	0.444	0	0	0
117	1	38	0	2	3	0.3887	0.1316	0	1	0.364	10	0	0
117	1	39	0	2	1	0.3887	0.1316	1	1	0.548	8	82	0
117	1	40	9	2	3	0.3887	0.1316	1	1	0.353	0	82	0
117	1	41	1	1	2	0.3887	0.1316	1	0	0.438	0	82	0
117	1	42	0	1	3	0.3887	0.1316	0	1	0.371	10	0	0
117	1	43	1	2	3	0.3887	0.1316	0	0	0.464	0	82	82
117	1	44	0	2	3	0.3887	0.1316	1	1	0.450	9	82	0
117	1	45	0	1	3	0.3887	0.1316	1	0	0.407	0	0	82
117	1	46	0	2	3	0.3887	0.1316	1	1	0.397	10	82	0
117	1	47	0	1	2	0.3887	0.1316	1	1	0.385	10	0	82
117	1	48	1	1	1	0.3887	0.1316	0	1	0.441	91	82	82
117	1	49	9	2	3	0.3887	0.1316	0	1	0.402	0	0	0
117	1	50	1	1	3	0.3887	0.1316	1	0	0.317	0	82	0
117	1	51	1	2	2	0.3887	0.1316	1	1	0.397	95	0	82
117	1	52	1	2	3	0.3887	0.1316	0	1	0.343	100	82	82
117	1	53	1	2	2	0.3887	0.1316	0	1	0.382	97	82	82
117	1	54	1	2	3	0.3887	0.1316	0	0	0.292	0	82	82
117	1	55	1	1	3	0.3887	0.1316	0	1	0.357	99	82	82
117	1	56	0	1	1	0.3887	0.1316	1	0	0.300	0	0	82
117	1	57	1	2	3	0.3887	0.1316	0	1	0.422	93	82	82
117	1	58	9	1	1	0.3887	0.1316	0	1	0.401	0	0	0
117	1	59	0	2	3	0.3887	0.1316	1	1	0.411	9	82	0
117	1	60	1	2	2	0.3887	0.1316	1	1	0.431	92	0	82
117	1	61	1	2	3	0.3887	0.1316	1	1	0.406	94	0	82
117	1	62	1	1	1	0.3887	0.1316	1	0	0.354	0	82	0
117	1	63	0	1	3	0.3887	0.1316	0	1	0.396	10	0	0
117	1	64	9	2	2	0.3887	0.1316	1	1	0.400	0	0	82
117	1	65	1	2	2	0.3887	0.1316	1	1	0.385	97	0	82
117	1	66	0	2	3	0.3887	0.1316	0	0	0.403	0	0	0
117	1	67	1	1	3	0.3887	0.1316	0	1	0.318	100	82	82
117	1	68	0	1	1	0.3887	0.1316	1	0	0.459	0	0	82
117	1	69	1	2	3	0.3887	0.1316	0	1	0.412	94	82	82
117	1	70	1	2	2	0.3887	0.1316	0	1	3.299	50	82	82
117	1	71	0	1	3	0.3887	0.1316	1	1	0.390	10	0	82
117	1	72	9	2	2	0.3887	0.1316	1	0	0.323	0	82	0
117	1	73	0	2	3	0.3887	0.1316	0	1	0.406	9	0	0
117	1	74	1	2	2	0.3887	0.1316	1	1	0.390	96	0	82
117	1	75	9	2	2	0.3887	0.1316	0	1	0.348	0	0	0
117	1	76	0	2	3	0.3887	0.1316	1	1	0.757	6	82	0
117	1	77	0	1	1	0.3887	0.1316	0	1	0.418	9	0	0
117	1	78	0	1	1	0.3887	0.1316	0	1	0.357	10	0	0
117	1	79	1	2	2	0.3887	0.1316	0	0	0.354	0	82	82
117	1	80	0	1	1	0.3887	0.1316	1	0	0.402	0	0	82
117	1	81	9	1	2	0.3887	0.1316	0	1	0.405	0	82	82
117	1	82	1	1	1	0.3887	0.1316	0	1	0.395	95	82	82
117	1	83	0	2	3	0.3887	0.1316	0	0	0.391	0	0	0
117	1	84	0	2	2	0.3887	0.1316	0	1	0.395	10	0	0
117	1	85	0	2	3	0.3887	0.1316	0	1	0.369	10	0	0
117	1	86	1	1	3	0.3887	0.1316	0	1	0.388	96	82	82
117	1	87	0	1	3	0.3887	0.1316	1	1	0.384	10	0	82
117	1	88	1	1	3	0.3887	0.1316	0	1	0.411	94	82	82
117	1	89	1	1	1	0.3887	0.1316	1	1	0.394	96	82	0
117	1	90	9	2	2	0.3887	0.1316	1	1	0.406	0	0	82
117	1	91	9	2	2	0.3887	0.1316	0	1	0.416	0	0	0
117	1	92	1	1	3	0.3887	0.1316	1	1	0.306	100	82	0
117	1	93	9	1	3	0.3887	0.1316	1	1	0.417	0	82	0
117	1	94	0	2	3	0.3887	0.1316	1	0	0.378	0	82	0
117	1	95	1	2	3	0.3887	0.1316	1	1	0.535	82	0	82
117	1	96	0	2	1	0.3887	0.1316	0	0	0.371	0	0	0
117	1	97	1	2	2	0.3887	0.1316	0	1	0.407	94	82	82
117	1	98	1	1	1	0.3887	0.1316	1	1	0.279	100	82	0
117	1	99	1	1	3	0.3887	0.1316	0	1	0.227	100	82	82
117	1	100	0	2	2	0.3887	0.1316	1	1	0.364	10	82	0
117	1	101	1	1	1	0.3887	0.1316	1	1	0.400	95	82	0
117	1	102	0	2	3	0.3887	0.1316	0	1	0.368	10	0	0
117	1	103	0	1	3	0.3887	0.1316	0	1	0.382	10	0	0
117	1	104	9	1	1	0.3887	0.1316	1	1	0.337	0	82	0
117	1	105	1	2	2	0.3887	0.1316	0	1	0.316	100	82	82
117	1	106	1	1	3	0.3887	0.1316	1	1	0.375	98	82	0
117	1	107	9	1	3	0.3887	0.1316	0	0	0.391	0	82	82
117	1	108	1	1	1	0.3887	0.1316	1	1	0.295	100	82	0
117	1	109	1	1	2	0.3887	0.1316	0	1	0.349	100	82	82
117	1	110	1	1	2	0.3887	0.1316	1	0	0.298	0	82	0
117	1	111	9	2	3	0.3887	0.1316	0	0	0.479	0	82	82
117	1	112	1	1	3	0.3887	0.1316	0	1	0.357	99	82	82
117	1	113	1	2	2	0.3887	0.1316	1	1	0.423	93	0	82
117	1	114	9	1	3	0.3887	0.1316	0	1	0.298	0	0	0
117	1	115	0	1	3	0.3887	0.1316	1	0	0.441	0	0	82
117	1	116	0	1	3	0.3887	0.1316	0	1	0.420	9	0	0
117	1	117	1	2	3	0.3887	0.1316	0	0	0.385	0	82	82
117	1	118	1	1	1	0.3887	0.1316	1	1	0.516	83	82	0
117	1	119	1	2	3	0.3887	0.1316	0	1	0.487	86	82	82
117	1	120	0	2	3	0.3887	0.1316	1	1	0.268	10	82	0
117	1	121	0	1	2	0.3887	0.1316	1	1	0.376	10	0	82
117	1	122	9	2	2	0.3887	0.1316	0	1	0.343	0	82	82
117	1	123	1	2	2	0.3887	0.1316	0	1	0.360	99	82	82
117	1	124	0	1	1	0.3887	0.1316	0	1	0.383	10	0	0
117	1	125	1	2	2	0.3887	0.1316	0	1	0.344	100	82	82
117	1	126	0	2	2	0.3887	0.1316	0	1	0.335	10	0	0
117	1	127	0	1	3	0.3887	0.1316	1	1	0.496	9	0	82
117	1	128	0	1	1	0.3887	0.1316	0	1	0.323	10	0	0
117	1	129	1	2	3	0.3887	0.1316	1	0	0.491	0	0	82
117	1	130	0	1	3	0.3887	0.1316	0	1	0.331	10	0	0
117	1	131	9	2	2	0.3887	0.1316	1	0	0.307	0	0	82
117	1	132	0	1	1	0.3887	0.1316	0	1	0.341	10	0	0
117	1	133	9	1	2	0.3887	0.1316	1	0	0.390	0	0	82
117	1	134	1	2	3	0.3887	0.1316	1	1	0.459	89	0	82
117	1	135	0	2	2	0.3887	0.1316	0	1	0.326	10	0	0
117	1	136	0	2	3	0.3887	0.1316	0	0	0.276	0	0	0
117	1	137	0	1	2	0.3887	0.1316	0	1	0.334	10	0	0
117	1	138	1	2	3	0.3887	0.1316	1	1	0.236	100	0	82
117	1	139	9	1	1	0.3887	0.1316	0	0	0.363	0	82	82
117	1	140	1	1	3	0.3887	0.1316	1	0	0.238	0	82	0
117	1	141	1	2	2	0.3887	0.1316	0	1	0.400	95	82	82
117	1	142	1	2	2	0.3887	0.1316	1	1	0.358	99	0	82
117	1	143	1	1	1	0.3887	0.1316	0	1	0.322	100	82	82
117	1	144	1	2	2	0.3887	0.1316	0	1	0.663	69	82	82
117	1	145	0	1	3	0.3887	0.1316	1	1	0.374	10	0	82
117	1	146	1	1	3	0.3887	0.1316	1	1	0.340	100	82	0
117	1	147	0	2	2	0.3887	0.1316	1	1	0.288	10	82	0
117	1	148	0	1	3	0.3887	0.1316	0	1	0.358	10	0	0
117	1	149	0	2	2	0.3887	0.1316	1	0	0.755	0	82	0
117	1	150	0	2	2	0.3887	0.1316	0	1	0.386	10	0	0
117	1	151	9	2	2	0.3887	0.1316	0	1	0.367	0	82	82
117	1	152	1	2	1	0.3887	0.1316	1	0	0.282	0	0	82
117	1	153	9	2	2	0.3887	0.1316	1	1	0.454	0	82	0
117	1	154	0	2	2	0.3887	0.1316	1	1	0.444	9	82	0
117	1	155	0	1	3	0.3887	0.1316	1	1	0.499	9	0	82
117	1	156	1	1	3	0.3887	0.1316	0	1	0.415	93	82	82
117	1	157	0	2	2	0.3887	0.1316	1	1	0.403	9	82	0
117	1	158	1	2	3	0.3887	0.1316	0	1	0.410	94	82	82
117	1	159	1	1	3	0.3887	0.1316	0	1	0.415	93	82	82
117	1	160	9	2	1	0.3887	0.1316	0	1	0.338	0	0	0
117	1	161	9	1	1	0.3887	0.1316	1	0	0.451	0	82	0
117	1	162	0	1	1	0.3887	0.1316	0	1	0.432	9	0	0
117	1	163	1	2	2	0.3887	0.1316	1	0	0.472	0	0	82
117	1	164	9	1	2	0.3887	0.1316	1	1	0.508	0	82	0
117	1	165	0	1	3	0.3887	0.1316	0	1	0.467	9	0	0
117	1	166	0	2	1	0.3887	0.1316	0	1	0.742	6	0	0
117	1	167	0	1	3	0.3887	0.1316	0	1	0.457	9	0	0
117	1	168	9	1	3	0.3887	0.1316	1	1	0.347	0	82	0
117	1	169	1	1	2	0.3887	0.1316	0	1	0.364	99	82	82
117	1	170	1	1	3	0.3887	0.1316	0	1	0.330	100	82	82
117	1	171	0	1	3	0.3887	0.1316	1	1	0.499	9	0	82
117	1	172	0	1	3	0.3887	0.1316	0	1	0.406	9	0	0
117	1	173	0	1	3	0.3887	0.1316	1	1	0.409	9	0	82
117	1	174	1	1	1	0.3887	0.1316	1	1	0.401	95	82	0
117	1	175	0	1	1	0.3887	0.1316	0	1	0.329	10	0	0
117	1	176	1	1	3	0.3887	0.1316	1	0	0.278	0	82	0
117	1	177	1	1	3	0.3887	0.1316	1	1	0.364	99	82	0
117	1	178	0	2	2	0.3887	0.1316	0	0	0.785	0	0	0
117	1	179	0	1	1	0.3887	0.1316	1	0	0.827	0	0	82
117	1	180	9	1	1	0.3887	0.1316	1	1	0.392	0	0	82
117	1	181	9	1	3	0.3887	0.1316	1	1	0.309	0	82	0
117	1	182	9	2	2	0.3887	0.1316	1	1	0.404	0	82	0
117	1	183	0	2	2	0.3887	0.1316	1	1	0.395	10	82	0
117	1	184	0	1	3	0.3887	0.1316	0	1	0.385	10	0	0
117	1	185	1	1	3	0.3887	0.1316	0	1	0.379	97	82	82
117	1	186	0	2	2	0.3887	0.1316	0	0	0.369	0	0	0
117	1	187	1	2	3	0.3887	0.1316	1	1	0.371	98	0	82
117	1	188	1	1	3	0.3887	0.1316	1	0	0.410	0	82	0
117	1	189	1	2	3	0.3887	0.1316	1	1	0.451	90	0	82
117	1	190	9	1	1	0.3887	0.1316	0	1	0.365	0	0	0
117	1	191	0	1	1	0.3887	0.1316	1	1	0.372	10	0	82
117	1	192	1	1	3	0.3887	0.1316	1	0	0.242	0	82	0
117	1	193	1	2	1	0.3887	0.1316	0	0	0.390	0	82	82
117	1	194	9	1	1	0.3887	0.1316	1	0	0.425	0	0	82
117	1	195	9	2	3	0.3887	0.1316	0	1	0.437	0	82	82
117	1	196	1	2	3	0.3887	0.1316	0	0	0.389	0	82	82
117	1	197	1	1	1	0.3887	0.1316	1	1	0.497	85	82	0
117	1	198	9	1	1	0.3887	0.1316	1	1	0.406	0	82	0
117	1	199	0	2	3	0.3887	0.1316	1	1	6.787	5	82	0
117	1	200	0	1	3	0.3887	0.1316	1	1	0.399	10	0	82
117	1	201	1	1	3	0.3887	0.1316	0	0	0.397	0	82	82
117	1	202	0	2	3	0.3887	0.1316	0	1	0.367	10	0	0
117	1	203	1	2	3	0.3887	0.1316	0	0	0.376	0	82	82
117	1	204	1	1	3	0.3887	0.1316	1	1	0.441	91	82	0
117	1	205	0	1	3	0.3887	0.1316	0	1	0.388	10	0	0
117	1	206	1	2	2	0.3887	0.1316	0	1	0.609	74	82	82
117	1	207	9	2	2	0.3887	0.1316	0	1	0.344	0	0	0
117	1	208	0	1	1	0.3887	0.1316	0	1	0.294	10	0	0
117	1	209	0	2	3	0.3887	0.1316	0	0	0.338	0	0	0
117	1	210	1	1	1	0.3887	0.1316	0	0	0.450	0	82	82
117	1	211	0	2	3	0.3887	0.1316	1	1	0.367	10	82	0
117	1	212	0	2	3	0.3887	0.1316	1	1	0.428	9	82	0
117	1	213	9	2	3	0.3887	0.1316	1	1	0.461	0	82	0
117	1	214	9	1	3	0.3887	0.1316	1	1	0.503	0	0	82
117	1	215	0	1	1	0.3887	0.1316	1	1	0.415	9	0	82
117	1	216	0	2	2	0.3887	0.1316	0	1	0.319	10	0	0
117	1	217	1	1	3	0.3887	0.1316	0	1	0.420	93	82	82
117	1	218	0	2	3	0.3887	0.1316	0	1	0.304	10	0	0
117	1	219	1	1	1	0.3887	0.1316	0	1	0.395	96	82	82
117	1	220	1	1	1	0.3887	0.1316	0	1	0.360	99	82	82
117	1	221	9	2	3	0.3887	0.1316	1	1	0.509	0	82	0
117	1	222	9	2	3	0.3887	0.1316	0	1	0.301	0	82	82
117	1	223	1	2	3	0.3887	0.1316	1	1	0.390	96	0	82
117	1	224	0	2	3	0.3887	0.1316	0	1	0.428	9	0	0
117	1	225	1	2	2	0.3887	0.1316	1	1	0.363	99	0	82
117	1	226	0	2	2	0.3887	0.1316	1	1	0.375	10	82	0
117	1	227	1	2	3	0.3887	0.1316	1	1	0.302	100	0	82
117	1	228	1	2	2	0.3887	0.1316	1	1	0.311	100	0	82
117	1	229	1	2	3	0.3887	0.1316	0	1	0.392	96	82	82
117	1	230	9	1	1	0.3887	0.1316	0	1	0.481	0	82	82
117	1	231	1	2	2	0.3887	0.1316	0	1	0.365	99	82	82
117	1	232	1	2	2	0.3887	0.1316	0	1	0.376	97	82	82
117	1	233	1	1	1	0.3887	0.1316	1	1	0.443	91	82	0
117	1	234	0	2	3	0.3887	0.1316	0	1	0.378	10	0	0
117	1	235	0	1	1	0.3887	0.1316	0	1	0.415	9	0	0
117	1	236	1	2	3	0.3887	0.1316	1	1	0.403	95	0	82
117	1	237	1	1	3	0.3887	0.1316	0	1	0.300	100	82	82
117	1	238	1	1	1	0.3887	0.1316	1	1	0.305	100	82	0
117	1	239	1	1	3	0.3887	0.1316	0	1	0.337	100	82	82
117	1	240	0	2	3	0.3887	0.1316	1	1	0.292	10	82	0
117	1	241	0	1	2	0.3887	0.1316	0	1	0.311	10	0	0
117	1	242	9	1	1	0.3887	0.1316	0	1	0.347	0	0	0
117	1	243	0	1	3	0.3887	0.1316	1	1	0.283	10	0	82
117	1	244	9	1	3	0.3887	0.1316	0	1	0.332	0	0	0
117	1	245	1	1	1	0.3887	0.1316	0	1	0.250	100	82	82
117	1	246	0	1	1	0.3887	0.1316	1	1	0.220	10	0	82
117	1	247	9	1	1	0.3887	0.1316	0	1	0.245	0	82	82
117	1	248	0	2	2	0.3887	0.1316	1	1	0.273	10	82	0
117	1	249	0	1	2	0.3887	0.1316	1	0	0.224	0	0	82
117	1	250	1	1	1	0.3887	0.1316	0	1	0.392	96	82	82
117	1	251	9	2	3	0.3887	0.1316	0	0	0.373	0	0	0
117	1	252	1	2	3	0.3887	0.1316	0	1	0.762	59	82	82
117	1	253	1	2	2	0.3887	0.1316	1	0	0.348	0	0	82
117	1	254	9	1	3	0.3887	0.1316	0	1	0.356	0	82	82
117	1	255	1	2	2	0.3887	0.1316	0	1	0.301	100	82	82
117	1	256	1	1	3	0.3887	0.1316	1	1	0.399	95	82	0
117	1	257	9	1	3	0.3887	0.1316	1	1	0.329	0	0	82
117	1	258	0	2	2	0.3887	0.1316	1	1	0.408	9	82	0
117	1	259	1	2	2	0.3887	0.1316	1	0	0.362	0	0	82
117	1	260	0	2	3	0.3887	0.1316	0	1	0.435	9	0	0
117	1	261	1	2	3	0.3887	0.1316	1	1	0.451	90	0	82
117	1	262	1	1	1	0.3887	0.1316	0	1	0.317	100	82	82
117	1	263	0	2	1	0.3887	0.1316	1	1	0.382	10	82	0
117	1	264	0	2	2	0.3887	0.1316	1	1	0.339	10	82	0
117	1	265	0	2	2	0.3887	0.1316	0	1	0.399	10	0	0
117	1	266	9	1	1	0.3887	0.1316	1	0	0.273	0	82	0
117	1	267	0	1	3	0.3887	0.1316	1	1	0.416	9	0	82
117	1	268	0	1	1	0.3887	0.1316	1	1	0.695	7	0	82
117	1	269	1	2	3	0.3887	0.1316	0	1	0.421	93	82	82
117	1	270	9	1	1	0.3887	0.1316	1	1	0.515	0	0	82
117	1	271	0	1	1	0.3887	0.1316	1	0	0.328	0	0	82
117	1	272	1	1	1	0.3887	0.1316	1	1	0.340	100	82	0
117	1	273	1	1	3	0.3887	0.1316	1	1	0.366	98	82	0
117	1	274	9	2	3	0.3887	0.1316	1	1	0.329	0	0	82
117	1	275	0	1	2	0.3887	0.1316	1	1	1.294	5	0	82
117	1	276	9	2	1	0.3887	0.1316	1	0	0.414	0	0	82
117	1	277	1	1	3	0.3887	0.1316	1	1	0.340	100	82	0
117	1	278	0	1	1	0.3887	0.1316	1	1	0.305	10	0	82
117	1	279	1	2	3	0.3887	0.1316	1	0	0.332	0	0	82
117	1	280	9	2	1	0.3887	0.1316	0	1	0.369	0	82	82
117	1	281	1	2	3	0.3887	0.1316	1	1	0.378	97	0	82
117	1	282	9	2	2	0.3887	0.1316	0	1	0.532	0	0	0
117	1	283	0	1	3	0.3887	0.1316	0	1	0.379	10	0	0
117	1	284	0	1	1	0.3887	0.1316	0	1	0.635	7	0	0
117	1	285	0	2	2	0.3887	0.1316	1	1	0.395	10	82	0
117	1	286	0	2	3	0.3887	0.1316	1	0	0.487	0	82	0
117	1	287	1	1	1	0.3887	0.1316	0	1	0.472	88	82	82
117	1	288	0	2	2	0.3887	0.1316	0	0	0.374	0	0	0
117	1	289	1	2	2	0.3887	0.1316	1	1	0.387	96	0	82
117	1	290	9	1	1	0.3887	0.1316	1	1	0.503	0	0	82
117	1	291	9	1	3	0.3887	0.1316	0	0	0.415	0	82	82
117	1	292	0	1	3	0.3887	0.1316	1	1	0.487	9	0	82
117	1	293	0	2	2	0.3887	0.1316	0	1	0.459	9	0	0
117	1	294	1	2	3	0.3887	0.1316	1	1	0.405	94	0	82
117	1	295	9	1	1	0.3887	0.1316	0	1	0.407	0	82	82
117	1	296	1	1	1	0.3887	0.1316	0	1	0.402	95	82	82
117	1	297	9	1	3	0.3887	0.1316	1	1	0.396	0	0	82
117	1	298	1	2	3	0.3887	0.1316	0	1	0.425	92	82	82
117	1	299	0	2	2	0.3887	0.1316	0	1	0.425	9	0	0
117	1	300	1	1	2	0.3887	0.1316	1	1	0.520	83	82	0
117	1	301	0	2	2	0.3887	0.1316	0	1	0.361	10	0	0
117	1	302	0	1	1	0.3887	0.1316	1	1	0.400	10	0	82
117	1	303	1	2	2	0.3887	0.1316	0	1	0.263	100	82	82
117	1	304	0	1	3	0.3887	0.1316	1	1	0.380	10	0	82
117	1	305	9	2	2	0.3887	0.1316	0	1	0.385	0	82	82
117	1	306	9	1	3	0.3887	0.1316	0	1	0.346	0	0	0
117	1	307	1	1	1	0.3887	0.1316	1	1	0.296	100	82	0
117	1	308	0	1	1	0.3887	0.1316	0	1	0.395	10	0	0
117	1	309	0	2	1	0.3887	0.1316	0	0	0.380	0	0	0
117	1	310	9	1	3	0.3887	0.1316	0	1	0.365	0	82	82
117	1	311	9	2	3	0.3887	0.1316	0	1	0.412	0	82	82
117	1	312	0	2	3	0.3887	0.1316	1	0	0.571	0	82	0
117	1	313	0	1	3	0.3887	0.1316	1	0	0.371	0	0	82
117	1	314	0	2	3	0.3887	0.1316	0	1	0.396	10	0	0
117	1	315	1	2	3	0.3887	0.1316	0	0	0.369	0	82	82
117	1	316	1	1	1	0.3887	0.1316	0	1	0.376	97	82	82
117	1	317	1	1	3	0.3887	0.1316	0	1	0.338	100	82	82
117	1	318	1	2	3	0.3887	0.1316	0	1	0.372	98	82	82
117	1	319	1	1	1	0.3887	0.1316	1	1	0.404	95	82	0
117	1	320	9	2	3	0.3887	0.1316	0	1	0.413	0	0	0
117	1	321	9	1	1	0.3887	0.1316	0	1	0.324	0	0	0
117	1	322	1	1	1	0.3887	0.1316	0	1	0.373	98	82	82
117	1	323	0	1	2	0.3887	0.1316	0	1	0.375	10	0	0
117	1	324	1	1	1	0.3887	0.1316	0	1	0.315	100	82	82
117	1	325	1	1	2	0.3887	0.1316	0	1	0.317	100	82	82
117	1	326	0	1	1	0.3887	0.1316	0	1	0.381	10	0	0
117	1	327	0	1	3	0.3887	0.1316	0	1	0.320	10	0	0
117	1	328	0	1	1	0.3887	0.1316	1	1	0.407	9	0	82
117	1	329	0	2	2	0.3887	0.1316	0	1	0.384	10	0	0
117	1	330	0	2	3	0.3887	0.1316	0	0	0.351	0	0	0
117	1	331	1	1	3	0.3887	0.1316	0	1	0.363	99	82	82
117	1	332	1	2	1	0.3887	0.1316	0	1	0.300	100	82	82
117	1	333	1	1	1	0.3887	0.1316	0	1	0.387	96	82	82
117	1	334	1	2	2	0.3887	0.1316	1	0	0.265	0	0	82
117	1	335	0	2	1	0.3887	0.1316	0	0	0.350	0	0	0
117	1	336	1	1	3	0.3887	0.1316	1	1	0.348	100	82	0
117	1	337	0	1	3	0.3887	0.1316	0	1	0.427	9	0	0
117	1	338	1	2	2	0.3887	0.1316	0	1	0.392	96	82	82
117	1	339	1	1	1	0.3887	0.1316	1	0	0.350	0	82	0
117	1	340	1	1	1	0.3887	0.1316	1	1	0.317	100	82	0
117	1	341	0	1	1	0.3887	0.1316	0	1	0.354	10	0	0
117	1	342	0	1	3	0.3887	0.1316	1	1	0.784	6	0	82
117	1	343	0	2	1	0.3887	0.1316	1	1	3.455	5	82	0
117	1	344	0	2	3	0.3887	0.1316	1	1	0.511	8	82	0
117	1	345	0	2	3	0.3887	0.1316	0	0	0.363	0	0	0
117	1	346	9	2	3	0.3887	0.1316	0	0	0.422	0	0	0
117	1	347	9	2	2	0.3887	0.1316	1	0	0.487	0	82	0
117	1	348	1	1	3	0.3887	0.1316	1	1	0.506	84	82	0
117	1	349	0	2	3	0.3887	0.1316	1	0	0.438	0	82	0
117	1	350	0	2	3	0.3887	0.1316	1	1	0.371	10	82	0
117	1	351	0	1	1	0.3887	0.1316	1	1	0.411	9	0	82
117	1	352	1	2	2	0.3887	0.1316	1	1	0.458	89	0	82
117	1	353	0	2	2	0.3887	0.1316	1	1	0.337	10	82	0
117	1	354	1	2	2	0.3887	0.1316	1	1	0.350	100	0	82
117	1	355	1	1	1	0.3887	0.1316	0	1	0.397	95	82	82
117	1	356	1	2	1	0.3887	0.1316	1	1	0.403	95	0	82
117	1	357	0	2	3	0.3887	0.1316	1	1	0.355	10	82	0
117	1	358	0	2	2	0.3887	0.1316	1	1	0.354	10	82	0
117	1	359	9	2	3	0.3887	0.1316	1	1	0.443	0	0	82
117	1	360	0	1	1	0.3887	0.1316	1	1	0.596	8	0	82
117	1	361	0	2	2	0.3887	0.1316	0	0	0.350	0	0	0
117	1	362	0	2	3	0.3887	0.1316	1	1	0.691	7	82	0
117	1	363	1	2	3	0.3887	0.1316	0	1	0.433	92	82	82
117	1	364	1	1	3	0.3887	0.1316	0	1	0.472	88	82	82
117	1	365	0	1	3	0.3887	0.1316	1	1	0.397	10	0	82
117	1	366	1	1	3	0.3887	0.1316	0	1	0.376	97	82	82
117	1	367	1	1	1	0.3887	0.1316	1	1	0.266	100	82	0
117	1	368	1	2	3	0.3887	0.1316	0	0	0.400	0	82	82
117	1	369	0	2	3	0.3887	0.1316	1	1	0.562	8	82	0
117	1	370	1	2	2	0.3887	0.1316	0	1	0.420	93	82	82
117	1	371	9	2	3	0.3887	0.1316	0	0	0.302	0	0	0
117	1	372	1	1	1	0.3887	0.1316	1	1	0.744	61	82	0
117	1	373	0	2	2	0.3887	0.1316	0	1	0.386	10	0	0
117	1	374	1	1	3	0.3887	0.1316	1	1	0.294	100	82	0
117	1	375	0	2	2	0.3887	0.1316	1	1	0.437	9	82	0
117	1	376	9	2	2	0.3887	0.1316	0	1	0.374	0	82	82
117	1	377	0	1	3	0.3887	0.1316	0	1	0.313	10	0	0
117	1	378	9	2	2	0.3887	0.1316	1	1	0.350	0	82	0
117	1	379	0	2	2	0.3887	0.1316	1	1	0.405	9	82	0
117	1	380	0	2	2	0.3887	0.1316	1	1	0.451	9	82	0
117	1	381	1	1	1	0.3887	0.1316	1	1	0.361	99	82	0
117	1	382	0	2	3	0.3887	0.1316	0	0	0.367	0	0	0
117	1	383	1	1	3	0.3887	0.1316	0	1	0.388	96	82	82
117	1	384	1	1	3	0.3887	0.1316	0	1	0.326	100	82	82
117	1	385	0	1	1	0.3887	0.1316	0	1	0.315	10	0	0
117	1	386	1	2	1	0.3887	0.1316	0	0	0.374	0	82	82
117	1	387	1	1	3	0.3887	0.1316	0	1	0.410	94	82	82
117	1	388	1	1	1	0.3887	0.1316	0	1	0.365	98	82	82
117	1	389	0	2	3	0.3887	0.1316	0	0	0.393	0	0	0
117	1	390	0	1	3	0.3887	0.1316	0	1	0.429	9	0	0
117	1	391	1	1	2	0.3887	0.1316	0	1	0.394	96	82	82
117	1	392	1	2	2	0.3887	0.1316	1	1	0.446	90	0	82
117	1	393	1	1	3	0.3887	0.1316	0	1	0.385	96	82	82
117	1	394	0	1	3	0.3887	0.1316	0	1	0.352	10	0	0
117	1	395	9	1	3	0.3887	0.1316	1	0	0.301	0	82	0
117	1	396	1	2	3	0.3887	0.1316	0	1	0.439	91	82	82
117	1	397	9	2	3	0.3887	0.1316	1	1	0.370	0	0	82
117	1	398	0	2	2	0.3887	0.1316	0	0	0.407	0	0	0
117	1	399	0	1	1	0.3887	0.1316	0	0	0.484	0	0	0
117	1	400	9	1	1	0.3887	0.1316	1	1	0.356	0	0	82
117	1	401	0	2	3	0.3887	0.1316	1	1	0.288	10	82	0
117	1	402	0	2	1	0.3887	0.1316	1	1	0.332	10	82	0
117	1	403	9	1	1	0.3887	0.1316	1	0	0.322	0	0	82
117	1	404	1	1	3	0.3887	0.1316	1	1	0.369	98	82	0
117	1	405	1	2	1	0.3887	0.1316	1	1	0.334	100	0	82
117	1	406	1	1	3	0.3887	0.1316	0	1	0.351	100	82	82
117	1	407	9	1	1	0.3887	0.1316	1	0	0.294	0	82	0
117	1	408	1	1	3	0.3887	0.1316	0	1	0.336	100	82	82
117	1	409	1	1	1	0.3887	0.1316	1	1	0.241	100	82	0
117	1	410	0	1	3	0.3887	0.1316	0	1	0.257	10	0	0
117	1	411	0	2	1	0.3887	0.1316	1	1	0.466	9	82	0
117	1	412	1	2	2	0.3887	0.1316	1	0	0.257	0	0	82
117	1	413	0	2	1	0.3887	0.1316	1	1	0.382	10	82	0
117	1	414	1	1	1	0.3887	0.1316	1	1	0.265	100	82	0
117	1	415	0	2	2	0.3887	0.1316	0	1	0.257	10	0	0
117	1	416	1	2	2	0.3887	0.1316	0	1	0.376	97	82	82
117	1	417	9	1	1	0.3887	0.1316	0	0	0.428	0	0	0
117	1	418	1	1	3	0.3887	0.1316	0	1	0.352	100	82	82
117	1	419	0	1	2	0.3887	0.1316	0	1	0.366	10	0	0
117	1	420	1	2	2	0.3887	0.1316	0	0	0.428	0	82	82
117	1	421	9	2	3	0.3887	0.1316	0	1	0.386	0	0	0
117	1	422	0	1	1	0.3887	0.1316	1	0	0.274	0	0	82
117	1	423	9	1	3	0.3887	0.1316	0	1	0.351	0	0	0
117	1	424	0	2	2	0.3887	0.1316	0	1	0.465	9	0	0
117	1	425	9	1	3	0.3887	0.1316	1	1	0.316	0	0	82
117	1	426	1	1	1	0.3887	0.1316	1	1	0.244	100	82	0
117	1	427	0	2	1	0.3887	0.1316	0	1	0.431	9	0	0
117	1	428	1	2	3	0.3887	0.1316	1	0	0.394	0	0	82
117	1	429	1	2	2	0.3887	0.1316	0	1	0.331	100	82	82
117	1	430	0	1	3	0.3887	0.1316	1	1	0.292	10	0	82
117	1	431	9	1	1	0.3887	0.1316	1	0	0.382	0	82	0
117	1	432	0	2	2	0.3887	0.1316	1	1	0.291	10	82	0
117	1	433	0	1	3	0.3887	0.1316	1	1	0.460	9	0	82
117	1	434	1	2	3	0.3887	0.1316	1	0	0.491	0	0	82
117	1	435	0	2	2	0.3887	0.1316	0	1	0.442	9	0	0
117	1	436	1	1	1	0.3887	0.1316	1	0	0.409	0	82	0
117	1	437	9	1	1	0.3887	0.1316	0	1	0.488	0	82	82
117	1	438	1	1	1	0.3887	0.1316	0	1	0.464	89	82	82
117	1	439	9	1	3	0.3887	0.1316	1	1	0.414	0	82	0
117	1	440	1	1	1	0.3887	0.1316	0	1	0.348	100	82	82
117	1	441	1	2	2	0.3887	0.1316	1	1	0.410	94	0	82
117	1	442	0	1	1	0.3887	0.1316	1	0	0.279	0	0	82
117	1	443	1	2	2	0.3887	0.1316	1	1	0.379	97	0	82
117	1	444	0	2	2	0.3887	0.1316	0	1	0.447	9	0	0
117	1	445	0	1	2	0.3887	0.1316	0	0	0.388	0	0	0
117	1	446	0	1	3	0.3887	0.1316	1	1	0.766	6	0	82
117	1	447	1	2	3	0.3887	0.1316	1	1	0.357	99	0	82
117	1	448	0	2	3	0.3887	0.1316	0	1	0.326	10	0	0
117	1	449	0	1	3	0.3887	0.1316	0	1	0.384	10	0	0
117	1	450	0	2	2	0.3887	0.1316	0	1	0.498	9	0	0
117	1	451	1	2	2	0.3887	0.1316	0	1	0.378	97	82	82
117	1	452	1	1	1	0.3887	0.1316	0	1	0.347	100	82	82
117	1	453	0	2	2	0.3887	0.1316	0	1	0.519	8	0	0
117	1	454	0	2	3	0.3887	0.1316	1	0	0.420	0	82	0
117	1	455	9	2	2	0.3887	0.1316	1	1	0.462	0	0	82
117	1	456	1	1	3	0.3887	0.1316	1	1	0.394	96	82	0
117	1	457	1	2	3	0.3887	0.1316	1	1	0.411	94	0	82
117	1	458	1	2	2	0.3887	0.1316	0	1	0.419	93	82	82
117	1	459	0	2	2	0.3887	0.1316	1	0	0.458	0	82	0
117	1	460	9	2	1	0.3887	0.1316	0	1	0.423	0	0	0
117	1	461	1	1	3	0.3887	0.1316	1	1	0.463	89	82	0
117	1	462	1	2	1	0.3887	0.1316	0	1	0.356	99	82	82
117	1	463	1	2	2	0.3887	0.1316	1	1	0.447	90	0	82
117	1	464	9	1	1	0.3887	0.1316	0	1	0.393	0	0	0
117	1	465	9	2	2	0.3887	0.1316	1	1	0.346	0	0	82
117	1	466	1	1	3	0.3887	0.1316	0	1	0.319	100	82	82
117	1	467	1	2	2	0.3887	0.1316	1	1	0.307	100	0	82
117	1	468	1	2	3	0.3887	0.1316	0	1	0.394	96	82	82
117	1	469	9	1	2	0.3887	0.1316	1	0	0.321	0	82	0
117	1	470	0	1	3	0.3887	0.1316	0	1	0.390	10	0	0
117	1	471	0	1	1	0.3887	0.1316	1	1	0.231	10	0	82
117	1	472	1	2	3	0.3887	0.1316	1	1	0.438	91	0	82
117	1	473	1	2	3	0.3887	0.1316	0	1	0.627	72	82	82
117	1	474	9	2	3	0.3887	0.1316	1	1	0.400	0	82	0
117	1	475	1	2	2	0.3887	0.1316	0	0	0.349	0	82	82
117	1	476	1	2	2	0.3887	0.1316	1	1	0.450	90	0	82
117	1	477	9	1	1	0.3887	0.1316	0	1	0.415	0	82	82
117	1	478	1	2	3	0.3887	0.1316	1	1	0.346	100	0	82
117	1	479	0	1	1	0.3887	0.1316	0	1	0.346	10	0	0
117	1	480	0	1	1	0.3887	0.1316	0	1	0.298	10	0	0
117	1	481	1	1	1	0.3887	0.1316	0	1	0.330	100	82	82
117	1	482	0	1	1	0.3887	0.1316	0	1	0.336	10	0	0
117	1	483	0	1	3	0.3887	0.1316	0	1	0.321	10	0	0
117	1	484	1	2	3	0.3887	0.1316	0	1	0.239	100	82	82
117	1	485	0	1	1	0.3887	0.1316	0	1	0.272	10	0	0
117	1	486	0	1	1	0.3887	0.1316	1	1	0.459	9	0	82
117	1	487	1	1	3	0.3887	0.1316	0	1	0.320	100	82	82
117	1	488	0	2	2	0.3887	0.1316	0	1	0.412	9	0	0
117	1	489	0	2	3	0.3887	0.1316	0	1	0.395	10	0	0
117	1	490	9	1	3	0.3887	0.1316	0	1	0.442	0	0	0
117	1	491	9	1	3	0.3887	0.1316	1	0	0.378	0	0	82
117	1	492	1	1	2	0.3887	0.1316	1	1	0.515	83	82	0
117	1	493	9	1	3	0.3887	0.1316	0	1	0.372	0	0	0
117	1	494	0	1	1	0.3887	0.1316	1	1	0.312	10	0	82
117	1	495	1	1	1	0.3887	0.1316	0	1	0.397	95	82	82
117	1	496	1	2	3	0.3887	0.1316	1	0	0.261	0	0	82
117	1	497	1	1	3	0.3887	0.1316	0	1	0.225	100	82	82
117	1	498	9	1	3	0.3887	0.1316	0	1	0.297	0	82	82
117	1	499	0	1	3	0.3887	0.1316	1	1	0.254	10	0	82
117	1	500	1	1	1	0.3887	0.1316	1	1	0.299	100	82	0
117	1	501	9	2	2	0.3887	0.1316	1	1	0.388	0	82	0
117	1	502	0	1	3	0.3887	0.1316	0	1	0.334	10	0	0
117	1	503	0	2	3	0.3887	0.1316	0	0	0.444	0	0	0
117	1	504	0	2	1	0.3887	0.1316	0	0	0.399	0	0	0
117	1	505	1	1	3	0.3887	0.1316	1	1	0.360	99	82	0
117	1	506	9	2	3	0.3887	0.1316	0	0	0.377	0	82	82
117	1	507	0	1	1	0.3887	0.1316	0	1	0.374	10	0	0
117	1	508	9	2	2	0.3887	0.1316	1	1	0.368	0	0	82
117	1	509	9	1	3	0.3887	0.1316	0	1	0.348	0	0	0
117	1	510	9	1	1	0.3887	0.1316	0	1	0.256	0	82	82
117	1	511	0	2	3	0.3887	0.1316	0	1	0.267	10	0	0
117	1	512	1	2	2	0.3887	0.1316	1	1	0.364	99	0	82
117	1	513	1	1	1	0.3887	0.1316	0	1	0.325	100	82	82
117	1	514	0	2	2	0.3887	0.1316	0	1	0.444	9	0	0
117	1	515	1	1	1	0.3887	0.1316	0	1	0.310	100	82	82
117	1	516	0	2	2	0.3887	0.1316	1	0	0.284	0	82	0
117	1	517	1	2	3	0.3887	0.1316	0	0	0.350	0	82	82
117	1	518	1	2	2	0.3887	0.1316	0	1	0.332	100	82	82
117	1	519	1	1	3	0.3887	0.1316	0	1	0.339	100	82	82
117	1	520	9	1	1	0.3887	0.1316	0	1	0.302	0	0	0
117	1	521	0	2	3	0.3887	0.1316	1	1	0.470	9	82	0
117	1	522	9	2	3	0.3887	0.1316	0	0	0.388	0	0	0
117	1	523	1	2	2	0.3887	0.1316	0	1	0.435	91	82	82
117	1	524	1	1	3	0.3887	0.1316	1	1	0.742	61	82	0
117	1	525	0	2	3	0.3887	0.1316	0	1	0.367	10	0	0
117	1	526	9	2	3	0.3887	0.1316	1	0	0.490	0	0	82
117	1	527	0	1	1	0.3887	0.1316	1	1	0.386	10	0	82
117	1	528	1	1	3	0.3887	0.1316	0	1	0.421	93	82	82
117	1	529	1	2	3	0.3887	0.1316	0	0	0.356	0	82	82
117	1	530	1	2	3	0.3887	0.1316	1	1	0.352	100	0	82
117	1	531	9	2	2	0.3887	0.1316	1	1	0.391	0	0	82
117	1	532	0	1	1	0.3887	0.1316	1	1	0.424	9	0	82
117	1	533	0	1	1	0.3887	0.1316	0	1	0.433	9	0	0
117	1	534	0	1	3	0.3887	0.1316	0	1	0.355	10	0	0
117	1	535	0	2	2	0.3887	0.1316	1	1	0.404	9	82	0
117	1	536	9	2	2	0.3887	0.1316	0	1	0.325	0	82	82
117	1	537	0	2	3	0.3887	0.1316	0	0	0.345	0	0	0
117	1	538	1	2	1	0.3887	0.1316	0	1	0.606	74	82	82
117	1	539	0	1	3	0.3887	0.1316	0	1	0.451	9	0	0
117	1	540	0	1	3	0.3887	0.1316	0	1	0.338	10	0	0
117	1	541	0	1	3	0.3887	0.1316	1	1	0.387	10	0	82
117	1	542	9	1	1	0.3887	0.1316	1	1	0.402	0	0	82
117	1	543	1	1	1	0.3887	0.1316	0	1	0.247	100	82	82
117	1	544	9	1	2	0.3887	0.1316	0	1	0.281	0	0	0
117	1	545	1	2	3	0.3887	0.1316	0	0	0.354	0	82	82
117	1	546	1	2	2	0.3887	0.1316	1	1	0.410	94	0	82
117	1	547	1	1	3	0.3887	0.1316	1	1	0.345	100	82	0
117	1	548	0	1	1	0.3887	0.1316	1	1	0.293	10	0	82
117	1	549	9	1	2	0.3887	0.1316	1	1	0.290	0	0	82
117	1	550	0	1	1	0.3887	0.1316	0	1	0.520	8	0	0
117	1	551	1	1	1	0.3887	0.1316	1	1	0.289	100	82	0
117	1	552	0	2	2	0.3887	0.1316	0	1	0.406	9	0	0
117	1	553	0	2	2	0.3887	0.1316	1	1	0.507	8	82	0
117	1	554	0	2	1	0.3887	0.1316	1	1	0.330	10	82	0
117	1	555	9	2	2	0.3887	0.1316	0	1	0.472	0	0	0
117	1	556	1	1	3	0.3887	0.1316	1	1	0.367	98	82	0
117	1	557	0	1	1	0.3887	0.1316	1	1	0.360	10	0	82
117	1	558	1	2	1	0.3887	0.1316	1	0	0.516	0	0	82
117	1	559	1	1	1	0.3887	0.1316	1	1	0.498	85	82	0
117	1	560	0	1	3	0.3887	0.1316	1	0	0.453	0	0	82
117	1	561	0	2	2	0.3887	0.1316	1	1	0.435	9	82	0
117	1	562	0	2	2	0.3887	0.1316	1	1	0.429	9	82	0
117	1	563	1	1	3	0.3887	0.1316	1	1	0.520	83	82	0
117	1	564	0	1	2	0.3887	0.1316	1	1	0.302	10	0	82
117	1	565	1	2	3	0.3887	0.1316	1	1	0.369	98	0	82
117	1	566	1	2	2	0.3887	0.1316	0	1	0.426	92	82	82
117	1	567	1	2	3	0.3887	0.1316	1	1	0.325	100	0	82
117	1	568	1	1	1	0.3887	0.1316	0	1	0.357	99	82	82
117	1	569	0	1	1	0.3887	0.1316	0	1	0.355	10	0	0
117	1	570	9	2	2	0.3887	0.1316	1	1	0.317	0	82	0
117	1	571	0	1	2	0.3887	0.1316	1	1	0.394	10	0	82
117	1	572	0	2	3	0.3887	0.1316	1	1	0.361	10	82	0
117	1	573	1	1	3	0.3887	0.1316	1	1	0.268	100	82	0
117	1	574	1	2	2	0.3887	0.1316	0	1	0.353	100	82	82
117	1	575	1	1	3	0.3887	0.1316	0	1	0.283	100	82	82
117	1	576	1	1	3	0.3887	0.1316	1	1	0.314	100	82	0
117	1	577	9	1	1	0.3887	0.1316	0	1	0.337	0	0	0
117	1	578	0	1	3	0.3887	0.1316	1	1	0.325	10	0	82
117	1	579	9	2	2	0.3887	0.1316	0	1	0.372	0	82	82
117	1	580	1	2	3	0.3887	0.1316	1	1	0.222	100	0	82
117	1	581	0	2	3	0.3887	0.1316	1	1	0.300	10	82	0
117	1	582	0	2	2	0.3887	0.1316	0	1	0.204	10	0	0
117	1	583	9	1	3	0.3887	0.1316	1	1	0.259	0	82	0
117	1	584	1	2	3	0.3887	0.1316	0	1	0.320	100	82	82
117	1	585	1	1	1	0.3887	0.1316	1	1	0.363	99	82	0
117	1	586	0	2	3	0.3887	0.1316	0	1	0.297	10	0	0
117	1	587	1	2	1	0.3887	0.1316	0	1	0.282	100	82	82
117	1	588	0	1	3	0.3887	0.1316	1	0	0.454	0	0	82
117	1	589	0	1	3	0.3887	0.1316	0	1	0.405	9	0	0
117	1	590	0	1	3	0.3887	0.1316	1	0	0.304	0	0	82
117	1	591	0	2	3	0.3887	0.1316	1	1	0.401	9	82	0
117	1	592	0	2	3	0.3887	0.1316	0	1	0.394	10	0	0
117	1	593	0	2	1	0.3887	0.1316	0	1	0.390	10	0	0
117	1	594	1	1	3	0.3887	0.1316	0	1	0.593	76	82	82
117	1	595	0	1	3	0.3887	0.1316	1	1	0.302	10	0	82
117	1	596	0	2	3	0.3887	0.1316	1	1	0.338	10	82	0
117	1	597	9	2	1	0.3887	0.1316	1	1	0.455	0	0	82
117	1	598	0	1	2	0.3887	0.1316	0	1	0.361	10	0	0
117	1	599	1	1	2	0.3887	0.1316	0	1	0.356	99	82	82
117	1	600	9	1	1	0.3887	0.1316	1	1	0.357	0	0	82
117	1	601	0	2	3	0.3887	0.1316	1	1	0.302	10	82	0
117	1	602	1	2	3	0.3887	0.1316	0	0	0.358	0	82	82
117	1	603	1	2	3	0.3887	0.1316	0	0	0.361	0	82	82
117	1	604	9	2	1	0.3887	0.1316	0	0	0.369	0	82	82
117	1	605	9	1	3	0.3887	0.1316	1	1	0.371	0	0	82
117	1	606	9	2	3	0.3887	0.1316	1	1	0.456	0	82	0
117	1	607	0	1	2	0.3887	0.1316	0	1	0.264	10	0	0
117	1	608	0	2	3	0.3887	0.1316	1	1	0.332	10	82	0
117	1	609	1	1	1	0.3887	0.1316	0	1	0.377	97	82	82
117	1	610	1	2	3	0.3887	0.1316	1	1	0.313	100	0	82
117	1	611	1	1	1	0.3887	0.1316	1	1	0.506	84	82	0
117	1	612	1	2	2	0.3887	0.1316	1	1	0.337	100	0	82
117	1	613	9	2	3	0.3887	0.1316	0	1	0.332	0	82	82
117	1	614	1	1	1	0.3887	0.1316	1	1	0.336	100	82	0
117	1	615	9	1	3	0.3887	0.1316	1	1	0.458	0	0	82
117	1	616	0	2	3	0.3887	0.1316	0	0	0.414	0	0	0
117	1	617	1	1	2	0.3887	0.1316	1	1	0.304	100	82	0
117	1	618	1	2	3	0.3887	0.1316	0	0	0.280	0	82	82
117	1	619	0	1	1	0.3887	0.1316	1	1	0.370	10	0	82
117	1	620	9	2	3	0.3887	0.1316	1	1	0.336	0	0	82
117	1	621	0	1	3	0.3887	0.1316	0	1	0.381	10	0	0
117	1	622	9	1	2	0.3887	0.1316	0	1	0.440	0	82	82
117	1	623	1	2	3	0.3887	0.1316	1	1	0.394	96	0	82
117	1	624	9	2	2	0.3887	0.1316	0	0	0.396	0	82	82
117	1	625	1	1	2	0.3887	0.1316	1	0	0.333	0	82	0
117	1	626	0	1	3	0.3887	0.1316	0	1	0.358	10	0	0
117	1	627	0	1	3	0.3887	0.1316	1	1	0.304	10	0	82
117	1	628	1	1	3	0.3887	0.1316	1	1	0.275	100	82	0
117	1	629	1	1	1	0.3887	0.1316	1	1	0.393	96	82	0
117	1	630	9	2	3	0.3887	0.1316	0	1	0.449	0	0	0
117	1	631	1	2	2	0.3887	0.1316	1	1	0.816	53	0	82
117	1	632	1	2	2	0.3887	0.1316	1	0	0.306	0	0	82
117	1	633	0	1	1	0.3887	0.1316	1	1	0.563	8	0	82
117	1	634	0	1	3	0.3887	0.1316	1	1	0.378	10	0	82
117	1	635	1	2	2	0.3887	0.1316	0	1	0.407	94	82	82
117	1	636	1	2	2	0.3887	0.1316	0	1	0.402	95	82	82
117	1	637	0	1	1	0.3887	0.1316	1	1	0.351	10	0	82
117	1	638	0	1	1	0.3887	0.1316	1	1	0.319	10	0	82
117	1	639	0	1	2	0.3887	0.1316	1	1	0.275	10	0	82
117	1	640	9	2	3	0.3887	0.1316	0	1	0.452	0	82	82
117	1	641	0	1	3	0.3887	0.1316	1	0	0.361	0	0	82
117	1	642	0	1	3	0.3887	0.1316	1	1	0.377	10	0	82
117	1	643	0	1	2	0.3887	0.1316	1	1	0.725	6	0	82
117	1	644	0	2	3	0.3887	0.1316	1	1	0.519	8	82	0
117	1	645	9	2	1	0.3887	0.1316	1	1	0.355	0	82	0
117	1	646	0	2	2	0.3887	0.1316	0	1	0.400	9	0	0
117	1	647	1	2	3	0.3887	0.1316	0	1	0.358	99	82	82
117	1	648	0	2	3	0.3887	0.1316	0	1	0.397	10	0	0
117	1	649	0	1	3	0.3887	0.1316	0	1	0.395	10	0	0
117	1	650	1	1	2	0.3887	0.1316	0	1	0.408	94	82	82
117	1	651	0	2	3	0.3887	0.1316	1	1	0.334	10	82	0
117	1	652	9	1	3	0.3887	0.1316	1	0	0.378	0	82	0
117	1	653	0	1	1	0.3887	0.1316	1	1	0.470	9	0	82
117	1	654	1	1	1	0.3887	0.1316	0	1	0.366	98	82	82
117	1	655	1	2	2	0.3887	0.1316	1	1	0.443	91	0	82
117	1	656	0	2	3	0.3887	0.1316	0	1	0.476	9	0	0
117	1	657	9	1	3	0.3887	0.1316	0	0	0.340	0	82	82
117	1	658	0	2	2	0.3887	0.1316	1	1	0.368	10	82	0
117	1	659	0	1	1	0.3887	0.1316	0	1	0.383	10	0	0
117	1	660	9	2	2	0.3887	0.1316	1	1	0.394	0	82	0
117	1	661	1	1	3	0.3887	0.1316	1	1	0.493	86	82	0
117	1	662	1	1	1	0.3887	0.1316	0	0	0.388	0	82	82
117	1	663	0	2	2	0.3887	0.1316	0	1	0.364	10	0	0
117	1	664	1	1	1	0.3887	0.1316	0	0	0.336	0	82	82
117	1	665	1	1	1	0.3887	0.1316	1	1	0.421	93	82	0
117	1	666	1	2	2	0.3887	0.1316	0	1	0.260	100	82	82
117	1	667	0	2	2	0.3887	0.1316	1	1	0.318	10	82	0
117	1	668	0	1	1	0.3887	0.1316	0	1	0.306	10	0	0
117	1	669	1	2	3	0.3887	0.1316	1	1	0.384	97	0	82
117	1	670	1	1	1	0.3887	0.1316	0	1	0.354	100	82	82
117	1	671	0	1	1	0.3887	0.1316	1	1	0.270	10	0	82
117	1	672	0	1	3	0.3887	0.1316	0	1	0.380	10	0	0
117	1	673	1	1	2	0.3887	0.1316	0	1	0.326	100	82	82
117	1	674	9	2	3	0.3887	0.1316	1	1	0.382	0	82	0
117	1	675	9	1	1	0.3887	0.1316	1	1	0.397	0	82	0
117	1	676	9	2	3	0.3887	0.1316	1	1	0.333	0	0	82
117	1	677	0	1	1	0.3887	0.1316	1	1	0.287	10	0	82
117	1	678	0	2	2	0.3887	0.1316	0	0	0.278	0	0	0
117	1	679	0	2	2	0.3887	0.1316	1	1	0.257	10	82	0
117	1	680	0	1	3	0.3887	0.1316	1	1	0.437	9	0	82
117	1	681	0	2	3	0.3887	0.1316	1	1	0.375	10	82	0
117	1	682	1	1	2	0.3887	0.1316	1	1	0.437	91	82	0
117	1	683	0	1	1	0.3887	0.1316	0	1	0.390	10	0	0
117	1	684	9	1	3	0.3887	0.1316	0	0	0.239	0	82	82
117	1	685	1	1	1	0.3887	0.1316	1	0	0.353	0	82	0
117	1	686	9	2	2	0.3887	0.1316	0	0	0.372	0	0	0
117	1	687	0	2	2	0.3887	0.1316	1	1	0.525	8	82	0
117	1	688	9	2	3	0.3887	0.1316	1	1	0.372	0	82	0
117	1	689	9	1	1	0.3887	0.1316	1	0	0.399	0	82	0
117	1	690	9	1	3	0.3887	0.1316	0	0	0.373	0	82	82
117	1	691	1	2	3	0.3887	0.1316	1	1	0.377	97	0	82
117	1	692	1	2	2	0.3887	0.1316	1	1	0.373	98	0	82
117	1	693	0	1	1	0.3887	0.1316	0	1	0.358	10	0	0
117	1	694	0	2	3	0.3887	0.1316	1	1	0.333	10	82	0
117	1	695	9	1	1	0.3887	0.1316	0	1	0.345	0	82	82
117	1	696	0	2	2	0.3887	0.1316	1	1	0.379	10	82	0
117	1	697	0	2	2	0.3887	0.1316	1	1	0.339	10	82	0
117	1	698	1	2	2	0.3887	0.1316	1	1	0.323	100	0	82
117	1	699	1	1	3	0.3887	0.1316	1	1	0.264	100	82	0
117	1	700	1	2	2	0.3887	0.1316	0	0	0.281	0	82	82
117	1	701	0	2	3	0.3887	0.1316	0	1	0.480	9	0	0
117	1	702	1	2	1	0.3887	0.1316	1	1	0.302	100	0	82
117	1	703	0	2	3	0.3887	0.1316	1	1	0.368	10	82	0
117	1	704	1	2	3	0.3887	0.1316	0	1	0.321	100	82	82
117	1	705	0	2	3	0.3887	0.1316	0	1	0.436	9	0	0
117	1	706	0	2	1	0.3887	0.1316	0	1	0.332	10	0	0
117	1	707	1	1	3	0.3887	0.1316	1	1	0.484	87	82	0
117	1	708	1	2	3	0.3887	0.1316	1	1	0.387	96	0	82
117	1	709	0	1	1	0.3887	0.1316	0	1	0.435	9	0	0
117	1	710	9	2	2	0.3887	0.1316	0	0	0.370	0	0	0
117	1	711	1	1	3	0.3887	0.1316	1	1	0.266	100	82	0
117	1	712	1	2	1	0.3887	0.1316	1	1	0.361	99	0	82
117	1	713	9	2	2	0.3887	0.1316	0	1	0.473	0	0	0
117	1	714	1	1	1	0.3887	0.1316	0	1	0.409	94	82	82
117	1	715	0	2	3	0.3887	0.1316	0	0	0.342	0	0	0
117	1	716	9	2	3	0.3887	0.1316	0	1	0.438	0	82	82
117	1	717	1	2	2	0.3887	0.1316	0	0	0.405	0	82	82
117	1	718	1	2	2	0.3887	0.1316	1	1	0.403	95	0	82
117	1	719	0	1	1	0.3887	0.1316	0	1	0.416	9	0	0
117	1	720	1	2	3	0.3887	0.1316	0	1	0.327	100	82	82
