sub	sess	t	rew	loc	cue	co1	co2	or	resp	rt	rew_tot	left_col	right_col
50	1	1	0	2	3	0.1169	0.0878	0	1	0.562	8	82	82
50	1	2	0	2	2	0.1169	0.0878	0	1	0.483	9	82	82
50	1	3	0	2	3	0.1169	0.0878	0	1	0.555	8	82	82
50	1	4	0	2	2	0.1169	0.0878	1	1	0.585	8	0	82
50	1	5	0	1	1	0.1169	0.0878	0	1	0.664	7	82	82
50	1	6	0	2	2	0.1169	0.0878	1	1	0.613	7	0	82
50	1	7	9	2	1	0.1169	0.0878	0	1	0.500	0	82	82
50	1	8	9	2	2	0.1169	0.0878	1	1	0.538	0	82	0
50	1	9	0	2	2	0.1169	0.0878	1	1	0.631	7	0	82
50	1	10	0	2	2	0.1169	0.0878	1	1	0.610	7	0	82
50	1	11	0	1	3	0.1169	0.0878	0	1	0.656	7	82	82
50	1	12	1	1	3	0.1169	0.0878	0	1	0.605	75	0	0
50	1	13	1	2	2	0.1169	0.0878	1	1	0.608	74	82	0
50	1	14	0	1	3	0.1169	0.0878	1	1	0.676	7	82	0
50	1	15	1	1	1	0.1169	0.0878	0	1	0.681	67	0	0
50	1	16	9	1	2	0.1169	0.0878	0	1	0.606	0	0	0
50	1	17	1	1	1	0.1169	0.0878	0	1	0.611	74	0	0
50	1	18	1	2	1	0.1169	0.0878	1	1	0.673	68	82	0
50	1	19	1	1	3	0.1169	0.0878	1	0	0.596	0	0	82
50	1	20	0	2	3	0.1169	0.0878	1	1	0.548	8	0	82
50	1	21	0	2	3	0.1169	0.0878	1	1	0.542	8	0	82
50	1	22	1	2	3	0.1169	0.0878	0	1	0.534	82	0	0
50	1	23	0	2	3	0.1169	0.0878	0	1	0.479	9	82	82
50	1	24	0	1	1	0.1169	0.0878	0	1	0.759	6	82	82
50	1	25	0	2	2	0.1169	0.0878	0	1	0.501	8	82	82
50	1	26	9	1	2	0.1169	0.0878	0	1	0.543	0	82	82
50	1	27	0	1	3	0.1169	0.0878	0	1	0.731	6	82	82
50	1	28	1	2	3	0.1169	0.0878	1	1	0.520	83	82	0
50	1	29	1	1	1	0.1169	0.0878	1	1	0.963	50	0	82
50	1	30	0	1	1	0.1169	0.0878	0	1	0.620	7	82	82
50	1	31	1	2	2	0.1169	0.0878	1	1	0.878	50	82	0
50	1	32	0	1	1	0.1169	0.0878	0	1	0.615	7	82	82
50	1	33	9	2	2	0.1169	0.0878	1	1	0.647	0	82	0
50	1	34	0	2	2	0.1169	0.0878	0	1	0.494	9	82	82
50	1	35	1	2	3	0.1169	0.0878	1	1	0.563	79	82	0
50	1	36	1	1	3	0.1169	0.0878	1	1	0.601	75	0	82
50	1	37	1	2	1	0.1169	0.0878	1	1	0.562	79	82	0
50	1	38	0	2	3	0.1169	0.0878	0	1	0.460	9	82	82
50	1	39	0	2	2	0.1169	0.0878	1	1	0.490	9	0	82
50	1	40	1	1	1	0.1169	0.0878	0	1	0.505	84	0	0
50	1	41	9	1	3	0.1169	0.0878	0	1	0.527	0	82	82
50	1	42	0	1	1	0.1169	0.0878	0	1	0.587	8	82	82
50	1	43	1	2	3	0.1169	0.0878	1	1	0.475	87	82	0
50	1	44	0	1	1	0.1169	0.0878	1	1	1.130	5	82	0
50	1	45	0	2	2	0.1169	0.0878	0	1	0.545	8	82	82
50	1	46	0	2	1	0.1169	0.0878	1	1	0.585	8	0	82
50	1	47	0	1	1	0.1169	0.0878	0	1	0.631	7	82	82
50	1	48	1	2	3	0.1169	0.0878	0	1	0.501	85	0	0
50	1	49	0	2	2	0.1169	0.0878	1	1	0.611	7	0	82
50	1	50	9	1	1	0.1169	0.0878	0	1	0.510	0	82	82
50	1	51	1	1	1	0.1169	0.0878	1	1	0.672	68	0	82
50	1	52	0	2	1	0.1169	0.0878	0	1	0.439	9	82	82
50	1	53	0	2	2	0.1169	0.0878	0	1	0.492	9	82	82
50	1	54	9	2	3	0.1169	0.0878	0	1	0.567	0	0	0
50	1	55	9	1	1	0.1169	0.0878	0	1	0.628	0	82	82
50	1	56	0	1	1	0.1169	0.0878	1	1	0.750	6	82	0
50	1	57	1	2	2	0.1169	0.0878	1	1	0.638	71	82	0
50	1	58	1	1	1	0.1169	0.0878	1	1	0.620	73	0	82
50	1	59	9	2	1	0.1169	0.0878	0	1	0.870	0	0	0
50	1	60	1	2	3	0.1169	0.0878	1	1	0.567	78	82	0
50	1	61	9	1	3	0.1169	0.0878	0	1	0.713	0	0	0
50	1	62	0	1	1	0.1169	0.0878	1	1	0.618	7	82	0
50	1	63	0	2	3	0.1169	0.0878	1	1	0.512	8	0	82
50	1	64	1	1	3	0.1169	0.0878	1	1	0.496	85	0	82
50	1	65	0	2	3	0.1169	0.0878	0	1	0.763	6	82	82
50	1	66	1	2	3	0.1169	0.0878	0	1	0.700	65	0	0
50	1	67	1	1	2	0.1169	0.0878	0	1	0.554	80	0	0
50	1	68	0	1	1	0.1169	0.0878	0	1	0.657	7	82	82
50	1	69	1	2	2	0.1169	0.0878	0	1	0.530	82	0	0
50	1	70	1	2	2	0.1169	0.0878	0	1	0.468	88	0	0
50	1	71	1	1	3	0.1169	0.0878	0	1	0.715	63	0	0
50	1	72	0	1	1	0.1169	0.0878	0	0	0.611	0	82	82
50	1	73	0	2	2	0.1169	0.0878	0	1	0.607	7	82	82
50	1	74	9	2	3	0.1169	0.0878	0	1	0.474	0	0	0
50	1	75	0	1	1	0.1169	0.0878	1	1	0.557	8	82	0
50	1	76	1	1	3	0.1169	0.0878	1	1	0.672	68	0	82
50	1	77	1	1	3	0.1169	0.0878	1	1	0.597	75	0	82
50	1	78	9	1	3	0.1169	0.0878	0	1	0.463	0	82	82
50	1	79	9	1	3	0.1169	0.0878	0	1	0.951	0	82	82
50	1	80	1	1	1	0.1169	0.0878	1	1	0.903	50	0	82
50	1	81	0	1	2	0.1169	0.0878	1	1	0.581	8	82	0
50	1	82	9	2	3	0.1169	0.0878	0	1	0.850	0	82	82
50	1	83	0	1	3	0.1169	0.0878	1	1	0.706	6	82	0
50	1	84	9	2	3	0.1169	0.0878	0	1	0.540	0	82	82
50	1	85	1	1	2	0.1169	0.0878	0	1	0.650	70	0	0
50	1	86	0	2	3	0.1169	0.0878	1	1	0.697	7	0	82
50	1	87	1	2	3	0.1169	0.0878	0	1	0.485	86	0	0
50	1	88	0	2	3	0.1169	0.0878	1	1	0.514	8	0	82
50	1	89	0	2	1	0.1169	0.0878	1	0	0.642	0	0	82
50	1	90	1	1	1	0.1169	0.0878	0	1	0.656	69	0	0
50	1	91	1	2	3	0.1169	0.0878	0	1	0.541	81	0	0
50	1	92	0	1	2	0.1169	0.0878	1	1	0.813	5	82	0
50	1	93	9	1	1	0.1169	0.0878	0	1	0.497	0	0	0
50	1	94	9	2	3	0.1169	0.0878	1	1	0.528	0	0	82
50	1	95	1	2	1	0.1169	0.0878	0	1	0.421	93	0	0
50	1	96	9	2	3	0.1169	0.0878	1	1	0.468	0	0	82
50	1	97	0	2	2	0.1169	0.0878	1	1	0.549	8	0	82
50	1	98	1	2	2	0.1169	0.0878	0	1	0.440	91	0	0
50	1	99	9	1	1	0.1169	0.0878	1	1	0.551	0	82	0
50	1	100	1	1	2	0.1169	0.0878	1	1	0.748	60	0	82
50	1	101	1	1	3	0.1169	0.0878	1	1	0.589	76	0	82
50	1	102	1	2	2	0.1169	0.0878	1	1	0.461	89	82	0
50	1	103	0	1	3	0.1169	0.0878	1	1	0.629	7	82	0
50	1	104	9	1	1	0.1169	0.0878	0	1	0.681	0	0	0
50	1	105	9	2	2	0.1169	0.0878	0	1	0.782	0	0	0
50	1	106	9	1	3	0.1169	0.0878	1	1	0.570	0	0	82
50	1	107	9	2	3	0.1169	0.0878	1	1	0.864	0	82	0
50	1	108	1	1	2	0.1169	0.0878	0	1	0.609	74	0	0
50	1	109	1	1	3	0.1169	0.0878	1	1	0.635	71	0	82
50	1	110	0	2	3	0.1169	0.0878	1	0	0.611	0	0	82
50	1	111	1	2	3	0.1169	0.0878	1	1	0.594	76	82	0
50	1	112	1	2	3	0.1169	0.0878	0	1	0.590	76	0	0
50	1	113	0	1	1	0.1169	0.0878	0	1	0.605	7	82	82
50	1	114	0	1	1	0.1169	0.0878	1	1	0.758	6	82	0
50	1	115	1	2	3	0.1169	0.0878	0	1	0.586	76	0	0
50	1	116	9	1	3	0.1169	0.0878	1	1	0.669	0	82	0
50	1	117	1	1	3	0.1169	0.0878	1	1	1.318	50	0	82
50	1	118	1	1	3	0.1169	0.0878	1	1	0.574	78	0	82
50	1	119	1	1	3	0.1169	0.0878	1	1	0.508	84	0	82
50	1	120	0	1	2	0.1169	0.0878	0	1	0.779	6	82	82
50	1	121	1	2	1	0.1169	0.0878	1	1	0.719	63	82	0
50	1	122	1	1	3	0.1169	0.0878	0	1	0.504	85	0	0
50	1	123	9	1	1	0.1169	0.0878	1	1	0.595	0	0	82
50	1	124	9	1	1	0.1169	0.0878	0	1	0.634	0	82	82
50	1	125	1	1	3	0.1169	0.0878	0	1	0.642	71	0	0
50	1	126	0	2	2	0.1169	0.0878	1	1	0.583	8	0	82
50	1	127	0	1	1	0.1169	0.0878	1	1	0.551	8	82	0
50	1	128	9	1	2	0.1169	0.0878	1	1	1.146	0	82	0
50	1	129	0	2	1	0.1169	0.0878	0	1	0.590	8	82	82
50	1	130	0	2	1	0.1169	0.0878	0	1	0.448	9	82	82
50	1	131	0	2	3	0.1169	0.0878	1	1	0.808	5	0	82
50	1	132	1	2	3	0.1169	0.0878	0	1	0.447	90	0	0
50	1	133	9	1	3	0.1169	0.0878	1	1	0.532	0	0	82
50	1	134	1	1	1	0.1169	0.0878	0	1	0.902	50	0	0
50	1	135	0	1	3	0.1169	0.0878	0	1	1.018	5	82	82
50	1	136	1	1	2	0.1169	0.0878	1	1	0.653	70	0	82
50	1	137	0	2	2	0.1169	0.0878	1	1	0.704	6	0	82
50	1	138	0	1	3	0.1169	0.0878	1	1	0.720	6	82	0
50	1	139	0	1	1	0.1169	0.0878	1	1	0.630	7	82	0
50	1	140	1	1	1	0.1169	0.0878	0	1	0.712	64	0	0
50	1	141	0	1	3	0.1169	0.0878	1	1	0.728	6	82	0
50	1	142	1	1	1	0.1169	0.0878	0	1	0.572	78	0	0
50	1	143	9	1	1	0.1169	0.0878	0	1	0.658	0	0	0
50	1	144	1	2	1	0.1169	0.0878	0	1	0.594	76	0	0
50	1	145	1	1	3	0.1169	0.0878	0	1	0.588	76	0	0
50	1	146	0	1	3	0.1169	0.0878	0	1	0.539	8	82	82
50	1	147	0	1	1	0.1169	0.0878	0	1	0.523	8	82	82
50	1	148	0	1	3	0.1169	0.0878	1	1	0.725	6	82	0
50	1	149	1	1	3	0.1169	0.0878	0	1	0.693	66	0	0
50	1	150	1	1	1	0.1169	0.0878	1	1	0.769	58	0	82
50	1	151	0	2	3	0.1169	0.0878	1	1	0.601	7	0	82
50	1	152	1	2	3	0.1169	0.0878	1	1	0.511	84	82	0
50	1	153	9	1	1	0.1169	0.0878	0	1	0.638	0	0	0
50	1	154	9	1	3	0.1169	0.0878	1	1	0.486	0	82	0
50	1	155	1	1	1	0.1169	0.0878	0	1	0.519	83	0	0
50	1	156	1	2	3	0.1169	0.0878	1	1	0.593	76	82	0
50	1	157	1	2	1	0.1169	0.0878	0	1	0.508	84	0	0
50	1	158	1	1	3	0.1169	0.0878	0	1	0.522	83	0	0
50	1	159	0	1	1	0.1169	0.0878	1	1	0.686	7	82	0
50	1	160	0	1	1	0.1169	0.0878	0	1	0.540	8	82	82
50	1	161	0	2	3	0.1169	0.0878	0	1	0.506	8	82	82
50	1	162	0	2	1	0.1169	0.0878	1	1	0.479	9	0	82
50	1	163	0	1	3	0.1169	0.0878	0	1	0.605	7	82	82
50	1	164	0	1	1	0.1169	0.0878	0	1	0.609	7	82	82
50	1	165	0	1	3	0.1169	0.0878	1	1	0.386	10	82	0
50	1	166	0	2	2	0.1169	0.0878	1	1	0.649	7	0	82
50	1	167	1	1	1	0.1169	0.0878	1	1	0.675	67	0	82
50	1	168	1	1	2	0.1169	0.0878	1	1	0.504	85	0	82
50	1	169	1	1	3	0.1169	0.0878	0	1	0.507	84	0	0
50	1	170	1	1	1	0.1169	0.0878	1	1	0.592	76	0	82
50	1	171	0	2	3	0.1169	0.0878	0	1	0.627	7	82	82
50	1	172	1	2	2	0.1169	0.0878	0	1	0.573	78	0	0
50	1	173	9	2	3	0.1169	0.0878	0	1	0.524	0	0	0
50	1	174	1	2	3	0.1169	0.0878	0	1	0.515	83	0	0
50	1	175	0	1	1	0.1169	0.0878	1	1	0.552	8	82	0
50	1	176	1	1	3	0.1169	0.0878	0	1	0.513	84	0	0
50	1	177	1	1	3	0.1169	0.0878	0	1	0.504	85	0	0
50	1	178	9	1	1	0.1169	0.0878	1	1	0.793	0	0	82
50	1	179	1	1	1	0.1169	0.0878	0	1	0.558	79	0	0
50	1	180	1	2	2	0.1169	0.0878	0	1	0.494	86	0	0
50	1	181	1	1	1	0.1169	0.0878	0	1	0.554	80	0	0
50	1	182	9	1	1	0.1169	0.0878	1	1	0.564	0	82	0
50	1	183	0	2	3	0.1169	0.0878	0	1	0.501	8	82	82
50	1	184	1	1	2	0.1169	0.0878	1	1	0.607	74	0	82
50	1	185	1	2	2	0.1169	0.0878	0	1	0.470	88	0	0
50	1	186	0	2	3	0.1169	0.0878	1	1	0.515	8	0	82
50	1	187	1	2	2	0.1169	0.0878	0	1	0.419	93	0	0
50	1	188	1	2	2	0.1169	0.0878	0	1	0.458	89	0	0
50	1	189	1	2	2	0.1169	0.0878	0	1	0.451	90	0	0
50	1	190	0	1	3	0.1169	0.0878	0	1	0.660	7	82	82
50	1	191	1	2	2	0.1169	0.0878	1	1	0.600	75	82	0
50	1	192	0	2	3	0.1169	0.0878	0	1	0.513	8	82	82
50	1	193	1	2	2	0.1169	0.0878	1	1	0.608	74	82	0
50	1	194	0	2	3	0.1169	0.0878	0	1	0.502	8	82	82
50	1	195	9	2	2	0.1169	0.0878	1	1	0.440	0	0	82
50	1	196	0	2	3	0.1169	0.0878	0	1	0.552	8	82	82
50	1	197	9	2	2	0.1169	0.0878	0	1	0.569	0	82	82
50	1	198	1	1	1	0.1169	0.0878	0	1	0.770	58	0	0
50	1	199	9	1	1	0.1169	0.0878	1	1	0.909	0	0	82
50	1	200	0	1	3	0.1169	0.0878	1	1	0.601	7	82	0
50	1	201	0	1	3	0.1169	0.0878	0	0	4.330	0	82	82
50	1	202	1	1	3	0.1169	0.0878	1	1	0.570	78	0	82
50	1	203	1	1	3	0.1169	0.0878	1	1	0.578	77	0	82
50	1	204	9	2	2	0.1169	0.0878	0	1	0.467	0	0	0
50	1	205	0	1	1	0.1169	0.0878	1	1	0.591	8	82	0
50	1	206	1	2	2	0.1169	0.0878	0	1	0.500	85	0	0
50	1	207	1	2	2	0.1169	0.0878	1	1	0.538	81	82	0
50	1	208	1	2	3	0.1169	0.0878	1	1	0.462	89	82	0
50	1	209	1	2	2	0.1169	0.0878	1	1	0.598	75	82	0
50	1	210	0	2	2	0.1169	0.0878	0	1	0.388	10	82	82
50	1	211	9	2	2	0.1169	0.0878	0	1	0.488	0	82	82
50	1	212	0	2	1	0.1169	0.0878	0	1	0.583	8	82	82
50	1	213	1	2	3	0.1169	0.0878	1	1	0.500	85	82	0
50	1	214	1	1	1	0.1169	0.0878	1	1	0.677	67	0	82
50	1	215	9	2	2	0.1169	0.0878	0	1	0.582	0	0	0
50	1	216	0	2	3	0.1169	0.0878	1	1	0.533	8	0	82
50	1	217	0	1	1	0.1169	0.0878	1	1	0.577	8	82	0
50	1	218	9	1	3	0.1169	0.0878	1	1	0.927	0	0	82
50	1	219	1	1	1	0.1169	0.0878	1	1	0.824	53	0	82
50	1	220	9	2	1	0.1169	0.0878	1	1	0.567	0	82	0
50	1	221	0	2	2	0.1169	0.0878	1	1	0.574	8	0	82
50	1	222	9	2	2	0.1169	0.0878	1	1	0.517	0	0	82
50	1	223	0	1	1	0.1169	0.0878	0	0	0.439	0	82	82
50	1	224	9	2	3	0.1169	0.0878	0	1	0.510	0	0	0
50	1	225	0	2	2	0.1169	0.0878	1	1	0.526	8	0	82
50	1	226	1	2	3	0.1169	0.0878	1	1	0.495	85	82	0
50	1	227	1	1	1	0.1169	0.0878	1	1	0.675	68	0	82
50	1	228	1	1	1	0.1169	0.0878	0	1	0.598	75	0	0
50	1	229	0	1	2	0.1169	0.0878	0	1	0.587	8	82	82
50	1	230	0	1	3	0.1169	0.0878	1	1	0.644	7	82	0
50	1	231	0	1	3	0.1169	0.0878	1	1	0.426	9	82	0
50	1	232	0	2	3	0.1169	0.0878	0	1	0.537	8	82	82
50	1	233	9	1	3	0.1169	0.0878	1	1	0.549	0	82	0
50	1	234	1	2	2	0.1169	0.0878	1	1	0.836	51	82	0
50	1	235	0	2	1	0.1169	0.0878	1	1	0.676	7	0	82
50	1	236	1	2	3	0.1169	0.0878	1	1	0.523	83	82	0
50	1	237	1	1	1	0.1169	0.0878	0	1	0.481	87	0	0
50	1	238	0	2	3	0.1169	0.0878	0	1	0.554	8	82	82
50	1	239	9	2	2	0.1169	0.0878	1	1	0.513	0	0	82
50	1	240	9	1	3	0.1169	0.0878	0	1	0.737	0	0	0
50	1	241	1	2	2	0.1169	0.0878	1	1	0.525	82	82	0
50	1	242	1	2	2	0.1169	0.0878	1	1	0.512	84	82	0
50	1	243	1	1	3	0.1169	0.0878	0	1	0.460	89	0	0
50	1	244	0	2	2	0.1169	0.0878	0	1	0.521	8	82	82
50	1	245	1	2	2	0.1169	0.0878	1	1	0.507	84	82	0
50	1	246	1	2	3	0.1169	0.0878	0	1	0.533	82	0	0
50	1	247	9	2	3	0.1169	0.0878	0	1	0.772	0	82	82
50	1	248	0	1	3	0.1169	0.0878	1	1	0.470	9	82	0
50	1	249	0	1	1	0.1169	0.0878	1	1	0.665	7	82	0
50	1	250	1	2	3	0.1169	0.0878	0	1	0.521	83	0	0
50	1	251	1	2	3	0.1169	0.0878	0	1	0.555	80	0	0
50	1	252	0	1	3	0.1169	0.0878	0	1	0.616	7	82	82
50	1	253	0	1	3	0.1169	0.0878	0	0	0.481	0	82	82
50	1	254	9	1	1	0.1169	0.0878	1	1	0.693	0	82	0
50	1	255	1	1	3	0.1169	0.0878	1	0	0.947	0	0	82
50	1	256	1	2	1	0.1169	0.0878	0	1	0.579	77	0	0
50	1	257	9	1	1	0.1169	0.0878	1	1	0.818	0	0	82
50	1	258	1	1	1	0.1169	0.0878	1	1	1.156	50	0	82
50	1	259	0	1	1	0.1169	0.0878	1	1	0.750	6	82	0
50	1	260	9	1	1	0.1169	0.0878	1	1	0.643	0	82	0
50	1	261	1	2	2	0.1169	0.0878	0	1	0.447	90	0	0
50	1	262	9	2	2	0.1169	0.0878	0	1	0.568	0	82	82
50	1	263	9	2	3	0.1169	0.0878	1	1	0.425	0	82	0
50	1	264	9	1	3	0.1169	0.0878	1	1	0.486	0	82	0
50	1	265	9	2	2	0.1169	0.0878	1	1	0.691	0	0	82
50	1	266	9	1	3	0.1169	0.0878	0	1	0.702	0	0	0
50	1	267	0	1	3	0.1169	0.0878	0	1	1.090	5	82	82
50	1	268	9	2	3	0.1169	0.0878	1	1	0.570	0	82	0
50	1	269	0	1	1	0.1169	0.0878	0	1	0.670	7	82	82
50	1	270	1	2	3	0.1169	0.0878	1	1	1.008	50	82	0
50	1	271	9	2	3	0.1169	0.0878	0	1	0.497	0	82	82
50	1	272	1	1	1	0.1169	0.0878	1	1	1.688	50	0	82
50	1	273	0	2	2	0.1169	0.0878	1	1	0.732	6	0	82
50	1	274	0	1	1	0.1169	0.0878	1	0	0.803	0	82	0
50	1	275	9	2	1	0.1169	0.0878	1	1	0.794	0	0	82
50	1	276	9	1	3	0.1169	0.0878	1	1	1.079	0	0	82
50	1	277	9	1	3	0.1169	0.0878	0	1	0.626	0	0	0
50	1	278	1	2	2	0.1169	0.0878	0	1	0.563	79	0	0
50	1	279	0	2	3	0.1169	0.0878	1	1	0.557	8	0	82
50	1	280	1	2	3	0.1169	0.0878	0	1	0.529	82	0	0
50	1	281	0	2	2	0.1169	0.0878	0	1	0.590	8	82	82
50	1	282	1	2	3	0.1169	0.0878	1	0	0.730	0	82	0
50	1	283	9	1	3	0.1169	0.0878	0	1	0.680	0	82	82
50	1	284	0	1	1	0.1169	0.0878	1	1	0.744	6	82	0
50	1	285	0	1	3	0.1169	0.0878	1	1	0.609	7	82	0
50	1	286	0	1	2	0.1169	0.0878	0	1	0.754	6	82	82
50	1	287	1	1	3	0.1169	0.0878	0	1	0.615	73	0	0
50	1	288	1	2	3	0.1169	0.0878	1	1	0.609	74	82	0
50	1	289	1	2	2	0.1169	0.0878	0	1	0.605	75	0	0
50	1	290	1	2	3	0.1169	0.0878	1	1	0.595	75	82	0
50	1	291	0	1	1	0.1169	0.0878	0	1	0.536	8	82	82
50	1	292	0	2	2	0.1169	0.0878	0	1	0.489	9	82	82
50	1	293	1	2	3	0.1169	0.0878	0	1	0.494	86	0	0
50	1	294	0	2	3	0.1169	0.0878	0	1	0.557	8	82	82
50	1	295	0	1	3	0.1169	0.0878	0	1	0.523	8	82	82
50	1	296	0	1	3	0.1169	0.0878	1	1	0.484	9	82	0
50	1	297	0	2	3	0.1169	0.0878	1	1	0.614	7	0	82
50	1	298	1	1	3	0.1169	0.0878	1	1	0.583	77	0	82
50	1	299	1	2	2	0.1169	0.0878	1	1	0.565	79	82	0
50	1	300	1	1	1	0.1169	0.0878	0	1	0.568	78	0	0
50	1	301	1	2	2	0.1169	0.0878	0	1	0.422	93	0	0
50	1	302	9	2	2	0.1169	0.0878	0	1	0.495	0	0	0
50	1	303	0	1	1	0.1169	0.0878	0	0	0.588	0	82	82
50	1	304	0	2	2	0.1169	0.0878	1	1	0.615	7	0	82
50	1	305	0	2	3	0.1169	0.0878	1	1	0.567	8	0	82
50	1	306	0	2	3	0.1169	0.0878	1	1	0.479	9	0	82
50	1	307	0	2	2	0.1169	0.0878	0	1	0.553	8	82	82
50	1	308	1	1	3	0.1169	0.0878	0	1	0.698	65	0	0
50	1	309	0	1	3	0.1169	0.0878	1	1	1.544	5	82	0
50	1	310	0	2	3	0.1169	0.0878	0	1	0.487	9	82	82
50	1	311	9	1	2	0.1169	0.0878	1	1	0.835	0	0	82
50	1	312	0	1	3	0.1169	0.0878	0	1	0.642	7	82	82
50	1	313	1	2	2	0.1169	0.0878	0	1	0.975	50	0	0
50	1	314	1	1	3	0.1169	0.0878	1	1	0.732	62	0	82
50	1	315	9	1	1	0.1169	0.0878	0	1	0.657	0	82	82
50	1	316	9	2	3	0.1169	0.0878	1	0	0.988	0	0	82
50	1	317	0	2	3	0.1169	0.0878	1	0	0.849	0	0	82
50	1	318	0	2	2	0.1169	0.0878	0	1	0.708	6	82	82
50	1	319	0	2	3	0.1169	0.0878	1	0	0.900	0	0	82
50	1	320	0	2	2	0.1169	0.0878	0	1	0.669	7	82	82
50	1	321	1	2	3	0.1169	0.0878	0	1	0.638	71	0	0
50	1	322	0	2	2	0.1169	0.0878	1	1	0.531	8	0	82
50	1	323	9	2	2	0.1169	0.0878	1	1	0.670	0	82	0
50	1	324	1	1	2	0.1169	0.0878	0	1	0.538	81	0	0
50	1	325	1	2	2	0.1169	0.0878	1	0	0.807	0	82	0
50	1	326	9	2	2	0.1169	0.0878	0	1	0.599	0	82	82
50	1	327	1	2	2	0.1169	0.0878	1	1	0.627	72	82	0
50	1	328	9	2	2	0.1169	0.0878	1	1	0.784	0	82	0
50	1	329	1	1	3	0.1169	0.0878	0	1	1.191	50	0	0
50	1	330	0	1	2	0.1169	0.0878	0	1	0.789	6	82	82
50	1	331	1	2	3	0.1169	0.0878	0	1	0.644	71	0	0
50	1	332	0	1	1	0.1169	0.0878	1	0	0.862	0	82	0
50	1	333	9	2	3	0.1169	0.0878	1	1	0.989	0	0	82
50	1	334	1	1	1	0.1169	0.0878	0	1	0.880	50	0	0
50	1	335	0	1	3	0.1169	0.0878	0	1	0.705	6	82	82
50	1	336	0	2	2	0.1169	0.0878	0	0	1.402	0	82	82
50	1	337	1	2	2	0.1169	0.0878	1	1	1.317	50	82	0
50	1	338	1	1	3	0.1169	0.0878	1	1	0.888	50	0	82
50	1	339	1	1	3	0.1169	0.0878	0	1	0.711	64	0	0
50	1	340	1	1	3	0.1169	0.0878	0	1	0.605	74	0	0
50	1	341	0	2	2	0.1169	0.0878	1	1	0.614	7	0	82
50	1	342	1	2	1	0.1169	0.0878	1	1	0.622	73	82	0
50	1	343	0	1	3	0.1169	0.0878	1	1	0.732	6	82	0
50	1	344	0	2	2	0.1169	0.0878	0	1	0.639	7	82	82
50	1	345	9	2	3	0.1169	0.0878	1	1	0.519	0	82	0
50	1	346	0	1	2	0.1169	0.0878	1	1	0.715	6	82	0
50	1	347	0	1	3	0.1169	0.0878	0	1	0.609	7	82	82
50	1	348	1	1	1	0.1169	0.0878	0	1	0.597	75	0	0
50	1	349	1	1	1	0.1169	0.0878	1	1	0.592	76	0	82
50	1	350	0	1	3	0.1169	0.0878	1	1	0.529	8	82	0
50	1	351	1	1	1	0.1169	0.0878	1	1	0.579	77	0	82
50	1	352	1	1	1	0.1169	0.0878	1	1	0.561	79	0	82
50	1	353	0	2	3	0.1169	0.0878	0	1	0.659	7	82	82
50	1	354	0	1	3	0.1169	0.0878	0	1	0.514	8	82	82
50	1	355	0	2	2	0.1169	0.0878	0	1	0.589	8	82	82
50	1	356	0	1	3	0.1169	0.0878	0	1	0.666	7	82	82
50	1	357	0	1	2	0.1169	0.0878	1	1	0.513	8	82	0
50	1	358	1	2	3	0.1169	0.0878	1	1	1.371	50	82	0
50	1	359	1	1	1	0.1169	0.0878	1	1	0.774	58	0	82
50	1	360	1	2	2	0.1169	0.0878	0	0	0.738	0	0	0
50	1	361	0	1	1	0.1169	0.0878	1	1	0.821	5	82	0
50	1	362	0	2	2	0.1169	0.0878	0	1	0.567	8	82	82
50	1	363	0	2	2	0.1169	0.0878	0	1	0.525	8	82	82
50	1	364	0	1	1	0.1169	0.0878	0	1	0.561	8	82	82
50	1	365	9	2	2	0.1169	0.0878	1	1	0.544	0	0	82
50	1	366	1	2	3	0.1169	0.0878	0	1	0.507	84	0	0
50	1	367	1	1	3	0.1169	0.0878	0	1	0.601	75	0	0
50	1	368	0	1	2	0.1169	0.0878	0	1	0.514	8	82	82
50	1	369	0	2	3	0.1169	0.0878	1	0	0.553	0	0	82
50	1	370	1	1	1	0.1169	0.0878	1	1	0.599	75	0	82
50	1	371	9	1	1	0.1169	0.0878	0	1	0.547	0	0	0
50	1	372	1	1	3	0.1169	0.0878	0	1	0.636	71	0	0
50	1	373	1	2	2	0.1169	0.0878	0	1	0.642	71	0	0
50	1	374	0	2	3	0.1169	0.0878	1	1	0.560	8	0	82
50	1	375	9	1	3	0.1169	0.0878	1	0	0.527	0	0	82
50	1	376	0	1	1	0.1169	0.0878	0	1	0.619	7	82	82
50	1	377	1	2	2	0.1169	0.0878	0	1	0.662	69	0	0
50	1	378	9	2	3	0.1169	0.0878	0	1	0.467	0	82	82
50	1	379	0	1	2	0.1169	0.0878	1	1	0.617	7	82	0
50	1	380	9	1	3	0.1169	0.0878	1	1	1.588	0	0	82
50	1	381	1	2	3	0.1169	0.0878	0	1	0.602	75	0	0
50	1	382	1	1	3	0.1169	0.0878	1	1	0.593	76	0	82
50	1	383	0	2	3	0.1169	0.0878	0	1	0.520	8	82	82
50	1	384	1	2	2	0.1169	0.0878	0	1	0.599	75	0	0
50	1	385	9	1	2	0.1169	0.0878	1	1	0.664	0	82	0
50	1	386	1	1	3	0.1169	0.0878	0	1	1.202	50	0	0
50	1	387	1	1	3	0.1169	0.0878	0	1	0.630	72	0	0
50	1	388	1	1	2	0.1169	0.0878	1	1	0.711	64	0	82
50	1	389	1	1	2	0.1169	0.0878	1	1	0.689	66	0	82
50	1	390	1	2	2	0.1169	0.0878	0	1	0.562	79	0	0
50	1	391	1	2	2	0.1169	0.0878	1	1	0.646	70	82	0
50	1	392	1	1	1	0.1169	0.0878	1	1	0.481	87	0	82
50	1	393	9	2	2	0.1169	0.0878	0	1	0.546	0	0	0
50	1	394	0	1	2	0.1169	0.0878	1	0	0.718	0	82	0
50	1	395	0	1	3	0.1169	0.0878	0	1	0.652	7	82	82
50	1	396	1	1	1	0.1169	0.0878	1	1	0.502	85	0	82
50	1	397	0	1	2	0.1169	0.0878	0	1	0.661	7	82	82
50	1	398	1	2	2	0.1169	0.0878	1	1	0.538	81	82	0
50	1	399	1	1	3	0.1169	0.0878	0	1	0.638	71	0	0
50	1	400	1	1	1	0.1169	0.0878	1	1	0.622	73	0	82
50	1	401	9	2	3	0.1169	0.0878	1	1	0.467	0	82	0
50	1	402	1	2	3	0.1169	0.0878	0	1	0.515	83	0	0
50	1	403	1	2	2	0.1169	0.0878	1	1	0.546	80	82	0
50	1	404	9	2	1	0.1169	0.0878	1	0	0.543	0	82	0
50	1	405	1	2	3	0.1169	0.0878	1	1	0.556	79	82	0
50	1	406	0	2	2	0.1169	0.0878	0	1	0.478	9	82	82
50	1	407	9	2	2	0.1169	0.0878	0	1	0.572	0	0	0
50	1	408	1	1	3	0.1169	0.0878	0	1	0.617	73	0	0
50	1	409	9	2	2	0.1169	0.0878	1	0	0.588	0	82	0
50	1	410	9	2	3	0.1169	0.0878	0	1	0.568	0	82	82
50	1	411	1	2	3	0.1169	0.0878	0	1	0.529	82	0	0
50	1	412	0	2	3	0.1169	0.0878	1	1	0.676	7	0	82
50	1	413	0	2	2	0.1169	0.0878	1	1	0.517	8	0	82
50	1	414	9	2	2	0.1169	0.0878	1	1	0.528	0	0	82
50	1	415	9	2	2	0.1169	0.0878	1	1	0.535	0	82	0
50	1	416	1	2	2	0.1169	0.0878	0	1	0.420	93	0	0
50	1	417	1	1	3	0.1169	0.0878	1	1	0.707	64	0	82
50	1	418	1	1	1	0.1169	0.0878	0	1	0.636	71	0	0
50	1	419	9	2	2	0.1169	0.0878	1	1	0.524	0	0	82
50	1	420	9	2	2	0.1169	0.0878	0	1	0.479	0	82	82
50	1	421	0	2	3	0.1169	0.0878	0	1	0.455	9	82	82
50	1	422	1	2	2	0.1169	0.0878	1	1	0.501	85	82	0
50	1	423	9	2	3	0.1169	0.0878	1	1	0.496	0	0	82
50	1	424	0	1	1	0.1169	0.0878	1	1	0.620	7	82	0
50	1	425	0	2	1	0.1169	0.0878	0	1	0.536	8	82	82
50	1	426	0	1	1	0.1169	0.0878	1	1	0.580	8	82	0
50	1	427	1	1	3	0.1169	0.0878	1	1	0.613	74	0	82
50	1	428	0	2	2	0.1169	0.0878	1	0	1.389	0	0	82
50	1	429	1	1	3	0.1169	0.0878	1	1	0.602	75	0	82
50	1	430	1	2	3	0.1169	0.0878	0	1	0.543	81	0	0
50	1	431	0	1	3	0.1169	0.0878	1	1	0.526	8	82	0
50	1	432	0	2	2	0.1169	0.0878	1	1	0.673	7	0	82
50	1	433	9	2	2	0.1169	0.0878	0	1	0.504	0	0	0
50	1	434	1	2	3	0.1169	0.0878	1	1	0.639	71	82	0
50	1	435	0	1	3	0.1169	0.0878	1	1	0.719	6	82	0
50	1	436	9	1	1	0.1169	0.0878	0	1	0.532	0	82	82
50	1	437	9	1	3	0.1169	0.0878	1	1	0.467	0	82	0
50	1	438	1	2	1	0.1169	0.0878	0	1	0.586	76	0	0
50	1	439	0	2	2	0.1169	0.0878	0	1	0.496	9	82	82
50	1	440	1	1	3	0.1169	0.0878	0	1	1.237	50	0	0
50	1	441	0	2	3	0.1169	0.0878	0	1	0.518	8	82	82
50	1	442	1	2	3	0.1169	0.0878	0	1	0.456	89	0	0
50	1	443	0	1	3	0.1169	0.0878	1	1	0.592	8	82	0
50	1	444	1	1	1	0.1169	0.0878	0	1	0.455	89	0	0
50	1	445	1	2	3	0.1169	0.0878	0	1	0.552	80	0	0
50	1	446	0	2	2	0.1169	0.0878	1	1	0.746	6	0	82
50	1	447	1	1	3	0.1169	0.0878	1	1	0.646	70	0	82
50	1	448	0	2	3	0.1169	0.0878	1	1	0.537	8	0	82
50	1	449	9	2	3	0.1169	0.0878	0	1	0.609	0	0	0
50	1	450	1	2	2	0.1169	0.0878	1	1	0.626	72	82	0
50	1	451	1	1	3	0.1169	0.0878	1	1	0.979	50	0	82
50	1	452	1	1	3	0.1169	0.0878	0	1	0.473	88	0	0
50	1	453	1	2	2	0.1169	0.0878	0	0	0.883	0	0	0
50	1	454	9	1	1	0.1169	0.0878	1	0	0.650	0	82	0
50	1	455	1	1	2	0.1169	0.0878	0	1	0.801	55	0	0
50	1	456	0	1	1	0.1169	0.0878	0	1	0.600	8	82	82
50	1	457	1	1	2	0.1169	0.0878	1	1	0.632	72	0	82
50	1	458	1	2	3	0.1169	0.0878	0	1	0.541	81	0	0
50	1	459	1	1	3	0.1169	0.0878	0	1	0.556	79	0	0
50	1	460	9	1	3	0.1169	0.0878	1	1	0.523	0	0	82
50	1	461	9	1	2	0.1169	0.0878	1	1	0.624	0	0	82
50	1	462	0	2	3	0.1169	0.0878	0	1	0.602	7	82	82
50	1	463	0	2	3	0.1169	0.0878	0	1	0.467	9	82	82
50	1	464	0	1	3	0.1169	0.0878	1	1	0.768	6	82	0
50	1	465	9	2	1	0.1169	0.0878	1	1	0.483	0	0	82
50	1	466	0	2	2	0.1169	0.0878	0	1	0.448	9	82	82
50	1	467	1	2	3	0.1169	0.0878	1	1	0.541	81	82	0
50	1	468	0	2	2	0.1169	0.0878	0	1	0.486	9	82	82
50	1	469	0	1	3	0.1169	0.0878	1	1	0.479	9	82	0
50	1	470	0	1	3	0.1169	0.0878	1	1	0.506	8	82	0
50	1	471	1	2	1	0.1169	0.0878	1	1	0.672	68	82	0
50	1	472	0	1	3	0.1169	0.0878	0	1	0.571	8	82	82
50	1	473	1	2	3	0.1169	0.0878	0	1	0.513	84	0	0
50	1	474	1	2	2	0.1169	0.0878	0	1	0.573	78	0	0
50	1	475	9	2	2	0.1169	0.0878	0	1	0.371	0	0	0
50	1	476	9	1	3	0.1169	0.0878	0	1	0.594	0	82	82
50	1	477	0	1	3	0.1169	0.0878	0	1	0.560	8	82	82
50	1	478	0	1	3	0.1169	0.0878	0	1	0.529	8	82	82
50	1	479	1	1	3	0.1169	0.0878	0	1	0.525	83	0	0
50	1	480	1	1	3	0.1169	0.0878	1	1	0.488	86	0	82
50	1	481	9	1	1	0.1169	0.0878	1	1	0.820	0	82	0
50	1	482	0	1	3	0.1169	0.0878	0	1	0.540	8	82	82
50	1	483	1	2	3	0.1169	0.0878	1	1	0.599	75	82	0
50	1	484	1	1	1	0.1169	0.0878	1	1	0.784	57	0	82
50	1	485	0	1	1	0.1169	0.0878	1	1	0.687	7	82	0
50	1	486	9	1	1	0.1169	0.0878	0	1	0.781	0	82	82
50	1	487	1	2	2	0.1169	0.0878	0	1	0.607	74	0	0
50	1	488	0	1	1	0.1169	0.0878	0	1	0.744	6	82	82
50	1	489	1	2	2	0.1169	0.0878	0	1	0.734	62	0	0
50	1	490	9	1	1	0.1169	0.0878	1	1	0.746	0	82	0
50	1	491	0	1	1	0.1169	0.0878	0	1	0.542	8	82	82
50	1	492	1	2	1	0.1169	0.0878	1	0	0.687	0	82	0
50	1	493	0	1	3	0.1169	0.0878	1	1	0.577	8	82	0
50	1	494	9	1	3	0.1169	0.0878	1	0	0.678	0	82	0
50	1	495	0	2	3	0.1169	0.0878	0	1	0.477	9	82	82
50	1	496	1	1	1	0.1169	0.0878	0	1	0.560	79	0	0
50	1	497	0	2	3	0.1169	0.0878	0	1	0.501	8	82	82
50	1	498	1	1	1	0.1169	0.0878	1	0	0.768	0	0	82
50	1	499	1	2	2	0.1169	0.0878	0	1	0.612	74	0	0
50	1	500	1	2	2	0.1169	0.0878	0	1	0.610	74	0	0
50	1	501	0	2	2	0.1169	0.0878	0	1	0.653	7	82	82
50	1	502	1	1	1	0.1169	0.0878	1	1	0.671	68	0	82
50	1	503	1	1	1	0.1169	0.0878	0	1	0.586	76	0	0
50	1	504	1	2	2	0.1169	0.0878	1	1	0.428	92	82	0
50	1	505	0	1	3	0.1169	0.0878	1	1	0.544	8	82	0
50	1	506	1	2	2	0.1169	0.0878	1	1	0.584	77	82	0
50	1	507	0	1	2	0.1169	0.0878	1	1	0.585	8	82	0
50	1	508	0	2	3	0.1169	0.0878	1	1	0.549	8	0	82
50	1	509	0	1	3	0.1169	0.0878	1	1	0.588	8	82	0
50	1	510	0	2	2	0.1169	0.0878	1	1	0.519	8	0	82
50	1	511	9	2	2	0.1169	0.0878	0	1	0.924	0	82	82
50	1	512	1	1	3	0.1169	0.0878	1	0	0.756	0	0	82
50	1	513	0	1	1	0.1169	0.0878	0	1	0.824	5	82	82
50	1	514	0	2	2	0.1169	0.0878	1	1	0.608	7	0	82
50	1	515	0	1	2	0.1169	0.0878	0	1	0.691	7	82	82
50	1	516	0	2	1	0.1169	0.0878	1	1	0.472	9	0	82
50	1	517	0	2	2	0.1169	0.0878	1	1	0.615	7	0	82
50	1	518	0	2	2	0.1169	0.0878	1	1	0.488	9	0	82
50	1	519	0	2	2	0.1169	0.0878	0	1	0.503	8	82	82
50	1	520	0	1	1	0.1169	0.0878	1	1	0.716	6	82	0
50	1	521	0	2	2	0.1169	0.0878	0	1	0.516	8	82	82
50	1	522	0	1	1	0.1169	0.0878	1	1	0.494	9	82	0
50	1	523	0	2	3	0.1169	0.0878	0	1	0.440	9	82	82
50	1	524	9	1	3	0.1169	0.0878	0	0	0.420	0	82	82
50	1	525	1	1	3	0.1169	0.0878	1	1	0.478	87	0	82
50	1	526	0	2	2	0.1169	0.0878	1	1	0.495	9	0	82
50	1	527	9	2	3	0.1169	0.0878	0	1	0.514	0	0	0
50	1	528	0	1	1	0.1169	0.0878	1	1	0.483	9	82	0
50	1	529	9	1	3	0.1169	0.0878	0	1	0.577	0	0	0
50	1	530	1	2	2	0.1169	0.0878	1	1	0.489	86	82	0
50	1	531	9	1	3	0.1169	0.0878	0	1	0.565	0	82	82
50	1	532	0	2	3	0.1169	0.0878	0	1	0.568	8	82	82
50	1	533	1	1	1	0.1169	0.0878	0	1	0.563	79	0	0
50	1	534	1	1	1	0.1169	0.0878	0	1	0.566	78	0	0
50	1	535	1	2	2	0.1169	0.0878	1	1	0.490	86	82	0
50	1	536	1	1	1	0.1169	0.0878	0	0	0.744	0	0	0
50	1	537	1	1	3	0.1169	0.0878	0	1	0.514	84	0	0
50	1	538	9	2	3	0.1169	0.0878	0	1	0.561	0	82	82
50	1	539	1	1	3	0.1169	0.0878	0	1	0.618	73	0	0
50	1	540	0	1	1	0.1169	0.0878	0	1	0.513	8	82	82
50	1	541	0	1	1	0.1169	0.0878	1	0	0.532	0	82	0
50	1	542	9	2	1	0.1169	0.0878	0	1	0.512	0	82	82
50	1	543	9	2	2	0.1169	0.0878	0	1	0.496	0	82	82
50	1	544	0	2	3	0.1169	0.0878	0	1	0.608	7	82	82
50	1	545	0	1	1	0.1169	0.0878	0	1	0.583	8	82	82
50	1	546	1	2	2	0.1169	0.0878	0	1	0.499	85	0	0
50	1	547	1	1	1	0.1169	0.0878	1	1	0.739	61	0	82
50	1	548	9	2	2	0.1169	0.0878	1	0	1.031	0	0	82
50	1	549	0	2	3	0.1169	0.0878	1	0	0.903	0	0	82
50	1	550	1	1	1	0.1169	0.0878	1	1	1.116	50	0	82
50	1	551	1	1	3	0.1169	0.0878	1	1	0.667	68	0	82
50	1	552	9	1	1	0.1169	0.0878	1	1	0.625	0	0	82
50	1	553	9	1	1	0.1169	0.0878	1	1	0.534	0	82	0
50	1	554	1	2	1	0.1169	0.0878	1	1	0.825	53	82	0
50	1	555	0	1	1	0.1169	0.0878	0	1	0.621	7	82	82
50	1	556	1	2	3	0.1169	0.0878	1	1	0.635	71	82	0
50	1	557	1	1	3	0.1169	0.0878	0	1	0.698	65	0	0
50	1	558	9	2	2	0.1169	0.0878	1	1	0.539	0	82	0
50	1	559	1	2	2	0.1169	0.0878	1	1	0.439	91	82	0
50	1	560	1	1	2	0.1169	0.0878	1	1	0.485	86	0	82
50	1	561	1	2	3	0.1169	0.0878	1	1	0.527	82	82	0
50	1	562	0	1	1	0.1169	0.0878	1	1	0.715	6	82	0
50	1	563	0	2	3	0.1169	0.0878	1	1	0.474	9	0	82
50	1	564	1	1	3	0.1169	0.0878	1	1	0.576	77	0	82
50	1	565	9	2	1	0.1169	0.0878	0	1	0.534	0	0	0
50	1	566	0	1	3	0.1169	0.0878	0	1	0.581	8	82	82
50	1	567	1	2	1	0.1169	0.0878	0	1	0.535	82	0	0
50	1	568	0	1	3	0.1169	0.0878	1	1	0.544	8	82	0
50	1	569	1	1	1	0.1169	0.0878	1	0	0.513	0	0	82
50	1	570	1	1	1	0.1169	0.0878	1	1	0.496	85	0	82
50	1	571	1	2	2	0.1169	0.0878	0	1	0.512	84	0	0
50	1	572	0	2	2	0.1169	0.0878	1	1	0.462	9	0	82
50	1	573	0	2	2	0.1169	0.0878	1	1	0.459	9	0	82
50	1	574	1	2	2	0.1169	0.0878	1	1	0.450	90	82	0
50	1	575	0	1	3	0.1169	0.0878	0	1	0.759	6	82	82
50	1	576	0	2	2	0.1169	0.0878	1	1	0.434	9	0	82
50	1	577	1	2	3	0.1169	0.0878	1	1	0.479	87	82	0
50	1	578	1	1	1	0.1169	0.0878	0	1	0.524	83	0	0
50	1	579	1	1	1	0.1169	0.0878	0	1	0.531	82	0	0
50	1	580	9	1	1	0.1169	0.0878	0	1	0.475	0	82	82
50	1	581	1	2	3	0.1169	0.0878	0	1	0.632	72	0	0
50	1	582	0	2	3	0.1169	0.0878	1	1	0.500	9	0	82
50	1	583	0	2	1	0.1169	0.0878	1	0	0.668	0	0	82
50	1	584	0	2	3	0.1169	0.0878	1	0	0.941	0	0	82
50	1	585	0	1	3	0.1169	0.0878	0	1	0.611	7	82	82
50	1	586	0	1	1	0.1169	0.0878	0	1	0.601	7	82	82
50	1	587	9	1	3	0.1169	0.0878	1	1	0.736	0	82	0
50	1	588	1	1	1	0.1169	0.0878	1	1	0.709	64	0	82
50	1	589	0	1	3	0.1169	0.0878	0	1	0.674	7	82	82
50	1	590	9	2	3	0.1169	0.0878	0	1	0.505	0	82	82
50	1	591	0	1	1	0.1169	0.0878	0	1	0.606	7	82	82
50	1	592	1	2	3	0.1169	0.0878	0	1	0.541	81	0	0
50	1	593	9	2	3	0.1169	0.0878	1	1	0.542	0	0	82
50	1	594	0	1	1	0.1169	0.0878	1	1	0.725	6	82	0
50	1	595	0	1	3	0.1169	0.0878	1	1	0.470	9	82	0
50	1	596	0	2	3	0.1169	0.0878	0	1	0.572	8	82	82
50	1	597	1	2	3	0.1169	0.0878	1	1	0.511	84	82	0
50	1	598	0	1	3	0.1169	0.0878	1	1	0.630	7	82	0
50	1	599	1	1	1	0.1169	0.0878	0	1	0.588	76	0	0
50	1	600	0	2	2	0.1169	0.0878	0	1	0.513	8	82	82
50	1	601	1	1	1	0.1169	0.0878	0	1	0.554	80	0	0
50	1	602	9	1	1	0.1169	0.0878	0	1	0.599	0	0	0
50	1	603	0	1	1	0.1169	0.0878	0	1	0.567	8	82	82
50	1	604	1	2	3	0.1169	0.0878	1	1	0.542	81	82	0
50	1	605	0	1	1	0.1169	0.0878	1	1	0.529	8	82	0
50	1	606	9	1	1	0.1169	0.0878	1	0	0.547	0	0	82
50	1	607	1	1	1	0.1169	0.0878	0	1	0.680	67	0	0
50	1	608	1	1	3	0.1169	0.0878	1	1	0.687	66	0	82
50	1	609	0	2	3	0.1169	0.0878	1	1	0.692	7	0	82
50	1	610	9	1	3	0.1169	0.0878	0	1	0.587	0	82	82
50	1	611	0	1	2	0.1169	0.0878	1	1	0.662	7	82	0
50	1	612	1	1	1	0.1169	0.0878	0	1	0.614	74	0	0
50	1	613	0	1	1	0.1169	0.0878	1	0	0.615	0	82	0
50	1	614	0	2	3	0.1169	0.0878	1	0	0.822	0	0	82
50	1	615	0	1	1	0.1169	0.0878	0	1	0.573	8	82	82
50	1	616	9	1	1	0.1169	0.0878	1	1	0.695	0	0	82
50	1	617	0	2	2	0.1169	0.0878	1	1	0.591	8	0	82
50	1	618	9	2	3	0.1169	0.0878	1	0	0.664	0	82	0
50	1	619	9	2	2	0.1169	0.0878	0	1	0.545	0	82	82
50	1	620	1	1	1	0.1169	0.0878	1	1	0.704	65	0	82
50	1	621	0	2	2	0.1169	0.0878	1	1	0.661	7	0	82
50	1	622	1	2	2	0.1169	0.0878	0	1	0.687	66	0	0
50	1	623	0	1	3	0.1169	0.0878	0	1	0.674	7	82	82
50	1	624	0	1	1	0.1169	0.0878	1	1	0.428	9	82	0
50	1	625	1	1	3	0.1169	0.0878	0	1	0.574	78	0	0
50	1	626	1	1	3	0.1169	0.0878	1	1	0.595	76	0	82
50	1	627	0	1	1	0.1169	0.0878	1	1	0.617	7	82	0
50	1	628	0	2	2	0.1169	0.0878	0	1	0.555	8	82	82
50	1	629	9	1	1	0.1169	0.0878	0	0	0.439	0	0	0
50	1	630	9	2	3	0.1169	0.0878	0	1	0.690	0	0	0
50	1	631	1	1	2	0.1169	0.0878	0	1	0.800	55	0	0
50	1	632	0	1	3	0.1169	0.0878	0	1	0.532	8	82	82
50	1	633	1	2	2	0.1169	0.0878	1	1	0.818	53	82	0
50	1	634	0	2	2	0.1169	0.0878	0	1	0.584	8	82	82
50	1	635	0	2	1	0.1169	0.0878	1	1	0.593	8	0	82
50	1	636	0	1	1	0.1169	0.0878	0	1	0.536	8	82	82
50	1	637	1	2	3	0.1169	0.0878	0	1	0.522	83	0	0
50	1	638	1	2	1	0.1169	0.0878	0	1	0.522	83	0	0
50	1	639	9	2	3	0.1169	0.0878	1	1	0.521	0	82	0
50	1	640	1	1	2	0.1169	0.0878	0	1	0.808	54	0	0
50	1	641	0	2	3	0.1169	0.0878	1	1	0.742	6	0	82
50	1	642	1	1	1	0.1169	0.0878	0	1	0.605	74	0	0
50	1	643	0	2	3	0.1169	0.0878	0	1	0.471	9	82	82
50	1	644	9	1	3	0.1169	0.0878	0	0	0.411	0	0	0
50	1	645	0	1	3	0.1169	0.0878	1	0	1.226	0	82	0
50	1	646	0	1	1	0.1169	0.0878	1	1	0.965	5	82	0
50	1	647	1	2	3	0.1169	0.0878	1	1	0.720	63	82	0
50	1	648	1	1	1	0.1169	0.0878	0	1	0.454	90	0	0
50	1	649	1	1	1	0.1169	0.0878	0	1	0.503	85	0	0
50	1	650	1	2	3	0.1169	0.0878	1	1	0.484	87	82	0
50	1	651	1	1	3	0.1169	0.0878	1	1	1.212	50	0	82
50	1	652	0	2	3	0.1169	0.0878	1	1	1.040	5	0	82
50	1	653	1	2	3	0.1169	0.0878	0	1	0.632	72	0	0
50	1	654	0	2	2	0.1169	0.0878	0	1	0.448	9	82	82
50	1	655	1	2	2	0.1169	0.0878	1	1	0.419	93	82	0
50	1	656	0	2	2	0.1169	0.0878	0	1	0.469	9	82	82
50	1	657	1	1	3	0.1169	0.0878	1	1	0.691	66	0	82
50	1	658	9	1	3	0.1169	0.0878	0	1	0.466	0	0	0
50	1	659	1	2	3	0.1169	0.0878	0	1	0.540	81	0	0
50	1	660	1	2	2	0.1169	0.0878	1	1	0.558	79	82	0
50	1	661	9	2	3	0.1169	0.0878	1	1	0.534	0	0	82
50	1	662	0	1	3	0.1169	0.0878	0	1	0.584	8	82	82
50	1	663	9	1	1	0.1169	0.0878	0	1	0.553	0	82	82
50	1	664	0	1	2	0.1169	0.0878	0	1	0.638	7	82	82
50	1	665	0	2	3	0.1169	0.0878	0	1	0.502	8	82	82
50	1	666	0	1	3	0.1169	0.0878	1	1	0.553	8	82	0
50	1	667	9	2	3	0.1169	0.0878	1	1	0.593	0	0	82
50	1	668	1	1	1	0.1169	0.0878	1	1	0.676	67	0	82
50	1	669	1	2	3	0.1169	0.0878	0	1	0.508	84	0	0
50	1	670	1	1	3	0.1169	0.0878	1	1	0.567	78	0	82
50	1	671	0	2	3	0.1169	0.0878	0	1	0.397	10	82	82
50	1	672	0	1	3	0.1169	0.0878	0	1	0.453	9	82	82
50	1	673	1	1	2	0.1169	0.0878	0	1	0.598	75	0	0
50	1	674	1	2	2	0.1169	0.0878	1	1	0.445	90	82	0
50	1	675	9	1	3	0.1169	0.0878	1	1	0.707	0	82	0
50	1	676	0	2	2	0.1169	0.0878	1	1	0.734	6	0	82
50	1	677	1	1	1	0.1169	0.0878	1	1	0.817	53	0	82
50	1	678	1	2	3	0.1169	0.0878	1	1	0.511	84	82	0
50	1	679	1	1	1	0.1169	0.0878	1	1	0.572	78	0	82
50	1	680	1	2	3	0.1169	0.0878	1	1	0.421	93	82	0
50	1	681	9	1	3	0.1169	0.0878	1	1	0.458	0	0	82
50	1	682	1	2	3	0.1169	0.0878	1	1	0.500	85	82	0
50	1	683	1	2	2	0.1169	0.0878	0	1	0.474	88	0	0
50	1	684	0	1	3	0.1169	0.0878	0	1	0.613	7	82	82
50	1	685	0	2	2	0.1169	0.0878	0	1	0.600	8	82	82
50	1	686	9	1	3	0.1169	0.0878	0	1	0.653	0	0	0
50	1	687	9	2	3	0.1169	0.0878	1	1	0.526	0	82	0
50	1	688	1	2	2	0.1169	0.0878	1	1	0.583	77	82	0
50	1	689	1	2	3	0.1169	0.0878	1	1	0.490	86	82	0
50	1	690	0	2	3	0.1169	0.0878	1	1	0.517	8	0	82
50	1	691	9	1	2	0.1169	0.0878	0	1	0.516	0	0	0
50	1	692	0	1	1	0.1169	0.0878	0	1	0.630	7	82	82
50	1	693	0	2	2	0.1169	0.0878	1	1	0.574	8	0	82
50	1	694	0	2	2	0.1169	0.0878	0	1	0.588	8	82	82
50	1	695	0	1	3	0.1169	0.0878	1	1	0.492	9	82	0
50	1	696	0	2	3	0.1169	0.0878	0	1	0.490	9	82	82
50	1	697	0	1	3	0.1169	0.0878	1	1	0.553	8	82	0
50	1	698	1	1	3	0.1169	0.0878	0	0	0.670	0	0	0
50	1	699	0	2	1	0.1169	0.0878	0	1	0.650	7	82	82
50	1	700	9	1	2	0.1169	0.0878	0	1	0.691	0	82	82
50	1	701	1	2	1	0.1169	0.0878	0	1	0.486	86	0	0
50	1	702	0	2	1	0.1169	0.0878	0	1	0.418	9	82	82
50	1	703	0	1	3	0.1169	0.0878	0	1	0.570	8	82	82
50	1	704	9	2	2	0.1169	0.0878	1	1	0.481	0	82	0
50	1	705	0	2	1	0.1169	0.0878	1	1	0.751	6	0	82
50	1	706	9	1	1	0.1169	0.0878	1	1	0.680	0	0	82
50	1	707	0	1	1	0.1169	0.0878	1	1	0.673	7	82	0
50	1	708	0	1	1	0.1169	0.0878	0	1	0.769	6	82	82
50	1	709	1	2	1	0.1169	0.0878	1	1	0.592	76	82	0
50	1	710	0	2	1	0.1169	0.0878	0	1	0.419	9	82	82
50	1	711	1	1	3	0.1169	0.0878	0	1	0.579	77	0	0
50	1	712	0	2	3	0.1169	0.0878	1	1	0.600	8	0	82
50	1	713	9	2	3	0.1169	0.0878	0	0	0.782	0	0	0
50	1	714	0	2	3	0.1169	0.0878	0	1	0.931	5	82	82
50	1	715	0	1	3	0.1169	0.0878	0	1	0.719	6	82	82
50	1	716	9	1	1	0.1169	0.0878	0	1	0.689	0	0	0
50	1	717	1	2	3	0.1169	0.0878	0	1	0.752	60	0	0
50	1	718	1	2	3	0.1169	0.0878	1	1	0.652	70	82	0
50	1	719	0	2	3	0.1169	0.0878	1	1	0.628	7	0	82
50	1	720	1	2	2	0.1169	0.0878	0	1	0.650	70	0	0
