sub	sess	t	loc	co1	co2	or	resp	rt
50	1	1	2	1.0000	1.0000	1	1	2.213
50	1	2	2	1.0000	1.0000	0	1	1.016
50	1	3	1	1.0000	1.0000	1	1	0.743
50	1	4	2	1.0000	1.0000	0	1	0.573
50	1	5	1	1.0000	1.0000	0	0	0.682
50	1	6	1	1.0000	1.0000	0	1	0.682
50	1	7	1	1.0000	1.0000	0	1	0.736
50	1	8	1	1.0000	1.0000	1	1	0.638
50	1	9	1	1.0000	1.0000	0	1	0.699
50	1	10	1	1.0000	1.0000	1	1	0.611
50	1	11	1	1.0000	1.0000	1	1	0.736
50	1	12	2	1.0000	1.0000	0	1	0.576
50	1	13	2	1.0000	1.0000	0	1	0.947
50	1	14	2	1.0000	1.0000	1	1	0.607
50	1	15	1	1.0000	1.0000	1	1	0.696
50	1	16	1	1.0000	1.0000	0	1	0.670
50	1	17	2	1.0000	1.0000	0	1	0.572
50	1	18	2	1.0000	1.0000	1	1	0.670
50	1	19	1	1.0000	1.0000	1	1	0.619
50	1	20	2	1.0000	1.0000	1	1	0.589
50	1	21	2	1.0000	1.0000	1	1	0.725
50	1	22	1	1.0000	1.0000	0	1	0.706
50	1	23	1	1.0000	1.0000	1	1	0.732
50	1	24	1	1.0000	1.0000	1	1	0.685
50	1	25	2	1.0000	1.0000	0	1	0.592
50	1	26	2	1.0000	1.0000	0	1	0.513
50	1	27	2	1.0000	1.0000	1	1	0.581
50	1	28	1	1.0000	1.0000	0	1	0.659
50	1	29	2	0.2500	0.2500	0	1	0.446
50	1	30	2	0.2629	0.2629	1	1	0.520
50	1	31	1	0.2758	0.2758	0	1	0.650
50	1	32	2	0.2887	0.2887	0	1	0.552
50	1	33	1	0.3016	0.3016	0	1	0.595
50	1	34	2	0.3145	0.3145	0	1	0.450
50	1	35	1	0.3274	0.3274	1	1	0.500
50	1	36	2	0.3403	0.3403	1	0	0.931
50	1	37	2	0.3532	0.3532	1	1	0.496
50	1	38	1	0.3661	0.3661	0	1	0.525
50	1	39	1	0.3790	0.3790	0	1	0.455
50	1	40	2	0.3919	0.3919	1	1	0.537
50	1	41	2	0.4048	0.4048	1	1	0.449
50	1	42	2	0.4177	0.4177	1	1	0.442
50	1	43	2	0.4306	0.4306	0	1	0.436
50	1	44	2	0.4435	0.4435	0	1	0.405
50	1	45	1	0.4565	0.4565	1	1	0.554
50	1	46	2	0.4694	0.4694	1	1	0.558
50	1	47	2	0.4823	0.4823	0	1	0.420
50	1	48	2	0.4952	0.4952	1	1	0.434
50	1	49	2	0.5081	0.5081	1	1	0.417
50	1	50	1	0.5210	0.5210	1	1	0.520
50	1	51	2	0.5339	0.5339	0	1	0.409
50	1	52	1	0.5468	0.5468	0	0	0.430
50	1	53	2	0.5597	0.5597	0	1	0.403
50	1	54	1	0.5726	0.5726	1	1	0.597
50	1	55	2	0.5855	0.5855	0	1	0.393
50	1	56	1	0.5984	0.5984	0	1	0.474
50	1	57	1	0.6113	0.6113	1	1	0.467
50	1	58	1	0.6242	0.6242	1	1	0.497
50	1	59	1	0.6371	0.6371	1	1	0.433
50	1	60	1	0.6500	0.6500	1	1	0.474
50	1	61	1	0.2500	0.2500	1	1	0.392
50	1	62	1	0.2629	0.2629	0	1	0.480
50	1	63	2	0.2758	0.2758	0	1	0.664
50	1	64	1	0.2887	0.2887	0	1	0.495
50	1	65	1	0.3016	0.3016	1	1	0.508
50	1	66	2	0.3145	0.3145	1	1	0.569
50	1	67	2	0.3274	0.3274	1	1	0.567
50	1	68	2	0.3403	0.3403	0	1	0.435
50	1	69	1	0.3532	0.3532	1	1	0.574
50	1	70	2	0.3661	0.3661	1	1	0.469
50	1	71	1	0.3790	0.3790	0	1	0.531
50	1	72	1	0.3919	0.3919	1	1	0.554
50	1	73	2	0.4048	0.4048	1	1	0.650
50	1	74	1	0.4177	0.4177	0	1	0.530
50	1	75	1	0.4306	0.4306	1	1	0.424
50	1	76	2	0.4435	0.4435	0	1	0.448
50	1	77	1	0.4565	0.4565	1	1	0.576
50	1	78	2	0.4694	0.4694	0	1	0.461
50	1	79	1	0.4823	0.4823	0	1	0.562
50	1	80	2	0.4952	0.4952	0	1	0.406
50	1	81	2	0.5081	0.5081	1	1	0.433
50	1	82	1	0.5210	0.5210	0	1	0.461
50	1	83	2	0.5339	0.5339	1	1	0.459
50	1	84	1	0.5468	0.5468	0	1	0.458
50	1	85	1	0.5597	0.5597	1	1	0.541
50	1	86	1	0.5726	0.5726	1	1	0.529
50	1	87	1	0.5855	0.5855	0	1	0.428
50	1	88	1	0.5984	0.5984	0	1	0.434
50	1	89	1	0.6113	0.6113	0	1	0.381
50	1	90	2	0.6242	0.6242	1	1	0.419
50	1	91	2	0.6371	0.6371	0	1	0.405
50	1	92	2	0.6500	0.6500	0	1	0.399
50	1	93	1	0.1863	0.6500	0	1	0.500
50	1	94	2	0.1863	0.2397	1	1	0.827
50	1	95	2	0.1863	0.2331	1	1	0.841
50	1	96	2	0.1863	0.2264	1	1	0.557
50	1	97	2	0.1863	0.2196	1	1	0.525
50	1	98	1	0.1714	0.2196	1	1	0.607
50	1	99	2	0.1714	0.2127	0	1	0.494
50	1	100	1	0.1573	0.2127	1	1	0.635
50	1	101	1	0.1439	0.2127	1	1	0.525
50	1	102	2	0.1439	0.2057	0	1	0.417
50	1	103	2	0.1439	0.1985	1	0	0.701
50	1	104	1	0.1308	0.1985	0	0	0.743
50	1	105	2	0.1308	0.2203	0	1	0.428
50	1	106	2	0.1308	0.2146	1	1	0.675
50	1	107	2	0.1308	0.2088	0	1	0.453
50	1	108	1	0.1685	0.2088	0	0	0.761
50	1	109	1	0.2029	0.2088	1	1	0.605
50	1	110	2	0.2029	0.2032	0	1	0.479
50	1	111	1	0.1918	0.2032	1	1	0.507
50	1	112	1	0.1818	0.2032	1	1	0.578
50	1	113	1	0.1725	0.2032	1	1	0.461
50	1	114	2	0.1725	0.1974	0	1	0.694
50	1	115	1	0.1639	0.1974	0	1	0.611
50	1	116	1	0.1557	0.1974	0	1	0.667
50	1	117	2	0.1557	0.1917	1	1	0.665
50	1	118	2	0.1557	0.1860	1	1	0.563
50	1	119	1	0.1480	0.1860	0	1	0.629
50	1	120	2	0.1480	0.1802	0	1	0.480
50	1	121	1	0.1406	0.1802	1	1	0.533
50	1	122	1	0.1337	0.1802	1	1	0.546
50	1	123	2	0.1337	0.1744	1	1	0.523
50	1	124	1	0.1270	0.1744	1	1	1.277
50	1	125	2	0.1270	0.1685	1	1	0.682
50	1	126	2	0.1270	0.1625	0	1	0.593
50	1	127	1	0.1205	0.1625	0	1	0.687
50	1	128	2	0.1205	0.1564	0	1	0.591
50	1	129	1	0.1143	0.1564	0	0	1.484
50	1	130	1	0.1319	0.1564	0	1	0.563
50	1	131	2	0.1319	0.1502	1	1	0.799
50	1	132	1	0.1260	0.1502	0	1	0.601
50	1	133	1	0.1203	0.1502	1	0	1.082
50	1	134	2	0.1203	0.1439	0	1	0.608
50	1	135	1	0.1369	0.1439	0	1	0.694
50	1	136	2	0.1369	0.1373	1	1	0.727
50	1	137	2	0.1369	0.1305	1	1	0.641
50	1	138	2	0.1369	0.1236	1	1	0.654
50	1	139	1	0.1314	0.1236	1	1	0.838
50	1	140	1	0.1262	0.1236	1	1	0.717
50	1	141	2	0.1262	0.1164	0	0	1.237
50	1	142	1	0.1211	0.1164	0	1	0.670
50	1	143	1	0.1163	0.1164	0	1	0.554
50	1	144	1	0.1116	0.1164	1	1	0.702
50	1	145	2	0.1116	0.1381	0	1	0.465
50	1	146	1	0.1071	0.1381	1	1	0.471
50	1	147	1	0.1027	0.1381	1	1	0.560
50	1	148	2	0.1027	0.1323	1	1	0.577
50	1	149	2	0.1027	0.1264	0	1	0.571
50	1	150	2	0.1027	0.1204	1	1	0.540
50	1	151	2	0.1027	0.1143	0	1	0.400
50	1	152	1	0.0984	0.1143	0	0	0.670
50	1	153	1	0.1110	0.1143	0	0	1.044
50	1	154	1	0.1235	0.1143	0	1	0.516
50	1	155	2	0.1235	0.1082	0	1	0.593
50	1	156	2	0.1235	0.1019	0	1	0.494
