sub	sess	t	rew	loc	cue	co1	co2	or	resp	rt	rew_tot	left_col	right_col
57	1	1	1	1	3	0.0911	0.1949	1	1	2.279	50	82	0
57	1	2	1	2	2	0.0911	0.1949	1	1	1.286	50	0	82
57	1	3	9	1	1	0.0911	0.1949	1	1	0.682	0	0	82
57	1	4	0	1	3	0.0911	0.1949	1	1	0.747	6	0	82
57	1	5	9	2	3	0.0911	0.1949	0	1	0.888	0	0	0
57	1	6	1	1	3	0.0911	0.1949	1	1	0.541	81	82	0
57	1	7	0	1	3	0.0911	0.1949	0	1	0.625	7	0	0
57	1	8	0	1	3	0.0911	0.1949	0	1	0.546	8	0	0
57	1	9	1	2	2	0.0911	0.1949	0	1	0.944	50	82	82
57	1	10	9	2	1	0.0911	0.1949	1	1	0.778	0	82	0
57	1	11	9	1	1	0.0911	0.1949	0	0	1.135	0	82	82
57	1	12	0	2	2	0.0911	0.1949	0	0	0.827	0	0	0
57	1	13	9	2	2	0.0911	0.1949	0	0	1.052	0	82	82
57	1	14	0	2	2	0.0911	0.1949	0	0	2.171	0	0	0
57	1	15	1	1	3	0.0911	0.1949	1	1	0.767	58	82	0
57	1	16	1	1	1	0.0911	0.1949	1	1	1.484	50	82	0
57	1	17	1	2	3	0.0911	0.1949	0	1	0.762	59	82	82
57	1	18	1	2	2	0.0911	0.1949	0	1	0.652	70	82	82
57	1	19	1	2	3	0.0911	0.1949	1	1	0.615	74	0	82
57	1	20	1	1	3	0.0911	0.1949	0	0	0.854	0	82	82
57	1	21	1	2	1	0.0911	0.1949	1	1	1.728	50	0	82
57	1	22	0	1	2	0.0911	0.1949	0	1	1.414	5	0	0
57	1	23	0	2	2	0.0911	0.1949	1	0	1.913	0	82	0
57	1	24	0	2	3	0.0911	0.1949	1	1	1.134	5	82	0
57	1	25	1	1	3	0.0911	0.1949	1	1	0.955	50	82	0
57	1	26	9	1	3	0.0911	0.1949	1	1	0.693	0	82	0
57	1	27	9	1	3	0.0911	0.1949	0	1	0.822	0	82	82
57	1	28	1	1	3	0.0911	0.1949	1	0	0.927	0	82	0
57	1	29	9	2	2	0.0911	0.1949	0	1	0.666	0	0	0
57	1	30	0	1	3	0.0911	0.1949	0	0	1.073	0	0	0
57	1	31	1	1	1	0.0911	0.1949	0	1	0.754	60	82	82
57	1	32	1	2	2	0.0911	0.1949	1	0	0.810	0	0	82
57	1	33	9	2	3	0.0911	0.1949	1	0	0.757	0	82	0
57	1	34	1	2	2	0.0911	0.1949	0	1	0.638	71	82	82
57	1	35	0	1	3	0.0911	0.1949	1	1	0.693	7	0	82
57	1	36	9	2	3	0.0911	0.1949	0	1	0.539	0	82	82
57	1	37	1	1	1	0.0911	0.1949	0	1	0.793	56	82	82
57	1	38	0	2	2	0.0911	0.1949	0	1	0.523	8	0	0
57	1	39	0	1	2	0.0911	0.1949	0	1	0.785	6	0	0
57	1	40	1	1	1	0.0911	0.1949	1	0	1.354	0	82	0
57	1	41	1	1	3	0.0911	0.1949	1	0	0.824	0	82	0
57	1	42	9	2	2	0.0911	0.1949	1	1	1.650	0	82	0
57	1	43	0	1	3	0.0911	0.1949	0	1	0.787	6	0	0
57	1	44	9	2	2	0.0911	0.1949	1	1	0.686	0	0	82
57	1	45	1	2	2	0.0911	0.1949	1	1	1.532	50	0	82
57	1	46	1	2	3	0.0911	0.1949	0	1	0.543	81	82	82
57	1	47	1	1	2	0.0911	0.1949	0	1	0.811	54	82	82
57	1	48	1	2	3	0.0911	0.1949	0	1	0.427	92	82	82
57	1	49	0	2	3	0.0911	0.1949	0	1	0.422	9	0	0
57	1	50	1	1	1	0.0911	0.1949	1	1	1.222	50	82	0
57	1	51	0	2	2	0.0911	0.1949	0	1	0.496	9	0	0
57	1	52	0	2	3	0.0911	0.1949	1	1	0.485	9	82	0
57	1	53	0	1	3	0.0911	0.1949	0	1	0.778	6	0	0
57	1	54	0	2	2	0.0911	0.1949	1	1	0.396	10	82	0
57	1	55	0	2	2	0.0911	0.1949	1	0	0.373	0	82	0
57	1	56	0	1	1	0.0911	0.1949	0	1	0.864	5	0	0
57	1	57	0	2	3	0.0911	0.1949	1	0	1.016	0	82	0
57	1	58	0	2	3	0.0911	0.1949	1	1	0.592	8	82	0
57	1	59	0	2	1	0.0911	0.1949	1	1	0.450	9	82	0
57	1	60	9	2	2	0.0911	0.1949	1	1	0.530	0	82	0
57	1	61	1	2	3	0.0911	0.1949	1	1	0.558	79	0	82
57	1	62	1	2	3	0.0911	0.1949	1	1	0.554	80	0	82
57	1	63	1	1	3	0.0911	0.1949	0	1	0.693	66	82	82
57	1	64	1	2	3	0.0911	0.1949	1	1	0.748	60	0	82
57	1	65	1	1	1	0.0911	0.1949	1	1	0.897	50	82	0
57	1	66	0	1	1	0.0911	0.1949	0	1	0.725	6	0	0
57	1	67	0	1	3	0.0911	0.1949	0	1	0.682	7	0	0
57	1	68	0	2	2	0.0911	0.1949	1	1	0.648	7	82	0
57	1	69	1	1	3	0.0911	0.1949	0	1	0.639	71	82	82
57	1	70	0	1	3	0.0911	0.1949	1	1	0.502	8	0	82
57	1	71	9	1	3	0.0911	0.1949	0	1	0.693	0	0	0
57	1	72	1	1	3	0.0911	0.1949	1	1	0.811	54	82	0
57	1	73	0	2	2	0.0911	0.1949	1	1	1.013	5	82	0
57	1	74	1	2	3	0.0911	0.1949	1	1	0.719	63	0	82
57	1	75	9	1	3	0.0911	0.1949	1	0	0.741	0	0	82
57	1	76	1	2	2	0.0911	0.1949	1	0	0.826	0	0	82
57	1	77	0	2	2	0.0911	0.1949	1	1	1.043	5	82	0
57	1	78	0	2	1	0.0911	0.1949	1	1	0.706	6	82	0
57	1	79	0	2	2	0.0911	0.1949	0	1	0.488	9	0	0
57	1	80	1	1	1	0.0911	0.1949	1	1	0.878	50	82	0
57	1	81	1	2	2	0.0911	0.1949	1	1	0.698	65	0	82
57	1	82	1	1	3	0.0911	0.1949	0	1	0.784	57	82	82
57	1	83	0	1	2	0.0911	0.1949	1	1	0.691	7	0	82
57	1	84	1	2	1	0.0911	0.1949	1	1	0.856	50	0	82
57	1	85	9	1	3	0.0911	0.1949	1	1	0.802	0	0	82
57	1	86	0	1	3	0.0911	0.1949	0	1	0.700	6	0	0
57	1	87	0	1	1	0.0911	0.1949	0	1	0.675	7	0	0
57	1	88	1	2	2	0.0911	0.1949	0	1	0.554	80	82	82
57	1	89	1	1	2	0.0911	0.1949	1	1	1.008	50	82	0
57	1	90	1	1	1	0.0911	0.1949	1	1	0.857	50	82	0
57	1	91	1	1	3	0.0911	0.1949	0	1	0.731	62	82	82
57	1	92	9	2	3	0.0911	0.1949	0	1	0.854	0	0	0
57	1	93	9	2	3	0.0911	0.1949	0	1	0.462	0	82	82
57	1	94	9	1	1	0.0911	0.1949	1	1	1.031	0	0	82
57	1	95	0	2	3	0.0911	0.1949	1	1	0.622	7	82	0
57	1	96	0	2	2	0.0911	0.1949	1	1	0.591	8	82	0
57	1	97	0	2	3	0.0911	0.1949	0	1	0.379	10	0	0
57	1	98	0	1	3	0.0911	0.1949	1	1	0.756	6	0	82
57	1	99	1	1	3	0.0911	0.1949	0	1	0.711	64	82	82
57	1	100	1	2	2	0.0911	0.1949	1	1	0.820	53	0	82
57	1	101	0	1	1	0.0911	0.1949	0	1	0.650	7	0	0
57	1	102	1	1	1	0.0911	0.1949	1	0	0.635	0	82	0
57	1	103	1	1	1	0.0911	0.1949	1	0	0.916	0	82	0
57	1	104	0	1	2	0.0911	0.1949	1	1	0.635	7	0	82
57	1	105	1	1	3	0.0911	0.1949	1	1	0.748	60	82	0
57	1	106	1	1	1	0.0911	0.1949	1	1	0.702	65	82	0
57	1	107	1	2	2	0.0911	0.1949	0	1	0.637	71	82	82
57	1	108	0	1	3	0.0911	0.1949	1	1	1.319	5	0	82
57	1	109	0	2	2	0.0911	0.1949	0	1	0.549	8	0	0
57	1	110	0	1	3	0.0911	0.1949	1	1	0.919	5	0	82
57	1	111	0	1	3	0.0911	0.1949	1	1	1.116	5	0	82
57	1	112	9	1	1	0.0911	0.1949	1	1	0.812	0	82	0
57	1	113	0	1	1	0.0911	0.1949	0	0	0.635	0	0	0
57	1	114	0	2	2	0.0911	0.1949	1	1	0.899	5	82	0
57	1	115	1	2	1	0.0911	0.1949	0	1	1.097	50	82	82
57	1	116	9	1	3	0.0911	0.1949	0	1	0.692	0	82	82
57	1	117	1	2	2	0.0911	0.1949	1	1	1.099	50	0	82
57	1	118	1	2	2	0.0911	0.1949	0	0	0.767	0	82	82
57	1	119	9	1	3	0.0911	0.1949	0	1	0.834	0	82	82
57	1	120	1	1	1	0.0911	0.1949	0	1	0.777	57	82	82
57	1	121	1	1	1	0.0911	0.1949	0	1	0.721	63	82	82
57	1	122	9	1	1	0.0911	0.1949	1	0	0.743	0	82	0
57	1	123	0	1	1	0.0911	0.1949	1	0	0.636	0	0	82
57	1	124	9	2	2	0.0911	0.1949	0	1	0.963	0	82	82
57	1	125	0	1	1	0.0911	0.1949	0	1	0.798	6	0	0
57	1	126	1	2	2	0.0911	0.1949	0	1	0.735	62	82	82
57	1	127	0	1	1	0.0911	0.1949	0	1	2.258	5	0	0
57	1	128	0	2	1	0.0911	0.1949	0	1	0.708	6	0	0
57	1	129	0	2	3	0.0911	0.1949	1	1	0.633	7	82	0
57	1	130	0	1	3	0.0911	0.1949	1	0	0.842	0	0	82
57	1	131	0	2	2	0.0911	0.1949	1	1	0.778	6	82	0
57	1	132	9	1	1	0.0911	0.1949	1	0	1.894	0	82	0
57	1	133	0	2	3	0.0911	0.1949	1	1	1.077	5	82	0
57	1	134	0	1	3	0.0911	0.1949	1	0	1.086	0	0	82
57	1	135	0	2	2	0.0911	0.1949	0	1	0.540	8	0	0
57	1	136	0	2	3	0.0911	0.1949	1	0	1.128	0	82	0
57	1	137	1	2	1	0.0911	0.1949	1	1	0.835	52	0	82
57	1	138	0	1	1	0.0911	0.1949	1	0	0.890	0	0	82
57	1	139	0	1	1	0.0911	0.1949	1	0	1.807	0	0	82
57	1	140	9	1	1	0.0911	0.1949	0	1	0.712	0	0	0
57	1	141	9	1	3	0.0911	0.1949	1	0	0.939	0	0	82
57	1	142	0	1	3	0.0911	0.1949	0	1	0.712	6	0	0
57	1	143	9	2	2	0.0911	0.1949	0	1	0.766	0	82	82
57	1	144	1	2	3	0.0911	0.1949	1	1	0.856	50	0	82
57	1	145	0	2	3	0.0911	0.1949	1	1	0.687	7	82	0
57	1	146	0	2	2	0.0911	0.1949	1	1	1.167	5	82	0
57	1	147	1	1	3	0.0911	0.1949	1	0	1.056	0	82	0
57	1	148	0	2	2	0.0911	0.1949	1	1	0.752	6	82	0
57	1	149	0	2	3	0.0911	0.1949	1	1	0.539	8	82	0
57	1	150	0	2	3	0.0911	0.1949	0	1	0.584	8	0	0
57	1	151	0	2	3	0.0911	0.1949	0	1	0.434	9	0	0
57	1	152	1	1	3	0.0911	0.1949	0	1	0.953	50	82	82
57	1	153	0	2	2	0.0911	0.1949	1	1	0.764	6	82	0
57	1	154	0	1	3	0.0911	0.1949	1	0	0.694	0	0	82
57	1	155	1	2	3	0.0911	0.1949	0	1	1.037	50	82	82
57	1	156	0	1	1	0.0911	0.1949	1	0	0.814	0	0	82
57	1	157	0	2	3	0.0911	0.1949	0	1	0.728	6	0	0
57	1	158	1	2	2	0.0911	0.1949	1	1	0.598	75	0	82
57	1	159	1	2	2	0.0911	0.1949	1	1	0.558	79	0	82
57	1	160	9	2	1	0.0911	0.1949	1	1	0.883	0	0	82
57	1	161	1	2	2	0.0911	0.1949	0	0	1.076	0	82	82
57	1	162	1	2	3	0.0911	0.1949	0	1	0.891	50	82	82
57	1	163	0	1	3	0.0911	0.1949	0	1	0.730	6	0	0
57	1	164	1	1	3	0.0911	0.1949	0	1	0.886	50	82	82
57	1	165	0	1	1	0.0911	0.1949	0	1	0.652	7	0	0
57	1	166	9	2	3	0.0911	0.1949	1	1	0.573	0	82	0
57	1	167	0	1	1	0.0911	0.1949	0	1	0.935	5	0	0
57	1	168	0	2	1	0.0911	0.1949	0	1	0.947	5	0	0
57	1	169	1	2	3	0.0911	0.1949	0	1	0.701	65	82	82
57	1	170	9	1	1	0.0911	0.1949	0	1	0.704	0	0	0
57	1	171	9	2	3	0.0911	0.1949	0	1	0.525	0	82	82
57	1	172	1	2	1	0.0911	0.1949	0	1	0.819	53	82	82
57	1	173	0	1	1	0.0911	0.1949	0	1	0.908	5	0	0
57	1	174	1	2	2	0.0911	0.1949	0	1	0.568	78	82	82
57	1	175	0	2	3	0.0911	0.1949	1	1	0.546	8	82	0
57	1	176	0	2	2	0.0911	0.1949	1	1	0.557	8	82	0
57	1	177	1	2	3	0.0911	0.1949	0	1	0.400	95	82	82
57	1	178	1	1	2	0.0911	0.1949	0	1	0.818	53	82	82
57	1	179	1	1	3	0.0911	0.1949	0	1	0.657	69	82	82
57	1	180	9	2	3	0.0911	0.1949	1	1	0.768	0	0	82
57	1	181	9	1	3	0.0911	0.1949	1	1	0.826	0	82	0
57	1	182	9	2	2	0.0911	0.1949	1	1	0.809	0	82	0
57	1	183	9	2	2	0.0911	0.1949	1	1	0.577	0	0	82
57	1	184	1	1	2	0.0911	0.1949	1	1	0.843	51	82	0
57	1	185	0	2	2	0.0911	0.1949	0	1	0.850	5	0	0
57	1	186	0	1	1	0.0911	0.1949	1	1	1.611	5	0	82
57	1	187	1	1	3	0.0911	0.1949	1	1	0.757	59	82	0
57	1	188	0	2	3	0.0911	0.1949	1	1	0.562	8	82	0
57	1	189	1	2	2	0.0911	0.1949	0	0	1.271	0	82	82
57	1	190	9	2	2	0.0911	0.1949	0	1	0.564	0	0	0
57	1	191	0	1	1	0.0911	0.1949	1	1	0.727	6	0	82
57	1	192	0	2	3	0.0911	0.1949	0	1	0.604	7	0	0
57	1	193	0	2	3	0.0911	0.1949	0	1	0.509	8	0	0
57	1	194	1	1	1	0.0911	0.1949	0	1	1.770	50	82	82
57	1	195	0	2	3	0.0911	0.1949	0	1	0.516	8	0	0
57	1	196	0	2	1	0.0911	0.1949	1	1	0.674	7	82	0
57	1	197	1	1	1	0.0911	0.1949	1	0	0.826	0	82	0
57	1	198	1	1	3	0.0911	0.1949	1	1	1.226	50	82	0
57	1	199	1	2	3	0.0911	0.1949	1	1	0.780	57	0	82
57	1	200	1	2	3	0.0911	0.1949	1	1	0.536	81	0	82
57	1	201	9	1	1	0.0911	0.1949	1	1	1.112	0	82	0
57	1	202	0	1	1	0.0911	0.1949	1	0	1.988	0	0	82
57	1	203	0	2	2	0.0911	0.1949	0	1	0.750	6	0	0
57	1	204	9	2	1	0.0911	0.1949	0	1	0.665	0	0	0
57	1	205	1	1	3	0.0911	0.1949	0	0	1.374	0	82	82
57	1	206	0	1	1	0.0911	0.1949	1	0	0.800	0	0	82
57	1	207	1	1	3	0.0911	0.1949	0	1	0.732	62	82	82
57	1	208	1	2	3	0.0911	0.1949	0	1	0.737	61	82	82
57	1	209	1	1	1	0.0911	0.1949	0	1	0.859	50	82	82
57	1	210	0	2	3	0.0911	0.1949	0	1	0.449	9	0	0
57	1	211	1	2	3	0.0911	0.1949	0	1	1.824	50	82	82
57	1	212	0	2	2	0.0911	0.1949	0	1	0.499	9	0	0
57	1	213	0	2	2	0.0911	0.1949	0	1	0.424	9	0	0
57	1	214	0	1	3	0.0911	0.1949	0	1	0.712	6	0	0
57	1	215	0	2	3	0.0911	0.1949	0	1	0.637	7	0	0
57	1	216	9	2	2	0.0911	0.1949	0	1	0.462	0	0	0
57	1	217	1	1	3	0.0911	0.1949	1	1	0.980	50	82	0
57	1	218	9	1	1	0.0911	0.1949	0	1	0.717	0	82	82
57	1	219	9	2	3	0.0911	0.1949	1	0	1.913	0	0	82
57	1	220	0	2	2	0.0911	0.1949	1	1	0.735	6	82	0
57	1	221	0	1	3	0.0911	0.1949	0	1	0.799	6	0	0
57	1	222	0	2	3	0.0911	0.1949	0	1	0.519	8	0	0
57	1	223	9	2	3	0.0911	0.1949	1	1	0.978	0	82	0
57	1	224	1	2	3	0.0911	0.1949	1	1	0.716	63	0	82
57	1	225	9	1	1	0.0911	0.1949	0	1	0.713	0	82	82
57	1	226	1	1	2	0.0911	0.1949	0	1	1.808	50	82	82
57	1	227	9	2	2	0.0911	0.1949	1	1	0.707	0	0	82
57	1	228	1	2	3	0.0911	0.1949	0	1	0.840	51	82	82
57	1	229	9	1	3	0.0911	0.1949	1	0	0.769	0	0	82
57	1	230	9	2	3	0.0911	0.1949	1	1	0.842	0	0	82
57	1	231	1	1	3	0.0911	0.1949	1	0	0.969	0	82	0
57	1	232	9	2	3	0.0911	0.1949	0	1	0.474	0	0	0
57	1	233	0	1	3	0.0911	0.1949	1	1	0.707	6	0	82
57	1	234	0	1	1	0.0911	0.1949	0	1	1.416	5	0	0
57	1	235	1	1	3	0.0911	0.1949	0	1	0.633	72	82	82
57	1	236	1	2	3	0.0911	0.1949	0	1	0.617	73	82	82
57	1	237	9	1	3	0.0911	0.1949	1	1	0.977	0	82	0
57	1	238	1	2	1	0.0911	0.1949	0	1	0.987	50	82	82
57	1	239	1	2	2	0.0911	0.1949	0	1	0.703	65	82	82
57	1	240	1	1	1	0.0911	0.1949	1	1	0.779	57	82	0
57	1	241	0	2	3	0.0911	0.1949	0	1	0.480	9	0	0
57	1	242	0	1	1	0.0911	0.1949	1	0	0.558	0	0	82
57	1	243	1	1	1	0.0911	0.1949	0	1	0.730	62	82	82
57	1	244	0	2	1	0.0911	0.1949	0	1	0.696	7	0	0
57	1	245	1	1	3	0.0911	0.1949	0	1	0.669	68	82	82
57	1	246	0	1	1	0.0911	0.1949	1	0	0.610	0	0	82
57	1	247	0	2	2	0.0911	0.1949	1	1	0.611	7	82	0
57	1	248	0	2	1	0.0911	0.1949	1	1	0.667	7	82	0
57	1	249	9	1	1	0.0911	0.1949	1	1	1.160	0	0	82
57	1	250	9	1	1	0.0911	0.1949	0	1	0.650	0	0	0
57	1	251	9	1	1	0.0911	0.1949	0	1	0.594	0	0	0
57	1	252	1	2	2	0.0911	0.1949	1	1	0.732	62	0	82
57	1	253	0	1	1	0.0911	0.1949	1	0	0.688	0	0	82
57	1	254	0	1	1	0.0911	0.1949	0	1	0.669	7	0	0
57	1	255	9	1	3	0.0911	0.1949	0	1	0.930	0	0	0
57	1	256	1	2	3	0.0911	0.1949	0	1	0.556	79	82	82
57	1	257	1	1	1	0.0911	0.1949	1	1	0.682	67	82	0
57	1	258	1	2	3	0.0911	0.1949	1	1	0.810	54	0	82
57	1	259	0	1	1	0.0911	0.1949	0	0	0.418	0	0	0
57	1	260	1	1	1	0.0911	0.1949	1	0	1.034	0	82	0
57	1	261	0	1	1	0.0911	0.1949	1	0	0.655	0	0	82
57	1	262	1	2	1	0.0911	0.1949	0	1	1.264	50	82	82
57	1	263	9	2	3	0.0911	0.1949	0	1	0.783	0	0	0
57	1	264	1	1	2	0.0911	0.1949	1	0	0.555	0	82	0
57	1	265	1	1	1	0.0911	0.1949	0	1	0.756	59	82	82
57	1	266	0	1	1	0.0911	0.1949	1	0	0.511	0	0	82
57	1	267	1	1	3	0.0911	0.1949	1	1	1.005	50	82	0
57	1	268	9	1	3	0.0911	0.1949	0	1	0.537	0	0	0
57	1	269	0	2	3	0.0911	0.1949	1	0	0.963	0	82	0
57	1	270	1	2	2	0.0911	0.1949	0	1	0.685	67	82	82
57	1	271	1	2	3	0.0911	0.1949	0	1	0.707	64	82	82
57	1	272	0	2	3	0.0911	0.1949	1	1	0.834	5	82	0
57	1	273	1	1	3	0.0911	0.1949	0	1	0.899	50	82	82
57	1	274	0	1	1	0.0911	0.1949	0	1	0.849	5	0	0
57	1	275	1	1	3	0.0911	0.1949	1	1	0.969	50	82	0
57	1	276	0	2	2	0.0911	0.1949	1	1	0.756	6	82	0
57	1	277	1	1	1	0.0911	0.1949	0	1	0.592	76	82	82
57	1	278	1	2	1	0.0911	0.1949	1	0	0.977	0	0	82
57	1	279	1	2	2	0.0911	0.1949	0	0	0.716	0	82	82
57	1	280	0	2	2	0.0911	0.1949	0	1	0.865	5	0	0
57	1	281	9	1	2	0.0911	0.1949	1	0	0.836	0	82	0
57	1	282	1	1	1	0.0911	0.1949	1	0	0.910	0	82	0
57	1	283	1	2	3	0.0911	0.1949	1	1	1.386	50	0	82
57	1	284	9	2	2	0.0911	0.1949	1	1	0.526	0	0	82
57	1	285	1	1	3	0.0911	0.1949	1	0	1.115	0	82	0
57	1	286	1	1	3	0.0911	0.1949	0	1	0.665	68	82	82
57	1	287	9	2	2	0.0911	0.1949	1	1	0.585	0	82	0
57	1	288	1	2	2	0.0911	0.1949	0	1	0.546	80	82	82
57	1	289	0	1	1	0.0911	0.1949	1	1	0.717	6	0	82
57	1	290	1	1	3	0.0911	0.1949	0	0	0.872	0	82	82
57	1	291	1	2	3	0.0911	0.1949	0	1	0.767	58	82	82
57	1	292	1	1	2	0.0911	0.1949	1	0	0.955	0	82	0
57	1	293	9	2	3	0.0911	0.1949	0	0	0.951	0	82	82
57	1	294	0	1	3	0.0911	0.1949	0	1	0.612	7	0	0
57	1	295	0	1	1	0.0911	0.1949	1	1	0.868	5	0	82
57	1	296	0	1	3	0.0911	0.1949	1	1	0.642	7	0	82
57	1	297	0	2	2	0.0911	0.1949	0	0	0.868	0	0	0
57	1	298	9	2	2	0.0911	0.1949	0	0	0.915	0	0	0
57	1	299	9	1	1	0.0911	0.1949	1	1	0.552	0	0	82
57	1	300	0	2	2	0.0911	0.1949	0	1	0.418	9	0	0
57	1	301	9	1	2	0.0911	0.1949	0	1	0.894	0	0	0
57	1	302	1	1	1	0.0911	0.1949	0	0	0.613	0	82	82
57	1	303	0	1	1	0.0911	0.1949	1	0	0.750	0	0	82
57	1	304	0	2	3	0.0911	0.1949	0	1	0.556	8	0	0
57	1	305	0	1	1	0.0911	0.1949	0	1	0.631	7	0	0
57	1	306	1	1	2	0.0911	0.1949	0	1	0.653	70	82	82
57	1	307	9	1	2	0.0911	0.1949	0	1	0.669	0	82	82
57	1	308	0	1	3	0.0911	0.1949	0	1	0.605	7	0	0
57	1	309	0	1	3	0.0911	0.1949	1	0	0.677	0	0	82
57	1	310	1	2	2	0.0911	0.1949	1	1	0.644	71	0	82
57	1	311	9	2	1	0.0911	0.1949	0	1	1.029	0	82	82
57	1	312	1	1	1	0.0911	0.1949	0	1	0.685	66	82	82
57	1	313	0	1	2	0.0911	0.1949	0	1	0.756	6	0	0
57	1	314	0	1	3	0.0911	0.1949	1	1	0.704	6	0	82
57	1	315	9	1	3	0.0911	0.1949	1	1	1.109	0	82	0
57	1	316	0	2	3	0.0911	0.1949	0	1	0.635	7	0	0
57	1	317	0	1	3	0.0911	0.1949	0	1	0.819	5	0	0
57	1	318	9	1	3	0.0911	0.1949	0	1	0.766	0	82	82
57	1	319	0	2	3	0.0911	0.1949	1	1	0.642	7	82	0
57	1	320	0	2	2	0.0911	0.1949	0	0	1.057	0	0	0
57	1	321	1	2	2	0.0911	0.1949	1	0	0.637	0	0	82
57	1	322	1	2	2	0.0911	0.1949	1	1	0.901	50	0	82
57	1	323	0	1	2	0.0911	0.1949	1	1	1.050	5	0	82
57	1	324	1	2	2	0.0911	0.1949	1	1	0.540	81	0	82
57	1	325	1	2	3	0.0911	0.1949	0	1	0.552	80	82	82
57	1	326	1	1	1	0.0911	0.1949	0	0	1.452	0	82	82
57	1	327	9	1	2	0.0911	0.1949	1	1	0.924	0	0	82
57	1	328	0	2	3	0.0911	0.1949	1	1	0.656	7	82	0
57	1	329	1	2	3	0.0911	0.1949	1	1	0.504	85	0	82
57	1	330	1	1	1	0.0911	0.1949	1	1	0.574	78	82	0
57	1	331	1	1	1	0.0911	0.1949	1	0	0.835	0	82	0
57	1	332	0	1	3	0.0911	0.1949	0	1	0.987	5	0	0
57	1	333	9	2	2	0.0911	0.1949	0	1	0.461	0	82	82
57	1	334	0	1	1	0.0911	0.1949	0	1	1.758	5	0	0
57	1	335	1	2	2	0.0911	0.1949	0	1	0.506	84	82	82
57	1	336	1	2	3	0.0911	0.1949	1	1	0.617	73	0	82
57	1	337	1	1	1	0.0911	0.1949	0	1	0.851	50	82	82
57	1	338	0	1	3	0.0911	0.1949	0	1	0.729	6	0	0
57	1	339	0	2	3	0.0911	0.1949	0	1	0.486	9	0	0
57	1	340	9	2	3	0.0911	0.1949	1	1	0.508	0	82	0
57	1	341	9	1	1	0.0911	0.1949	0	1	0.657	0	82	82
57	1	342	0	1	3	0.0911	0.1949	1	1	0.777	6	0	82
57	1	343	9	2	3	0.0911	0.1949	1	1	0.717	0	0	82
57	1	344	0	2	2	0.0911	0.1949	0	1	0.523	8	0	0
57	1	345	1	1	1	0.0911	0.1949	0	0	1.553	0	82	82
57	1	346	1	2	2	0.0911	0.1949	0	1	0.483	87	82	82
57	1	347	0	2	1	0.0911	0.1949	0	1	0.444	9	0	0
57	1	348	1	1	1	0.0911	0.1949	0	1	0.764	59	82	82
57	1	349	0	2	3	0.0911	0.1949	0	1	0.511	8	0	0
57	1	350	1	2	3	0.0911	0.1949	1	1	0.613	74	0	82
57	1	351	1	2	2	0.0911	0.1949	1	0	0.959	0	0	82
57	1	352	0	1	3	0.0911	0.1949	1	1	0.729	6	0	82
57	1	353	1	2	3	0.0911	0.1949	0	1	0.460	89	82	82
57	1	354	1	1	1	0.0911	0.1949	0	1	1.099	50	82	82
57	1	355	0	1	2	0.0911	0.1949	1	1	0.593	8	0	82
57	1	356	0	1	2	0.0911	0.1949	0	1	0.610	7	0	0
57	1	357	1	2	2	0.0911	0.1949	1	1	0.635	72	0	82
57	1	358	9	1	3	0.0911	0.1949	0	0	0.787	0	0	0
57	1	359	1	2	3	0.0911	0.1949	1	1	0.711	64	0	82
57	1	360	1	2	3	0.0911	0.1949	1	1	0.540	81	0	82
57	1	361	1	1	3	0.0911	0.1949	1	1	0.650	70	82	0
57	1	362	0	2	2	0.0911	0.1949	1	1	0.499	9	82	0
57	1	363	0	1	3	0.0911	0.1949	0	1	0.631	7	0	0
57	1	364	1	2	2	0.0911	0.1949	1	1	0.901	50	0	82
57	1	365	9	1	2	0.0911	0.1949	0	1	0.900	0	0	0
57	1	366	0	2	2	0.0911	0.1949	1	1	0.538	8	82	0
57	1	367	1	2	3	0.0911	0.1949	0	1	0.435	91	82	82
57	1	368	9	1	1	0.0911	0.1949	0	1	0.741	0	82	82
57	1	369	0	2	1	0.0911	0.1949	1	0	0.617	0	82	0
57	1	370	0	1	3	0.0911	0.1949	1	0	0.788	0	0	82
57	1	371	1	2	2	0.0911	0.1949	0	1	0.749	60	82	82
57	1	372	0	2	3	0.0911	0.1949	1	1	0.770	6	82	0
57	1	373	0	2	3	0.0911	0.1949	0	1	0.381	10	0	0
57	1	374	0	1	3	0.0911	0.1949	0	1	0.831	5	0	0
57	1	375	1	2	3	0.0911	0.1949	0	1	0.503	85	82	82
57	1	376	9	2	3	0.0911	0.1949	1	1	0.533	0	0	82
57	1	377	0	1	1	0.0911	0.1949	1	0	0.691	0	0	82
57	1	378	9	2	3	0.0911	0.1949	0	1	0.377	0	0	0
57	1	379	1	2	2	0.0911	0.1949	0	1	0.348	100	82	82
57	1	380	1	2	2	0.0911	0.1949	0	1	0.433	92	82	82
57	1	381	9	2	3	0.0911	0.1949	1	0	0.401	0	0	82
57	1	382	1	1	1	0.0911	0.1949	0	1	1.921	50	82	82
57	1	383	0	2	3	0.0911	0.1949	1	1	0.573	8	82	0
57	1	384	0	2	2	0.0911	0.1949	0	1	0.384	10	0	0
57	1	385	0	2	2	0.0911	0.1949	0	1	0.515	8	0	0
57	1	386	9	2	1	0.0911	0.1949	0	1	0.561	0	0	0
57	1	387	1	2	2	0.0911	0.1949	1	1	0.517	83	0	82
57	1	388	0	2	3	0.0911	0.1949	1	1	0.448	9	82	0
57	1	389	1	1	3	0.0911	0.1949	1	0	0.840	0	82	0
57	1	390	9	2	2	0.0911	0.1949	0	1	0.567	0	0	0
57	1	391	1	2	1	0.0911	0.1949	1	1	0.569	78	0	82
57	1	392	9	2	3	0.0911	0.1949	0	1	0.620	0	82	82
57	1	393	1	1	3	0.0911	0.1949	0	1	0.916	50	82	82
57	1	394	1	2	2	0.0911	0.1949	1	1	0.511	84	0	82
57	1	395	0	2	3	0.0911	0.1949	1	1	0.437	9	82	0
57	1	396	0	2	2	0.0911	0.1949	0	1	0.502	8	0	0
57	1	397	9	2	2	0.0911	0.1949	0	1	0.642	0	0	0
57	1	398	1	1	1	0.0911	0.1949	0	0	0.891	0	82	82
57	1	399	0	2	3	0.0911	0.1949	1	1	0.593	8	82	0
57	1	400	9	1	1	0.0911	0.1949	1	1	0.698	0	82	0
57	1	401	1	2	3	0.0911	0.1949	1	1	0.486	86	0	82
57	1	402	1	2	2	0.0911	0.1949	1	1	0.630	72	0	82
57	1	403	1	1	1	0.0911	0.1949	0	1	0.704	65	82	82
57	1	404	9	1	1	0.0911	0.1949	0	1	0.638	0	0	0
57	1	405	1	1	3	0.0911	0.1949	0	1	0.710	64	82	82
57	1	406	0	1	1	0.0911	0.1949	1	0	0.653	0	0	82
57	1	407	1	1	3	0.0911	0.1949	1	1	0.566	78	82	0
57	1	408	0	2	3	0.0911	0.1949	0	1	0.529	8	0	0
57	1	409	0	2	3	0.0911	0.1949	0	1	0.547	8	0	0
57	1	410	0	1	1	0.0911	0.1949	0	1	0.639	7	0	0
57	1	411	9	2	2	0.0911	0.1949	1	1	0.617	0	82	0
57	1	412	9	2	2	0.0911	0.1949	0	1	0.819	0	82	82
57	1	413	9	1	1	0.0911	0.1949	0	1	0.740	0	82	82
57	1	414	1	2	3	0.0911	0.1949	1	1	0.545	81	0	82
57	1	415	0	1	1	0.0911	0.1949	0	1	0.782	6	0	0
57	1	416	0	1	1	0.0911	0.1949	0	1	0.575	8	0	0
57	1	417	1	2	3	0.0911	0.1949	1	1	1.049	50	0	82
57	1	418	1	1	1	0.0911	0.1949	1	0	0.713	0	82	0
57	1	419	0	1	1	0.0911	0.1949	1	1	0.862	5	0	82
57	1	420	9	2	3	0.0911	0.1949	0	1	0.493	0	0	0
57	1	421	0	2	3	0.0911	0.1949	0	1	0.510	8	0	0
57	1	422	0	1	3	0.0911	0.1949	0	0	0.467	0	0	0
57	1	423	9	1	3	0.0911	0.1949	0	1	0.611	0	0	0
57	1	424	9	1	3	0.0911	0.1949	1	1	0.854	0	0	82
57	1	425	9	2	2	0.0911	0.1949	0	1	0.494	0	82	82
57	1	426	1	2	3	0.0911	0.1949	1	1	0.533	82	0	82
57	1	427	1	2	3	0.0911	0.1949	0	1	0.715	64	82	82
57	1	428	1	1	1	0.0911	0.1949	0	1	0.753	60	82	82
57	1	429	9	2	3	0.0911	0.1949	1	1	0.581	0	82	0
57	1	430	1	1	3	0.0911	0.1949	0	1	0.665	69	82	82
57	1	431	0	1	3	0.0911	0.1949	1	0	0.817	0	0	82
57	1	432	0	2	2	0.0911	0.1949	0	1	0.736	6	0	0
57	1	433	1	1	1	0.0911	0.1949	0	1	0.709	64	82	82
57	1	434	1	1	3	0.0911	0.1949	0	1	0.618	73	82	82
57	1	435	0	2	2	0.0911	0.1949	1	1	0.536	8	82	0
57	1	436	0	2	2	0.0911	0.1949	1	1	0.478	9	82	0
57	1	437	1	1	1	0.0911	0.1949	1	1	0.860	50	82	0
57	1	438	1	1	2	0.0911	0.1949	0	0	0.825	0	82	82
57	1	439	1	2	2	0.0911	0.1949	0	1	0.546	80	82	82
57	1	440	9	2	3	0.0911	0.1949	0	1	0.597	0	0	0
57	1	441	0	1	3	0.0911	0.1949	0	1	0.671	7	0	0
57	1	442	9	1	3	0.0911	0.1949	0	1	0.685	0	82	82
57	1	443	0	1	2	0.0911	0.1949	1	1	0.604	7	0	82
57	1	444	9	1	3	0.0911	0.1949	0	0	0.614	0	0	0
57	1	445	0	2	2	0.0911	0.1949	0	1	0.542	8	0	0
57	1	446	0	2	2	0.0911	0.1949	0	1	0.449	9	0	0
57	1	447	1	2	3	0.0911	0.1949	1	1	0.577	77	0	82
57	1	448	1	1	2	0.0911	0.1949	0	0	0.843	0	82	82
57	1	449	1	1	2	0.0911	0.1949	1	1	0.661	69	82	0
57	1	450	0	2	2	0.0911	0.1949	0	1	0.836	5	0	0
57	1	451	0	2	1	0.0911	0.1949	0	1	0.683	7	0	0
57	1	452	9	1	3	0.0911	0.1949	1	1	1.001	0	82	0
57	1	453	9	1	1	0.0911	0.1949	1	1	0.629	0	0	82
57	1	454	9	1	3	0.0911	0.1949	0	1	0.773	0	0	0
57	1	455	1	1	3	0.0911	0.1949	0	1	0.752	60	82	82
57	1	456	1	2	3	0.0911	0.1949	1	1	0.619	73	0	82
57	1	457	1	2	2	0.0911	0.1949	1	1	0.518	83	0	82
57	1	458	0	2	3	0.0911	0.1949	0	0	0.659	0	0	0
57	1	459	0	1	3	0.0911	0.1949	0	1	0.834	5	0	0
57	1	460	0	2	2	0.0911	0.1949	0	0	0.700	0	0	0
57	1	461	0	1	3	0.0911	0.1949	1	1	0.638	7	0	82
57	1	462	0	2	3	0.0911	0.1949	1	1	0.732	6	82	0
57	1	463	0	2	2	0.0911	0.1949	1	1	0.641	7	82	0
57	1	464	0	1	3	0.0911	0.1949	1	1	0.737	6	0	82
57	1	465	1	1	1	0.0911	0.1949	1	1	0.528	82	82	0
57	1	466	0	2	3	0.0911	0.1949	1	1	0.717	6	82	0
57	1	467	1	1	3	0.0911	0.1949	1	1	0.561	79	82	0
57	1	468	1	2	2	0.0911	0.1949	0	1	0.491	86	82	82
57	1	469	1	1	1	0.0911	0.1949	0	1	0.744	61	82	82
57	1	470	1	2	3	0.0911	0.1949	0	1	0.503	85	82	82
57	1	471	0	1	1	0.0911	0.1949	1	0	0.820	0	0	82
57	1	472	1	2	2	0.0911	0.1949	0	1	0.606	74	82	82
57	1	473	0	1	1	0.0911	0.1949	1	1	0.938	5	0	82
57	1	474	9	2	3	0.0911	0.1949	1	1	0.640	0	82	0
57	1	475	1	1	3	0.0911	0.1949	1	1	0.737	61	82	0
57	1	476	9	2	3	0.0911	0.1949	0	1	0.463	0	82	82
57	1	477	1	2	3	0.0911	0.1949	0	1	0.452	90	82	82
57	1	478	1	1	3	0.0911	0.1949	0	0	1.117	0	82	82
57	1	479	1	1	1	0.0911	0.1949	1	1	0.780	57	82	0
57	1	480	9	1	1	0.0911	0.1949	1	1	0.541	0	0	82
57	1	481	0	2	3	0.0911	0.1949	1	1	0.671	7	82	0
57	1	482	1	2	3	0.0911	0.1949	1	1	0.797	55	0	82
57	1	483	1	1	1	0.0911	0.1949	0	1	0.677	67	82	82
57	1	484	1	2	2	0.0911	0.1949	0	1	0.622	73	82	82
57	1	485	9	1	1	0.0911	0.1949	1	0	0.774	0	0	82
57	1	486	0	1	1	0.0911	0.1949	1	0	0.847	0	0	82
57	1	487	1	2	2	0.0911	0.1949	0	1	0.574	78	82	82
57	1	488	0	1	1	0.0911	0.1949	0	0	0.729	0	0	0
57	1	489	0	2	2	0.0911	0.1949	0	1	0.463	9	0	0
57	1	490	9	2	2	0.0911	0.1949	1	1	0.572	0	82	0
57	1	491	0	2	3	0.0911	0.1949	1	1	0.646	7	82	0
57	1	492	1	2	3	0.0911	0.1949	0	0	0.620	0	82	82
57	1	493	1	1	3	0.0911	0.1949	1	0	0.991	0	82	0
57	1	494	9	2	2	0.0911	0.1949	1	1	0.737	0	0	82
57	1	495	0	1	1	0.0911	0.1949	0	1	0.307	10	0	0
57	1	496	1	2	3	0.0911	0.1949	1	1	0.599	75	0	82
57	1	497	0	1	1	0.0911	0.1949	0	1	0.771	6	0	0
57	1	498	1	2	2	0.0911	0.1949	1	1	0.613	74	0	82
57	1	499	0	1	1	0.0911	0.1949	1	0	0.615	0	0	82
57	1	500	0	2	3	0.0911	0.1949	0	1	0.794	6	0	0
57	1	501	1	2	3	0.0911	0.1949	1	0	0.421	0	0	82
57	1	502	9	2	2	0.0911	0.1949	1	1	0.463	0	82	0
57	1	503	1	1	3	0.0911	0.1949	1	1	0.990	50	82	0
57	1	504	1	2	1	0.0911	0.1949	0	1	0.472	88	82	82
57	1	505	1	1	1	0.0911	0.1949	1	1	0.693	66	82	0
57	1	506	9	2	2	0.0911	0.1949	1	1	0.572	0	0	82
57	1	507	0	2	3	0.0911	0.1949	0	1	0.486	9	0	0
57	1	508	1	1	3	0.0911	0.1949	0	1	0.846	50	82	82
57	1	509	1	2	1	0.0911	0.1949	0	1	0.732	62	82	82
57	1	510	0	1	3	0.0911	0.1949	1	1	0.729	6	0	82
57	1	511	1	1	3	0.0911	0.1949	1	0	0.957	0	82	0
57	1	512	1	2	2	0.0911	0.1949	0	1	0.857	50	82	82
57	1	513	0	2	1	0.0911	0.1949	0	1	0.563	8	0	0
57	1	514	0	1	3	0.0911	0.1949	1	1	1.486	5	0	82
57	1	515	0	1	1	0.0911	0.1949	1	1	0.614	7	0	82
57	1	516	0	2	3	0.0911	0.1949	1	1	0.792	6	82	0
57	1	517	0	2	3	0.0911	0.1949	1	1	0.593	8	82	0
57	1	518	1	2	3	0.0911	0.1949	0	1	0.643	71	82	82
57	1	519	0	1	3	0.0911	0.1949	0	1	5.694	5	0	0
57	1	520	0	1	3	0.0911	0.1949	1	0	1.058	0	0	82
57	1	521	1	2	2	0.0911	0.1949	0	0	0.619	0	82	82
57	1	522	1	2	3	0.0911	0.1949	0	1	0.509	84	82	82
57	1	523	0	1	2	0.0911	0.1949	0	0	0.604	0	0	0
57	1	524	1	1	1	0.0911	0.1949	0	1	0.927	50	82	82
57	1	525	1	2	3	0.0911	0.1949	0	1	0.714	64	82	82
57	1	526	9	1	1	0.0911	0.1949	1	0	0.693	0	82	0
57	1	527	1	2	1	0.0911	0.1949	1	0	0.668	0	0	82
57	1	528	1	2	1	0.0911	0.1949	0	0	0.570	0	82	82
57	1	529	0	1	3	0.0911	0.1949	1	0	0.631	0	0	82
57	1	530	1	1	3	0.0911	0.1949	1	1	0.938	50	82	0
57	1	531	1	1	1	0.0911	0.1949	0	1	0.636	71	82	82
57	1	532	0	1	1	0.0911	0.1949	0	1	0.533	8	0	0
57	1	533	9	1	3	0.0911	0.1949	1	0	0.680	0	82	0
57	1	534	9	1	1	0.0911	0.1949	1	0	0.608	0	82	0
57	1	535	9	2	2	0.0911	0.1949	1	1	0.562	0	0	82
57	1	536	1	1	1	0.0911	0.1949	0	1	0.412	94	82	82
57	1	537	1	1	1	0.0911	0.1949	1	0	0.582	0	82	0
57	1	538	0	1	1	0.0911	0.1949	0	1	0.439	9	0	0
57	1	539	1	1	2	0.0911	0.1949	1	1	0.656	69	82	0
57	1	540	1	1	1	0.0911	0.1949	0	0	0.465	0	82	82
57	1	541	9	1	3	0.0911	0.1949	1	0	0.544	0	0	82
57	1	542	1	2	3	0.0911	0.1949	1	1	0.621	73	0	82
57	1	543	1	1	1	0.0911	0.1949	0	0	0.494	0	82	82
57	1	544	0	2	3	0.0911	0.1949	0	1	0.956	5	0	0
57	1	545	0	2	3	0.0911	0.1949	1	1	0.550	8	82	0
57	1	546	1	2	3	0.0911	0.1949	0	1	0.817	53	82	82
57	1	547	0	2	3	0.0911	0.1949	0	1	0.602	7	0	0
57	1	548	0	1	2	0.0911	0.1949	1	0	1.475	0	0	82
57	1	549	0	2	3	0.0911	0.1949	0	1	0.569	8	0	0
57	1	550	1	2	3	0.0911	0.1949	0	1	0.491	86	82	82
57	1	551	1	1	1	0.0911	0.1949	1	1	0.513	84	82	0
57	1	552	0	2	3	0.0911	0.1949	0	1	0.413	9	0	0
57	1	553	1	2	2	0.0911	0.1949	1	1	0.568	78	0	82
57	1	554	0	1	3	0.0911	0.1949	0	0	0.612	0	0	0
57	1	555	0	1	1	0.0911	0.1949	0	0	0.467	0	0	0
57	1	556	1	1	3	0.0911	0.1949	0	1	0.609	74	82	82
57	1	557	1	2	3	0.0911	0.1949	1	1	0.757	59	0	82
57	1	558	0	2	2	0.0911	0.1949	0	0	0.714	0	0	0
57	1	559	1	2	2	0.0911	0.1949	1	1	0.551	80	0	82
57	1	560	9	1	1	0.0911	0.1949	0	0	0.682	0	82	82
57	1	561	9	2	1	0.0911	0.1949	1	1	1.176	0	0	82
57	1	562	1	1	3	0.0911	0.1949	1	1	0.651	70	82	0
57	1	563	1	2	2	0.0911	0.1949	0	1	0.507	84	82	82
57	1	564	0	2	2	0.0911	0.1949	1	0	0.491	0	82	0
57	1	565	1	1	3	0.0911	0.1949	1	1	0.792	56	82	0
57	1	566	1	2	3	0.0911	0.1949	1	1	0.604	75	0	82
57	1	567	0	1	2	0.0911	0.1949	0	1	0.757	6	0	0
57	1	568	0	1	3	0.0911	0.1949	0	0	0.687	0	0	0
57	1	569	0	2	2	0.0911	0.1949	1	1	0.683	7	82	0
57	1	570	0	2	2	0.0911	0.1949	0	1	0.704	6	0	0
57	1	571	9	2	3	0.0911	0.1949	0	1	0.492	0	82	82
57	1	572	1	1	1	0.0911	0.1949	1	0	0.769	0	82	0
57	1	573	0	1	1	0.0911	0.1949	0	1	0.686	7	0	0
57	1	574	9	1	1	0.0911	0.1949	0	1	0.438	0	0	0
57	1	575	1	1	3	0.0911	0.1949	1	0	0.998	0	82	0
57	1	576	0	1	1	0.0911	0.1949	0	1	0.522	8	0	0
57	1	577	1	1	3	0.0911	0.1949	0	0	2.813	0	82	82
57	1	578	9	1	3	0.0911	0.1949	0	0	0.624	0	82	82
57	1	579	9	2	2	0.0911	0.1949	0	1	0.399	0	0	0
57	1	580	0	1	1	0.0911	0.1949	0	1	0.667	7	0	0
57	1	581	1	2	2	0.0911	0.1949	0	1	0.345	100	82	82
57	1	582	0	2	2	0.0911	0.1949	1	1	0.635	7	82	0
57	1	583	0	1	3	0.0911	0.1949	0	1	0.769	6	0	0
57	1	584	0	2	2	0.0911	0.1949	0	1	0.740	6	0	0
57	1	585	0	1	3	0.0911	0.1949	1	1	0.752	6	0	82
57	1	586	1	1	3	0.0911	0.1949	0	1	0.685	67	82	82
57	1	587	0	1	3	0.0911	0.1949	0	1	0.701	6	0	0
57	1	588	0	1	3	0.0911	0.1949	0	1	0.619	7	0	0
57	1	589	0	2	3	0.0911	0.1949	0	1	0.716	6	0	0
57	1	590	9	1	3	0.0911	0.1949	1	0	0.521	0	0	82
57	1	591	1	2	3	0.0911	0.1949	0	1	0.517	83	82	82
57	1	592	0	1	1	0.0911	0.1949	1	1	0.763	6	0	82
57	1	593	9	2	3	0.0911	0.1949	1	1	0.605	0	82	0
57	1	594	0	1	3	0.0911	0.1949	1	1	0.766	6	0	82
57	1	595	1	2	2	0.0911	0.1949	0	1	0.543	81	82	82
57	1	596	0	2	2	0.0911	0.1949	1	1	0.682	7	82	0
57	1	597	0	2	1	0.0911	0.1949	1	0	0.674	0	82	0
57	1	598	0	2	2	0.0911	0.1949	0	1	0.584	8	0	0
57	1	599	1	2	3	0.0911	0.1949	0	1	0.762	59	82	82
57	1	600	1	1	2	0.0911	0.1949	1	1	0.621	73	82	0
57	1	601	1	2	3	0.0911	0.1949	1	1	0.637	71	0	82
57	1	602	0	2	2	0.0911	0.1949	1	1	0.405	9	82	0
57	1	603	9	2	3	0.0911	0.1949	1	1	0.470	0	82	0
57	1	604	0	2	3	0.0911	0.1949	1	1	0.629	7	82	0
57	1	605	9	1	3	0.0911	0.1949	0	1	0.740	0	82	82
57	1	606	1	1	1	0.0911	0.1949	0	1	0.728	62	82	82
57	1	607	1	1	3	0.0911	0.1949	0	1	1.636	50	82	82
57	1	608	1	2	2	0.0911	0.1949	1	1	0.555	80	0	82
57	1	609	0	1	2	0.0911	0.1949	0	1	0.550	8	0	0
57	1	610	9	2	3	0.0911	0.1949	0	1	0.498	0	0	0
57	1	611	9	1	3	0.0911	0.1949	1	0	0.690	0	0	82
57	1	612	1	2	2	0.0911	0.1949	1	1	0.719	63	0	82
57	1	613	0	2	2	0.0911	0.1949	1	1	0.498	9	82	0
57	1	614	0	2	2	0.0911	0.1949	1	1	0.481	9	82	0
57	1	615	0	2	3	0.0911	0.1949	0	1	0.616	7	0	0
57	1	616	1	2	2	0.0911	0.1949	1	1	0.416	93	0	82
57	1	617	1	2	3	0.0911	0.1949	1	1	0.537	81	0	82
57	1	618	0	1	1	0.0911	0.1949	1	1	0.603	7	0	82
57	1	619	0	1	1	0.0911	0.1949	0	1	0.891	5	0	0
57	1	620	0	2	2	0.0911	0.1949	0	0	0.715	0	0	0
57	1	621	0	2	2	0.0911	0.1949	1	1	0.482	9	82	0
57	1	622	0	1	3	0.0911	0.1949	1	0	0.784	0	0	82
57	1	623	0	2	1	0.0911	0.1949	1	0	0.690	0	82	0
57	1	624	1	1	1	0.0911	0.1949	0	1	1.522	50	82	82
57	1	625	0	1	3	0.0911	0.1949	1	0	0.768	0	0	82
57	1	626	0	1	1	0.0911	0.1949	1	1	0.667	7	0	82
57	1	627	9	1	3	0.0911	0.1949	0	1	0.704	0	0	0
57	1	628	0	1	1	0.0911	0.1949	1	0	0.733	0	0	82
57	1	629	0	2	1	0.0911	0.1949	0	1	0.457	9	0	0
57	1	630	1	1	3	0.0911	0.1949	1	0	0.768	0	82	0
57	1	631	9	1	3	0.0911	0.1949	1	0	0.410	0	82	0
57	1	632	1	2	2	0.0911	0.1949	0	1	0.892	50	82	82
57	1	633	0	1	3	0.0911	0.1949	1	1	0.674	7	0	82
57	1	634	1	1	2	0.0911	0.1949	0	1	0.697	65	82	82
57	1	635	1	1	3	0.0911	0.1949	1	1	1.405	50	82	0
57	1	636	0	1	1	0.0911	0.1949	1	1	0.928	5	0	82
57	1	637	0	1	3	0.0911	0.1949	1	0	0.958	0	0	82
57	1	638	1	2	1	0.0911	0.1949	1	0	0.327	0	0	82
57	1	639	1	1	1	0.0911	0.1949	1	0	0.691	0	82	0
57	1	640	0	1	1	0.0911	0.1949	1	0	0.729	0	0	82
57	1	641	0	1	3	0.0911	0.1949	0	1	0.478	9	0	0
57	1	642	1	1	1	0.0911	0.1949	0	1	0.444	91	82	82
57	1	643	0	1	2	0.0911	0.1949	1	1	0.766	6	0	82
57	1	644	9	1	2	0.0911	0.1949	1	0	0.752	0	82	0
57	1	645	0	1	3	0.0911	0.1949	1	1	0.814	5	0	82
57	1	646	0	1	3	0.0911	0.1949	1	0	0.678	0	0	82
57	1	647	1	2	3	0.0911	0.1949	1	1	0.838	51	0	82
57	1	648	0	2	3	0.0911	0.1949	1	0	0.622	0	82	0
57	1	649	1	1	2	0.0911	0.1949	0	0	0.505	0	82	82
57	1	650	1	1	1	0.0911	0.1949	0	0	0.678	0	82	82
57	1	651	1	2	2	0.0911	0.1949	0	0	0.669	0	82	82
57	1	652	0	2	2	0.0911	0.1949	1	1	0.782	6	82	0
57	1	653	0	2	3	0.0911	0.1949	0	1	0.497	9	0	0
57	1	654	0	1	1	0.0911	0.1949	1	0	1.150	0	0	82
57	1	655	1	2	3	0.0911	0.1949	0	1	2.672	50	82	82
57	1	656	1	1	3	0.0911	0.1949	1	0	0.897	0	82	0
57	1	657	9	2	2	0.0911	0.1949	0	1	0.089	0	82	82
57	1	658	9	2	3	0.0911	0.1949	1	0	1.997	0	0	82
57	1	659	1	1	1	0.0911	0.1949	1	0	0.760	0	82	0
57	1	660	9	1	1	0.0911	0.1949	0	1	0.523	0	0	0
57	1	661	0	1	2	0.0911	0.1949	0	1	0.683	7	0	0
57	1	662	0	1	3	0.0911	0.1949	0	0	0.715	0	0	0
57	1	663	1	1	3	0.0911	0.1949	0	1	0.661	69	82	82
57	1	664	9	2	1	0.0911	0.1949	0	1	0.709	0	82	82
57	1	665	0	1	1	0.0911	0.1949	0	0	0.475	0	0	0
57	1	666	1	2	3	0.0911	0.1949	0	1	0.658	69	82	82
57	1	667	0	2	3	0.0911	0.1949	1	1	0.537	8	82	0
57	1	668	1	2	2	0.0911	0.1949	1	1	0.709	64	0	82
57	1	669	1	1	3	0.0911	0.1949	0	0	0.835	0	82	82
57	1	670	1	2	2	0.0911	0.1949	0	1	0.588	76	82	82
57	1	671	1	1	1	0.0911	0.1949	1	0	2.535	0	82	0
57	1	672	1	1	3	0.0911	0.1949	0	1	0.619	73	82	82
57	1	673	1	1	3	0.0911	0.1949	0	1	0.709	64	82	82
57	1	674	0	2	2	0.0911	0.1949	1	1	0.732	6	82	0
57	1	675	9	1	1	0.0911	0.1949	1	0	0.746	0	82	0
57	1	676	0	2	3	0.0911	0.1949	0	1	0.471	9	0	0
57	1	677	1	2	3	0.0911	0.1949	0	1	0.470	88	82	82
57	1	678	0	2	3	0.0911	0.1949	1	1	0.647	7	82	0
57	1	679	9	1	2	0.0911	0.1949	1	0	0.797	0	0	82
57	1	680	1	2	1	0.0911	0.1949	1	1	0.825	53	0	82
57	1	681	0	2	2	0.0911	0.1949	0	1	0.472	9	0	0
57	1	682	0	2	2	0.0911	0.1949	0	1	0.424	9	0	0
57	1	683	1	2	2	0.0911	0.1949	1	1	0.440	91	0	82
57	1	684	1	2	1	0.0911	0.1949	0	1	0.441	91	82	82
57	1	685	9	2	2	0.0911	0.1949	1	1	0.442	0	0	82
57	1	686	0	1	3	0.0911	0.1949	0	0	0.626	0	0	0
57	1	687	9	2	2	0.0911	0.1949	0	0	0.611	0	0	0
57	1	688	0	2	1	0.0911	0.1949	1	1	0.669	7	82	0
57	1	689	1	2	3	0.0911	0.1949	1	1	0.636	71	0	82
57	1	690	1	1	3	0.0911	0.1949	0	0	0.668	0	82	82
57	1	691	1	1	2	0.0911	0.1949	1	0	0.700	0	82	0
57	1	692	9	1	3	0.0911	0.1949	1	1	0.736	0	82	0
57	1	693	9	1	2	0.0911	0.1949	0	1	0.733	0	82	82
57	1	694	0	1	3	0.0911	0.1949	0	1	0.656	7	0	0
57	1	695	0	1	2	0.0911	0.1949	1	0	0.830	0	0	82
57	1	696	0	2	1	0.0911	0.1949	0	1	0.637	7	0	0
57	1	697	1	2	2	0.0911	0.1949	1	1	0.542	81	0	82
57	1	698	1	2	2	0.0911	0.1949	1	1	0.578	77	0	82
57	1	699	0	2	2	0.0911	0.1949	1	1	0.519	8	82	0
57	1	700	0	1	1	0.0911	0.1949	0	0	0.762	0	0	0
57	1	701	9	1	1	0.0911	0.1949	0	1	0.617	0	82	82
57	1	702	9	1	1	0.0911	0.1949	1	1	0.528	0	0	82
57	1	703	9	2	2	0.0911	0.1949	1	1	0.636	0	82	0
57	1	704	1	1	1	0.0911	0.1949	1	0	0.622	0	82	0
57	1	705	1	1	1	0.0911	0.1949	1	1	0.471	88	82	0
57	1	706	9	2	3	0.0911	0.1949	0	1	0.646	0	82	82
57	1	707	9	1	1	0.0911	0.1949	0	1	0.477	0	0	0
57	1	708	9	2	2	0.0911	0.1949	0	1	0.493	0	82	82
57	1	709	9	1	3	0.0911	0.1949	0	0	4.466	0	82	82
57	1	710	0	1	3	0.0911	0.1949	0	1	0.625	7	0	0
57	1	711	1	1	1	0.0911	0.1949	1	0	0.947	0	82	0
57	1	712	1	1	3	0.0911	0.1949	1	0	0.590	0	82	0
57	1	713	1	2	2	0.0911	0.1949	1	1	0.511	84	0	82
57	1	714	9	2	3	0.0911	0.1949	1	1	0.775	0	0	82
57	1	715	1	1	1	0.0911	0.1949	1	1	0.753	60	82	0
57	1	716	0	1	1	0.0911	0.1949	1	0	0.756	0	0	82
57	1	717	0	1	1	0.0911	0.1949	0	0	0.889	0	0	0
57	1	718	1	1	1	0.0911	0.1949	1	1	0.719	63	82	0
57	1	719	0	2	3	0.0911	0.1949	0	1	0.710	6	0	0
57	1	720	9	2	1	0.0911	0.1949	1	1	0.772	0	82	0
