sub	sess	t	rew	loc	cue	co1	co2	or	resp	rt	rew_tot	left_col	right_col
30	1	1	1	2	3	0.1857	0.1090	0	1	0.847	50	0	0
30	1	2	1	2	3	0.1857	0.1090	0	1	0.693	66	0	0
30	1	3	0	1	2	0.1857	0.1090	1	1	0.821	5	82	0
30	1	4	0	2	3	0.1857	0.1090	0	1	0.580	8	82	82
30	1	5	1	2	2	0.1857	0.1090	0	1	0.840	51	0	0
30	1	6	1	2	2	0.1857	0.1090	1	1	0.577	77	82	0
30	1	7	0	2	2	0.1857	0.1090	1	0	0.691	0	0	82
30	1	8	1	2	1	0.1857	0.1090	1	1	0.929	50	82	0
30	1	9	1	1	1	0.1857	0.1090	0	1	1.078	50	0	0
30	1	10	0	2	3	0.1857	0.1090	0	0	0.540	0	82	82
30	1	11	0	1	3	0.1857	0.1090	0	1	0.744	6	82	82
30	1	12	1	2	3	0.1857	0.1090	1	0	0.572	0	82	0
30	1	13	0	2	1	0.1857	0.1090	0	1	0.784	6	82	82
30	1	14	1	1	1	0.1857	0.1090	0	1	0.803	55	0	0
30	1	15	1	2	3	0.1857	0.1090	1	1	0.459	89	82	0
30	1	16	1	1	3	0.1857	0.1090	1	0	0.388	0	0	82
30	1	17	9	1	1	0.1857	0.1090	0	1	0.580	0	82	82
30	1	18	1	2	2	0.1857	0.1090	1	0	0.887	0	82	0
30	1	19	9	2	1	0.1857	0.1090	1	1	0.733	0	0	82
30	1	20	0	1	1	0.1857	0.1090	1	0	0.848	0	82	0
30	1	21	9	1	3	0.1857	0.1090	0	1	0.692	0	0	0
30	1	22	0	1	2	0.1857	0.1090	0	1	0.528	8	82	82
30	1	23	0	2	2	0.1857	0.1090	0	1	0.638	7	82	82
30	1	24	1	1	1	0.1857	0.1090	1	1	0.576	77	0	82
30	1	25	1	2	2	0.1857	0.1090	0	0	0.802	0	0	0
30	1	26	9	1	3	0.1857	0.1090	0	1	0.514	0	82	82
30	1	27	9	1	1	0.1857	0.1090	1	1	0.390	0	0	82
30	1	28	1	1	2	0.1857	0.1090	1	1	0.403	95	0	82
30	1	29	0	1	3	0.1857	0.1090	0	1	0.470	9	82	82
30	1	30	1	1	3	0.1857	0.1090	0	1	0.573	78	0	0
30	1	31	0	1	1	0.1857	0.1090	0	1	0.366	10	82	82
30	1	32	1	2	2	0.1857	0.1090	0	1	0.658	69	0	0
30	1	33	0	1	1	0.1857	0.1090	0	1	0.519	8	82	82
30	1	34	1	1	3	0.1857	0.1090	0	1	0.533	82	0	0
30	1	35	0	2	3	0.1857	0.1090	0	1	0.475	9	82	82
30	1	36	1	1	1	0.1857	0.1090	1	1	0.616	73	0	82
30	1	37	0	1	1	0.1857	0.1090	1	0	0.728	0	82	0
30	1	38	9	2	2	0.1857	0.1090	1	1	0.612	0	82	0
30	1	39	0	1	1	0.1857	0.1090	0	0	0.683	0	82	82
30	1	40	9	1	3	0.1857	0.1090	0	0	0.697	0	82	82
30	1	41	1	2	2	0.1857	0.1090	1	0	0.636	0	82	0
30	1	42	1	1	1	0.1857	0.1090	0	1	0.844	51	0	0
30	1	43	1	1	3	0.1857	0.1090	0	1	0.485	87	0	0
30	1	44	1	1	3	0.1857	0.1090	0	1	0.731	62	0	0
30	1	45	1	2	2	0.1857	0.1090	1	1	0.393	96	82	0
30	1	46	1	1	1	0.1857	0.1090	1	1	0.429	92	0	82
30	1	47	1	2	2	0.1857	0.1090	1	1	0.406	94	82	0
30	1	48	9	1	2	0.1857	0.1090	0	0	0.519	0	0	0
30	1	49	1	2	2	0.1857	0.1090	0	1	0.570	78	0	0
30	1	50	1	2	2	0.1857	0.1090	1	1	0.358	99	82	0
30	1	51	1	1	1	0.1857	0.1090	1	1	0.384	97	0	82
30	1	52	1	1	3	0.1857	0.1090	1	1	0.386	96	0	82
30	1	53	9	1	3	0.1857	0.1090	0	1	0.333	0	82	82
30	1	54	1	2	3	0.1857	0.1090	1	1	0.546	80	82	0
30	1	55	1	1	1	0.1857	0.1090	0	1	0.711	64	0	0
30	1	56	1	2	3	0.1857	0.1090	1	1	0.290	100	82	0
30	1	57	0	2	3	0.1857	0.1090	0	1	0.683	7	82	82
30	1	58	0	2	2	0.1857	0.1090	1	0	0.658	0	0	82
30	1	59	1	1	2	0.1857	0.1090	1	1	0.595	76	0	82
30	1	60	0	1	1	0.1857	0.1090	1	0	0.587	0	82	0
30	1	61	0	2	3	0.1857	0.1090	1	0	0.598	0	0	82
30	1	62	9	2	3	0.1857	0.1090	1	1	0.399	0	82	0
30	1	63	0	1	3	0.1857	0.1090	1	0	0.600	0	82	0
30	1	64	0	1	1	0.1857	0.1090	0	0	1.047	0	82	82
30	1	65	9	2	3	0.1857	0.1090	0	1	0.064	0	82	82
30	1	66	0	1	2	0.1857	0.1090	0	0	0.324	0	82	82
30	1	67	0	1	1	0.1857	0.1090	0	0	0.462	0	82	82
30	1	68	1	2	2	0.1857	0.1090	0	1	0.780	57	0	0
30	1	69	0	2	2	0.1857	0.1090	1	0	0.600	0	0	82
30	1	70	1	2	3	0.1857	0.1090	1	1	0.315	100	82	0
30	1	71	0	2	2	0.1857	0.1090	0	1	0.808	5	82	82
30	1	72	0	1	3	0.1857	0.1090	0	1	0.587	8	82	82
30	1	73	0	2	3	0.1857	0.1090	1	0	0.550	0	0	82
30	1	74	1	2	2	0.1857	0.1090	0	0	0.459	0	0	0
30	1	75	1	2	3	0.1857	0.1090	0	1	0.492	86	0	0
30	1	76	0	1	3	0.1857	0.1090	0	1	0.499	9	82	82
30	1	77	1	1	2	0.1857	0.1090	0	1	0.576	77	0	0
30	1	78	9	2	3	0.1857	0.1090	0	1	0.401	0	0	0
30	1	79	0	1	1	0.1857	0.1090	0	0	0.693	0	82	82
30	1	80	1	1	3	0.1857	0.1090	1	0	0.683	0	0	82
30	1	81	9	2	2	0.1857	0.1090	0	1	0.934	0	82	82
30	1	82	1	2	3	0.1857	0.1090	1	1	0.467	88	82	0
30	1	83	0	1	3	0.1857	0.1090	1	0	0.826	0	82	0
30	1	84	0	1	3	0.1857	0.1090	0	1	0.634	7	82	82
30	1	85	1	1	3	0.1857	0.1090	1	1	0.428	92	0	82
30	1	86	9	1	3	0.1857	0.1090	0	1	0.586	0	0	0
30	1	87	9	2	3	0.1857	0.1090	0	1	0.589	0	82	82
30	1	88	0	1	1	0.1857	0.1090	1	0	0.752	0	82	0
30	1	89	0	1	2	0.1857	0.1090	0	1	0.420	9	82	82
30	1	90	1	2	3	0.1857	0.1090	1	1	0.486	86	82	0
30	1	91	9	2	1	0.1857	0.1090	0	1	0.669	0	82	82
30	1	92	1	2	2	0.1857	0.1090	1	1	0.763	59	82	0
30	1	93	1	1	3	0.1857	0.1090	1	1	0.408	94	0	82
30	1	94	1	1	3	0.1857	0.1090	1	1	0.363	99	0	82
30	1	95	1	1	2	0.1857	0.1090	0	1	0.573	78	0	0
30	1	96	9	1	1	0.1857	0.1090	0	1	0.391	0	82	82
30	1	97	0	1	3	0.1857	0.1090	1	0	0.618	0	82	0
30	1	98	1	1	3	0.1857	0.1090	0	1	0.595	76	0	0
30	1	99	9	2	3	0.1857	0.1090	1	0	0.717	0	0	82
30	1	100	0	2	1	0.1857	0.1090	1	0	0.760	0	0	82
30	1	101	1	2	3	0.1857	0.1090	1	1	0.614	74	82	0
30	1	102	9	1	3	0.1857	0.1090	0	1	0.495	0	0	0
30	1	103	1	1	3	0.1857	0.1090	1	1	0.383	97	0	82
30	1	104	9	2	2	0.1857	0.1090	0	1	0.473	0	82	82
30	1	105	0	1	3	0.1857	0.1090	0	0	0.976	0	82	82
30	1	106	0	2	3	0.1857	0.1090	1	0	0.683	0	0	82
30	1	107	1	1	3	0.1857	0.1090	0	1	0.427	92	0	0
30	1	108	0	1	2	0.1857	0.1090	0	1	0.773	6	82	82
30	1	109	9	2	2	0.1857	0.1090	0	1	0.544	0	82	82
30	1	110	0	1	3	0.1857	0.1090	1	0	0.677	0	82	0
30	1	111	9	2	3	0.1857	0.1090	1	1	0.886	0	82	0
30	1	112	9	2	2	0.1857	0.1090	0	0	0.619	0	0	0
30	1	113	0	2	2	0.1857	0.1090	0	1	0.627	7	82	82
30	1	114	1	1	1	0.1857	0.1090	0	1	0.843	51	0	0
30	1	115	0	1	3	0.1857	0.1090	0	1	0.644	7	82	82
30	1	116	9	2	2	0.1857	0.1090	0	1	0.350	0	82	82
30	1	117	1	2	1	0.1857	0.1090	1	0	0.898	0	82	0
30	1	118	9	1	3	0.1857	0.1090	1	1	0.950	0	82	0
30	1	119	9	2	3	0.1857	0.1090	0	1	0.258	0	82	82
30	1	120	0	1	1	0.1857	0.1090	0	1	0.674	7	82	82
30	1	121	1	2	2	0.1857	0.1090	1	0	0.481	0	82	0
30	1	122	0	2	2	0.1857	0.1090	0	1	0.617	7	82	82
30	1	123	1	2	2	0.1857	0.1090	0	1	0.627	72	0	0
30	1	124	0	1	1	0.1857	0.1090	0	1	0.693	7	82	82
30	1	125	1	1	1	0.1857	0.1090	0	1	0.541	81	0	0
30	1	126	1	1	2	0.1857	0.1090	1	0	0.807	0	0	82
30	1	127	9	2	3	0.1857	0.1090	0	0	0.456	0	0	0
30	1	128	1	2	2	0.1857	0.1090	1	0	0.680	0	82	0
30	1	129	9	1	2	0.1857	0.1090	1	0	0.972	0	82	0
30	1	130	1	2	3	0.1857	0.1090	0	1	0.661	69	0	0
30	1	131	0	1	1	0.1857	0.1090	1	1	0.660	7	82	0
30	1	132	9	1	3	0.1857	0.1090	1	1	0.370	0	0	82
30	1	133	0	2	3	0.1857	0.1090	0	1	1.055	5	82	82
30	1	134	1	2	3	0.1857	0.1090	1	1	0.493	86	82	0
30	1	135	1	1	3	0.1857	0.1090	1	1	0.380	97	0	82
30	1	136	0	2	2	0.1857	0.1090	0	1	0.583	8	82	82
30	1	137	1	1	1	0.1857	0.1090	0	1	0.848	50	0	0
30	1	138	0	1	1	0.1857	0.1090	1	1	0.719	6	82	0
30	1	139	1	2	3	0.1857	0.1090	1	1	0.356	99	82	0
30	1	140	1	2	2	0.1857	0.1090	1	1	0.343	100	82	0
30	1	141	1	1	1	0.1857	0.1090	0	0	0.404	0	0	0
30	1	142	1	2	3	0.1857	0.1090	0	1	0.751	60	0	0
30	1	143	1	1	1	0.1857	0.1090	1	1	0.457	89	0	82
30	1	144	0	1	1	0.1857	0.1090	0	1	0.529	8	82	82
30	1	145	9	1	2	0.1857	0.1090	0	1	0.478	0	82	82
30	1	146	9	1	1	0.1857	0.1090	1	0	0.979	0	82	0
30	1	147	0	2	3	0.1857	0.1090	1	0	0.888	0	0	82
30	1	148	1	2	1	0.1857	0.1090	0	1	1.165	50	0	0
30	1	149	0	1	3	0.1857	0.1090	1	0	0.608	0	82	0
30	1	150	1	1	3	0.1857	0.1090	1	1	0.674	68	0	82
30	1	151	9	2	3	0.1857	0.1090	0	0	0.137	0	82	82
30	1	152	1	2	1	0.1857	0.1090	0	1	0.270	100	0	0
30	1	153	9	1	1	0.1857	0.1090	1	1	0.479	0	82	0
30	1	154	1	1	1	0.1857	0.1090	1	1	0.749	60	0	82
30	1	155	0	2	3	0.1857	0.1090	0	1	0.574	8	82	82
30	1	156	1	2	3	0.1857	0.1090	0	1	0.498	85	0	0
30	1	157	1	2	3	0.1857	0.1090	0	1	0.437	91	0	0
30	1	158	9	2	3	0.1857	0.1090	1	1	0.487	0	82	0
30	1	159	0	1	3	0.1857	0.1090	1	1	0.470	9	82	0
30	1	160	0	2	3	0.1857	0.1090	0	1	0.614	7	82	82
30	1	161	9	2	3	0.1857	0.1090	1	1	-0.013	0	0	82
30	1	162	1	2	2	0.1857	0.1090	0	1	0.593	76	0	0
30	1	163	1	1	1	0.1857	0.1090	1	1	0.480	87	0	82
30	1	164	0	2	2	0.1857	0.1090	0	1	0.326	10	82	82
30	1	165	9	2	2	0.1857	0.1090	1	1	0.506	0	0	82
30	1	166	0	1	1	0.1857	0.1090	0	1	0.390	10	82	82
30	1	167	1	1	3	0.1857	0.1090	1	1	0.306	100	0	82
30	1	168	0	2	3	0.1857	0.1090	1	1	0.601	7	0	82
30	1	169	1	1	1	0.1857	0.1090	0	1	0.545	80	0	0
30	1	170	0	1	1	0.1857	0.1090	0	1	0.431	9	82	82
30	1	171	0	2	2	0.1857	0.1090	0	0	0.568	0	82	82
30	1	172	9	2	2	0.1857	0.1090	1	1	0.929	0	82	0
30	1	173	0	1	1	0.1857	0.1090	1	0	0.879	0	82	0
30	1	174	1	1	3	0.1857	0.1090	0	0	0.604	0	0	0
30	1	175	1	2	3	0.1857	0.1090	1	1	0.765	58	82	0
30	1	176	0	2	3	0.1857	0.1090	0	1	0.656	7	82	82
30	1	177	0	2	2	0.1857	0.1090	1	1	0.647	7	0	82
30	1	178	0	2	2	0.1857	0.1090	1	0	0.665	0	0	82
30	1	179	1	1	3	0.1857	0.1090	1	1	0.510	84	0	82
30	1	180	9	1	1	0.1857	0.1090	0	1	0.586	0	0	0
30	1	181	9	2	2	0.1857	0.1090	1	1	0.649	0	82	0
30	1	182	0	2	1	0.1857	0.1090	1	1	0.695	7	0	82
30	1	183	1	2	3	0.1857	0.1090	0	1	0.277	100	0	0
30	1	184	0	1	3	0.1857	0.1090	1	0	0.421	0	82	0
30	1	185	1	1	2	0.1857	0.1090	0	1	0.550	80	0	0
30	1	186	0	1	3	0.1857	0.1090	1	1	0.385	10	82	0
30	1	187	0	1	1	0.1857	0.1090	1	1	0.614	7	82	0
30	1	188	9	2	2	0.1857	0.1090	0	1	0.455	0	0	0
30	1	189	1	2	2	0.1857	0.1090	0	0	0.990	0	0	0
30	1	190	0	1	3	0.1857	0.1090	0	1	0.343	10	82	82
30	1	191	1	1	3	0.1857	0.1090	0	0	0.467	0	0	0
30	1	192	9	1	1	0.1857	0.1090	0	1	0.898	0	0	0
30	1	193	1	2	1	0.1857	0.1090	1	1	0.704	65	82	0
30	1	194	9	1	1	0.1857	0.1090	0	1	0.437	0	82	82
30	1	195	0	2	3	0.1857	0.1090	1	1	0.756	6	0	82
30	1	196	1	2	3	0.1857	0.1090	1	1	0.548	80	82	0
30	1	197	9	2	1	0.1857	0.1090	1	1	0.383	0	82	0
30	1	198	1	1	2	0.1857	0.1090	0	1	0.873	50	0	0
30	1	199	0	2	2	0.1857	0.1090	0	1	0.272	10	82	82
30	1	200	0	2	2	0.1857	0.1090	1	1	0.253	10	0	82
30	1	201	0	1	3	0.1857	0.1090	1	1	0.353	10	82	0
30	1	202	1	1	3	0.1857	0.1090	1	1	0.380	97	0	82
30	1	203	9	1	3	0.1857	0.1090	1	0	0.543	0	82	0
30	1	204	1	2	3	0.1857	0.1090	0	1	0.570	78	0	0
30	1	205	0	1	3	0.1857	0.1090	1	0	0.702	0	82	0
30	1	206	0	2	2	0.1857	0.1090	1	1	0.549	8	0	82
30	1	207	0	1	3	0.1857	0.1090	1	1	0.602	7	82	0
30	1	208	9	1	3	0.1857	0.1090	0	1	0.467	0	0	0
30	1	209	0	2	2	0.1857	0.1090	1	1	0.570	8	0	82
30	1	210	9	2	1	0.1857	0.1090	0	1	0.388	0	0	0
30	1	211	0	1	1	0.1857	0.1090	1	1	0.404	9	82	0
30	1	212	0	2	3	0.1857	0.1090	0	1	0.375	10	82	82
30	1	213	1	2	2	0.1857	0.1090	0	0	0.418	0	0	0
30	1	214	0	2	3	0.1857	0.1090	1	1	0.197	10	0	82
30	1	215	0	2	3	0.1857	0.1090	0	0	0.157	0	82	82
30	1	216	0	2	2	0.1857	0.1090	1	0	0.274	0	0	82
30	1	217	0	2	1	0.1857	0.1090	0	0	0.465	0	82	82
30	1	218	1	1	3	0.1857	0.1090	0	1	0.466	88	0	0
30	1	219	1	2	1	0.1857	0.1090	1	0	0.383	0	82	0
30	1	220	1	1	1	0.1857	0.1090	1	1	0.376	97	0	82
30	1	221	1	2	3	0.1857	0.1090	0	1	0.506	84	0	0
30	1	222	0	2	1	0.1857	0.1090	0	1	0.409	9	82	82
30	1	223	1	2	2	0.1857	0.1090	1	1	0.434	92	82	0
30	1	224	0	2	1	0.1857	0.1090	1	1	0.425	9	0	82
30	1	225	1	2	3	0.1857	0.1090	1	1	0.426	92	82	0
30	1	226	1	1	1	0.1857	0.1090	1	1	0.372	98	0	82
30	1	227	9	2	2	0.1857	0.1090	1	0	0.382	0	0	82
30	1	228	0	1	2	0.1857	0.1090	1	0	0.704	0	82	0
30	1	229	0	2	2	0.1857	0.1090	1	1	0.527	8	0	82
30	1	230	1	2	2	0.1857	0.1090	1	1	0.301	100	82	0
30	1	231	1	2	2	0.1857	0.1090	1	1	0.306	100	82	0
30	1	232	0	1	2	0.1857	0.1090	1	0	0.513	0	82	0
30	1	233	0	2	2	0.1857	0.1090	1	0	0.461	0	0	82
30	1	234	1	2	3	0.1857	0.1090	0	0	0.571	0	0	0
30	1	235	0	1	1	0.1857	0.1090	0	1	0.392	10	82	82
30	1	236	0	1	1	0.1857	0.1090	1	1	0.635	7	82	0
30	1	237	0	2	3	0.1857	0.1090	1	1	0.492	9	0	82
30	1	238	1	1	1	0.1857	0.1090	0	1	0.466	88	0	0
30	1	239	1	1	1	0.1857	0.1090	0	1	0.424	93	0	0
30	1	240	1	1	1	0.1857	0.1090	1	0	0.361	0	0	82
30	1	241	0	2	2	0.1857	0.1090	0	1	0.415	9	82	82
30	1	242	1	1	3	0.1857	0.1090	0	1	0.465	89	0	0
30	1	243	0	2	3	0.1857	0.1090	1	1	0.488	9	0	82
30	1	244	0	1	1	0.1857	0.1090	1	0	0.439	0	82	0
30	1	245	1	2	3	0.1857	0.1090	0	0	0.769	0	0	0
30	1	246	1	2	2	0.1857	0.1090	0	1	0.540	81	0	0
30	1	247	0	1	3	0.1857	0.1090	0	1	0.834	5	82	82
30	1	248	0	2	3	0.1857	0.1090	1	0	0.611	0	0	82
30	1	249	9	1	1	0.1857	0.1090	1	0	0.566	0	0	82
30	1	250	9	2	2	0.1857	0.1090	1	1	0.423	0	82	0
30	1	251	1	2	2	0.1857	0.1090	1	1	0.409	94	82	0
30	1	252	0	1	1	0.1857	0.1090	1	0	0.586	0	82	0
30	1	253	1	1	1	0.1857	0.1090	0	1	0.715	63	0	0
30	1	254	1	2	2	0.1857	0.1090	0	0	0.583	0	0	0
30	1	255	0	2	3	0.1857	0.1090	0	1	0.639	7	82	82
30	1	256	1	1	2	0.1857	0.1090	1	1	0.383	97	0	82
30	1	257	0	2	3	0.1857	0.1090	1	1	0.713	6	0	82
30	1	258	9	2	2	0.1857	0.1090	0	1	0.669	0	0	0
30	1	259	0	2	2	0.1857	0.1090	0	0	0.917	0	82	82
30	1	260	1	1	1	0.1857	0.1090	1	1	0.449	90	0	82
30	1	261	0	2	2	0.1857	0.1090	0	0	0.640	0	82	82
30	1	262	0	1	2	0.1857	0.1090	1	1	0.697	7	82	0
30	1	263	0	1	3	0.1857	0.1090	0	0	0.360	0	82	82
30	1	264	9	1	3	0.1857	0.1090	1	0	0.546	0	82	0
30	1	265	0	2	3	0.1857	0.1090	0	1	0.645	7	82	82
30	1	266	1	1	1	0.1857	0.1090	1	1	0.420	93	0	82
30	1	267	0	1	3	0.1857	0.1090	0	0	0.677	0	82	82
30	1	268	0	1	3	0.1857	0.1090	0	1	0.677	7	82	82
30	1	269	0	1	1	0.1857	0.1090	1	0	0.739	0	82	0
30	1	270	0	1	3	0.1857	0.1090	1	1	0.590	8	82	0
30	1	271	1	1	1	0.1857	0.1090	0	0	0.592	0	0	0
30	1	272	1	2	3	0.1857	0.1090	1	0	1.098	0	82	0
30	1	273	1	2	3	0.1857	0.1090	1	1	0.478	87	82	0
30	1	274	0	2	3	0.1857	0.1090	0	1	0.718	6	82	82
30	1	275	1	2	3	0.1857	0.1090	0	1	0.861	50	0	0
30	1	276	0	2	3	0.1857	0.1090	0	1	0.501	8	82	82
30	1	277	9	1	1	0.1857	0.1090	0	1	0.545	0	0	0
30	1	278	0	1	3	0.1857	0.1090	0	1	0.671	7	82	82
30	1	279	1	2	3	0.1857	0.1090	1	1	0.375	98	82	0
30	1	280	9	1	1	0.1857	0.1090	0	1	0.618	0	0	0
30	1	281	9	1	3	0.1857	0.1090	1	1	0.542	0	0	82
30	1	282	0	2	2	0.1857	0.1090	0	0	0.821	0	82	82
30	1	283	1	2	2	0.1857	0.1090	0	1	0.634	72	0	0
30	1	284	0	1	3	0.1857	0.1090	1	0	0.669	0	82	0
30	1	285	9	1	1	0.1857	0.1090	0	1	0.641	0	82	82
30	1	286	1	2	1	0.1857	0.1090	0	0	0.841	0	0	0
30	1	287	0	2	2	0.1857	0.1090	1	0	0.675	0	0	82
30	1	288	1	2	2	0.1857	0.1090	0	1	0.898	50	0	0
30	1	289	1	1	1	0.1857	0.1090	0	0	0.145	0	0	0
30	1	290	1	2	1	0.1857	0.1090	0	1	0.291	100	0	0
30	1	291	0	2	2	0.1857	0.1090	0	1	0.457	9	82	82
30	1	292	0	1	3	0.1857	0.1090	0	1	0.280	10	82	82
30	1	293	0	2	3	0.1857	0.1090	1	1	0.744	6	0	82
30	1	294	9	2	2	0.1857	0.1090	1	0	0.653	0	0	82
30	1	295	9	2	2	0.1857	0.1090	0	0	0.675	0	0	0
30	1	296	9	2	3	0.1857	0.1090	0	0	0.540	0	0	0
30	1	297	9	1	1	0.1857	0.1090	1	1	0.358	0	0	82
30	1	298	1	1	3	0.1857	0.1090	0	0	0.259	0	0	0
30	1	299	9	2	3	0.1857	0.1090	1	1	0.329	0	82	0
30	1	300	1	1	3	0.1857	0.1090	0	1	0.590	76	0	0
30	1	301	1	2	3	0.1857	0.1090	0	1	0.809	54	0	0
30	1	302	1	1	3	0.1857	0.1090	0	1	0.356	99	0	0
30	1	303	0	2	2	0.1857	0.1090	0	1	0.639	7	82	82
30	1	304	0	2	2	0.1857	0.1090	1	1	0.567	8	0	82
30	1	305	9	2	2	0.1857	0.1090	1	0	0.874	0	0	82
30	1	306	0	1	1	0.1857	0.1090	1	1	0.727	6	82	0
30	1	307	1	1	1	0.1857	0.1090	1	1	0.718	63	0	82
30	1	308	0	1	3	0.1857	0.1090	0	1	0.337	10	82	82
30	1	309	0	2	3	0.1857	0.1090	1	0	0.567	0	0	82
30	1	310	9	1	2	0.1857	0.1090	1	1	0.371	0	0	82
30	1	311	1	1	3	0.1857	0.1090	0	1	0.630	72	0	0
30	1	312	0	1	1	0.1857	0.1090	0	1	0.415	9	82	82
30	1	313	1	1	3	0.1857	0.1090	0	1	0.288	100	0	0
30	1	314	0	2	2	0.1857	0.1090	1	1	0.568	8	0	82
30	1	315	0	1	1	0.1857	0.1090	0	0	0.276	0	82	82
30	1	316	9	1	3	0.1857	0.1090	0	1	0.512	0	82	82
30	1	317	0	2	3	0.1857	0.1090	0	0	0.487	0	82	82
30	1	318	0	2	3	0.1857	0.1090	1	0	0.670	0	0	82
30	1	319	1	2	3	0.1857	0.1090	0	0	0.718	0	0	0
30	1	320	0	2	3	0.1857	0.1090	1	0	0.612	0	0	82
30	1	321	0	1	1	0.1857	0.1090	1	1	0.522	8	82	0
30	1	322	1	1	1	0.1857	0.1090	0	1	0.591	76	0	0
30	1	323	0	2	1	0.1857	0.1090	1	1	0.611	7	0	82
30	1	324	1	2	2	0.1857	0.1090	0	1	0.740	61	0	0
30	1	325	9	2	3	0.1857	0.1090	1	1	0.727	0	0	82
30	1	326	1	1	1	0.1857	0.1090	1	0	0.636	0	0	82
30	1	327	0	1	1	0.1857	0.1090	0	1	0.830	5	82	82
30	1	328	1	2	2	0.1857	0.1090	1	1	0.308	100	82	0
30	1	329	1	2	3	0.1857	0.1090	0	1	0.891	50	0	0
30	1	330	1	2	2	0.1857	0.1090	0	1	0.737	61	0	0
30	1	331	9	1	3	0.1857	0.1090	1	1	0.461	0	0	82
30	1	332	9	2	3	0.1857	0.1090	0	1	0.620	0	0	0
30	1	333	1	1	3	0.1857	0.1090	1	1	0.534	82	0	82
30	1	334	0	2	3	0.1857	0.1090	0	1	0.308	10	82	82
30	1	335	0	1	3	0.1857	0.1090	1	1	0.476	9	82	0
30	1	336	9	1	1	0.1857	0.1090	1	1	0.474	0	82	0
30	1	337	0	2	2	0.1857	0.1090	0	1	0.320	10	82	82
30	1	338	0	2	1	0.1857	0.1090	0	1	0.412	9	82	82
30	1	339	1	1	3	0.1857	0.1090	1	1	0.412	94	0	82
30	1	340	9	1	3	0.1857	0.1090	1	1	0.590	0	0	82
30	1	341	9	1	1	0.1857	0.1090	1	1	0.711	0	82	0
30	1	342	1	1	3	0.1857	0.1090	0	1	0.463	89	0	0
30	1	343	9	1	1	0.1857	0.1090	1	1	0.405	0	0	82
30	1	344	0	1	1	0.1857	0.1090	0	1	0.461	9	82	82
30	1	345	0	2	2	0.1857	0.1090	1	0	0.677	0	0	82
30	1	346	0	1	3	0.1857	0.1090	0	1	0.490	9	82	82
30	1	347	1	1	3	0.1857	0.1090	1	1	0.362	99	0	82
30	1	348	9	1	3	0.1857	0.1090	1	0	1.053	0	82	0
30	1	349	0	1	3	0.1857	0.1090	1	0	1.210	0	82	0
30	1	350	0	2	2	0.1857	0.1090	1	1	0.510	8	0	82
30	1	351	9	2	3	0.1857	0.1090	1	1	0.291	0	0	82
30	1	352	1	1	1	0.1857	0.1090	1	1	0.426	92	0	82
30	1	353	0	2	2	0.1857	0.1090	0	1	0.090	10	82	82
30	1	354	1	1	1	0.1857	0.1090	1	0	0.509	0	0	82
30	1	355	0	1	3	0.1857	0.1090	1	1	0.690	7	82	0
30	1	356	0	2	3	0.1857	0.1090	1	1	0.095	10	0	82
30	1	357	1	1	3	0.1857	0.1090	1	0	0.296	0	0	82
30	1	358	1	1	1	0.1857	0.1090	0	1	0.550	80	0	0
30	1	359	0	1	1	0.1857	0.1090	1	1	0.481	9	82	0
30	1	360	1	2	2	0.1857	0.1090	1	1	0.416	93	82	0
30	1	361	0	1	3	0.1857	0.1090	0	0	0.397	0	82	82
30	1	362	0	2	2	0.1857	0.1090	1	1	0.566	8	0	82
30	1	363	1	1	1	0.1857	0.1090	1	1	0.202	100	0	82
30	1	364	9	2	2	0.1857	0.1090	0	0	0.194	0	82	82
30	1	365	1	2	2	0.1857	0.1090	0	1	0.516	83	0	0
30	1	366	1	1	3	0.1857	0.1090	1	1	0.463	89	0	82
30	1	367	0	1	1	0.1857	0.1090	0	1	0.247	10	82	82
30	1	368	9	2	1	0.1857	0.1090	1	1	0.360	0	82	0
30	1	369	1	1	3	0.1857	0.1090	1	1	0.365	98	0	82
30	1	370	0	1	1	0.1857	0.1090	1	1	0.370	10	82	0
30	1	371	1	2	2	0.1857	0.1090	1	0	0.150	0	82	0
30	1	372	0	2	2	0.1857	0.1090	1	1	0.487	9	0	82
30	1	373	0	1	3	0.1857	0.1090	0	1	0.093	10	82	82
30	1	374	0	2	3	0.1857	0.1090	1	1	0.431	9	0	82
30	1	375	9	1	2	0.1857	0.1090	1	1	0.573	0	0	82
30	1	376	0	2	1	0.1857	0.1090	1	0	0.746	0	0	82
30	1	377	0	2	3	0.1857	0.1090	0	0	0.044	0	82	82
30	1	378	9	1	1	0.1857	0.1090	0	1	0.439	0	0	0
30	1	379	1	2	3	0.1857	0.1090	1	1	0.445	90	82	0
30	1	380	0	1	1	0.1857	0.1090	1	0	0.695	0	82	0
30	1	381	1	2	3	0.1857	0.1090	1	1	0.297	100	82	0
30	1	382	9	2	3	0.1857	0.1090	1	0	0.319	0	0	82
30	1	383	0	1	3	0.1857	0.1090	1	1	0.260	10	82	0
30	1	384	0	2	3	0.1857	0.1090	1	0	0.549	0	0	82
30	1	385	0	1	1	0.1857	0.1090	1	1	0.387	10	82	0
30	1	386	0	1	3	0.1857	0.1090	1	1	0.375	10	82	0
30	1	387	0	2	3	0.1857	0.1090	0	0	0.024	0	82	82
30	1	388	9	2	2	0.1857	0.1090	1	1	0.433	0	82	0
30	1	389	0	1	1	0.1857	0.1090	1	0	0.728	0	82	0
30	1	390	0	2	3	0.1857	0.1090	1	1	0.516	8	0	82
30	1	391	1	1	2	0.1857	0.1090	0	1	0.360	99	0	0
30	1	392	1	1	3	0.1857	0.1090	1	0	0.387	0	0	82
30	1	393	0	2	2	0.1857	0.1090	0	1	0.212	10	82	82
30	1	394	9	1	1	0.1857	0.1090	1	1	0.005	0	82	0
30	1	395	1	2	1	0.1857	0.1090	0	1	0.552	80	0	0
30	1	396	1	1	1	0.1857	0.1090	1	1	0.445	90	0	82
30	1	397	0	1	1	0.1857	0.1090	0	1	0.349	10	82	82
30	1	398	9	2	1	0.1857	0.1090	0	1	0.335	0	82	82
30	1	399	1	2	3	0.1857	0.1090	0	1	0.734	62	0	0
30	1	400	0	2	3	0.1857	0.1090	1	0	0.602	0	0	82
30	1	401	1	1	1	0.1857	0.1090	1	1	0.297	100	0	82
30	1	402	9	1	3	0.1857	0.1090	0	1	0.606	0	0	0
30	1	403	1	2	2	0.1857	0.1090	0	1	0.654	70	0	0
30	1	404	0	1	3	0.1857	0.1090	1	1	0.622	7	82	0
30	1	405	1	2	1	0.1857	0.1090	0	1	0.311	100	0	0
30	1	406	0	2	2	0.1857	0.1090	1	1	0.462	9	0	82
30	1	407	0	1	1	0.1857	0.1090	1	1	0.358	10	82	0
30	1	408	9	2	3	0.1857	0.1090	0	0	0.256	0	0	0
30	1	409	9	2	2	0.1857	0.1090	1	1	0.472	0	82	0
30	1	410	1	1	3	0.1857	0.1090	0	1	0.566	78	0	0
30	1	411	0	2	2	0.1857	0.1090	0	1	0.401	9	82	82
30	1	412	1	2	3	0.1857	0.1090	0	1	0.841	51	0	0
30	1	413	0	1	3	0.1857	0.1090	0	0	0.219	0	82	82
30	1	414	0	2	3	0.1857	0.1090	1	1	1.094	5	0	82
30	1	415	1	1	1	0.1857	0.1090	0	0	0.222	0	0	0
30	1	416	1	2	3	0.1857	0.1090	0	1	0.487	86	0	0
30	1	417	9	2	2	0.1857	0.1090	1	1	0.604	0	0	82
30	1	418	9	1	1	0.1857	0.1090	0	1	0.551	0	0	0
30	1	419	0	2	3	0.1857	0.1090	1	0	0.770	0	0	82
30	1	420	9	1	2	0.1857	0.1090	0	1	0.308	0	82	82
30	1	421	1	1	3	0.1857	0.1090	0	0	0.608	0	0	0
30	1	422	9	1	3	0.1857	0.1090	0	1	0.034	0	82	82
30	1	423	9	1	1	0.1857	0.1090	1	1	0.629	0	0	82
30	1	424	9	1	1	0.1857	0.1090	0	0	0.839	0	0	0
30	1	425	0	1	3	0.1857	0.1090	0	1	0.280	10	82	82
30	1	426	0	2	1	0.1857	0.1090	0	1	0.287	10	82	82
30	1	427	0	2	3	0.1857	0.1090	0	1	0.086	10	82	82
30	1	428	1	1	1	0.1857	0.1090	1	1	0.319	100	0	82
30	1	429	1	2	3	0.1857	0.1090	0	0	0.642	0	0	0
30	1	430	0	1	3	0.1857	0.1090	0	1	0.482	9	82	82
30	1	431	0	1	1	0.1857	0.1090	1	0	0.710	0	82	0
30	1	432	1	1	3	0.1857	0.1090	1	1	0.290	100	0	82
30	1	433	9	1	3	0.1857	0.1090	1	0	0.751	0	82	0
30	1	434	1	1	1	0.1857	0.1090	0	1	0.538	81	0	0
30	1	435	1	1	1	0.1857	0.1090	1	1	0.374	98	0	82
30	1	436	9	1	3	0.1857	0.1090	1	1	0.330	0	0	82
30	1	437	1	2	3	0.1857	0.1090	0	1	0.636	71	0	0
30	1	438	1	2	3	0.1857	0.1090	1	1	0.303	100	82	0
30	1	439	9	1	2	0.1857	0.1090	0	0	0.317	0	0	0
30	1	440	9	1	1	0.1857	0.1090	1	1	0.889	0	82	0
30	1	441	9	2	3	0.1857	0.1090	0	1	0.145	0	82	82
30	1	442	1	1	3	0.1857	0.1090	0	1	0.364	99	0	0
30	1	443	9	1	1	0.1857	0.1090	1	0	0.477	0	82	0
30	1	444	0	1	3	0.1857	0.1090	1	1	0.365	10	82	0
30	1	445	9	2	3	0.1857	0.1090	0	0	0.384	0	0	0
30	1	446	1	2	1	0.1857	0.1090	1	1	0.652	70	82	0
30	1	447	1	2	3	0.1857	0.1090	1	1	0.395	96	82	0
30	1	448	1	1	1	0.1857	0.1090	0	1	0.477	87	0	0
30	1	449	1	1	3	0.1857	0.1090	1	1	0.468	88	0	82
30	1	450	0	1	1	0.1857	0.1090	0	1	0.465	9	82	82
30	1	451	1	2	2	0.1857	0.1090	1	1	0.399	95	82	0
30	1	452	0	2	2	0.1857	0.1090	0	1	0.295	10	82	82
30	1	453	0	2	2	0.1857	0.1090	0	1	0.567	8	82	82
30	1	454	1	2	3	0.1857	0.1090	1	1	0.315	100	82	0
30	1	455	0	2	1	0.1857	0.1090	0	1	0.426	9	82	82
30	1	456	0	1	1	0.1857	0.1090	0	1	0.178	10	82	82
30	1	457	9	1	1	0.1857	0.1090	0	0	0.207	0	82	82
30	1	458	0	1	3	0.1857	0.1090	0	1	0.298	10	82	82
30	1	459	1	1	1	0.1857	0.1090	1	1	0.359	99	0	82
30	1	460	0	1	1	0.1857	0.1090	0	1	0.451	9	82	82
30	1	461	1	2	3	0.1857	0.1090	1	1	0.274	100	82	0
30	1	462	0	2	3	0.1857	0.1090	0	1	0.114	10	82	82
30	1	463	0	2	2	0.1857	0.1090	0	0	0.316	0	82	82
30	1	464	1	2	2	0.1857	0.1090	1	1	0.296	100	82	0
30	1	465	0	2	3	0.1857	0.1090	0	1	0.141	10	82	82
30	1	466	9	1	1	0.1857	0.1090	1	1	0.337	0	0	82
30	1	467	0	2	2	0.1857	0.1090	1	0	0.677	0	0	82
30	1	468	0	2	2	0.1857	0.1090	1	1	0.742	6	0	82
30	1	469	1	1	1	0.1857	0.1090	0	1	0.409	94	0	0
30	1	470	1	1	2	0.1857	0.1090	1	1	0.290	100	0	82
30	1	471	0	2	3	0.1857	0.1090	1	1	0.280	10	0	82
30	1	472	1	2	1	0.1857	0.1090	0	1	0.165	100	0	0
30	1	473	0	1	1	0.1857	0.1090	0	1	0.162	10	82	82
30	1	474	1	1	1	0.1857	0.1090	1	1	0.318	100	0	82
30	1	475	1	1	1	0.1857	0.1090	0	1	0.292	100	0	0
30	1	476	0	2	3	0.1857	0.1090	1	1	0.395	10	0	82
30	1	477	9	2	1	0.1857	0.1090	1	0	0.278	0	0	82
30	1	478	1	1	3	0.1857	0.1090	0	0	0.581	0	0	0
30	1	479	1	2	2	0.1857	0.1090	0	1	0.614	74	0	0
30	1	480	0	1	3	0.1857	0.1090	1	1	0.390	10	82	0
30	1	481	1	1	2	0.1857	0.1090	1	0	0.452	0	0	82
30	1	482	9	2	3	0.1857	0.1090	0	1	0.627	0	0	0
30	1	483	1	2	2	0.1857	0.1090	0	1	0.428	92	0	0
30	1	484	9	2	2	0.1857	0.1090	1	0	0.550	0	0	82
30	1	485	1	2	2	0.1857	0.1090	0	1	0.420	93	0	0
30	1	486	1	1	1	0.1857	0.1090	0	1	0.501	85	0	0
30	1	487	1	2	3	0.1857	0.1090	0	0	0.307	0	0	0
30	1	488	9	1	3	0.1857	0.1090	0	1	0.366	0	82	82
30	1	489	1	1	2	0.1857	0.1090	1	1	0.411	94	0	82
30	1	490	1	2	3	0.1857	0.1090	1	0	0.412	0	82	0
30	1	491	1	2	2	0.1857	0.1090	1	1	0.629	72	82	0
30	1	492	1	1	1	0.1857	0.1090	1	1	0.342	100	0	82
30	1	493	0	1	3	0.1857	0.1090	1	0	0.545	0	82	0
30	1	494	0	2	2	0.1857	0.1090	1	0	0.451	0	0	82
30	1	495	1	2	3	0.1857	0.1090	1	1	0.284	100	82	0
30	1	496	0	2	2	0.1857	0.1090	0	1	0.130	10	82	82
30	1	497	0	2	2	0.1857	0.1090	1	1	0.238	10	0	82
30	1	498	9	2	2	0.1857	0.1090	0	1	0.152	0	0	0
30	1	499	0	2	2	0.1857	0.1090	0	1	0.658	7	82	82
30	1	500	1	2	1	0.1857	0.1090	0	0	0.186	0	0	0
30	1	501	0	1	3	0.1857	0.1090	0	1	0.402	9	82	82
30	1	502	0	1	1	0.1857	0.1090	0	1	0.260	10	82	82
30	1	503	1	2	2	0.1857	0.1090	0	1	0.126	100	0	0
30	1	504	0	2	3	0.1857	0.1090	1	0	0.151	0	0	82
30	1	505	0	1	1	0.1857	0.1090	1	1	0.248	10	82	0
30	1	506	0	1	2	0.1857	0.1090	0	0	0.341	0	82	82
30	1	507	9	2	3	0.1857	0.1090	1	1	0.395	0	82	0
30	1	508	0	2	2	0.1857	0.1090	0	1	0.295	10	82	82
30	1	509	0	2	2	0.1857	0.1090	1	1	0.431	9	0	82
30	1	510	0	2	2	0.1857	0.1090	1	1	0.382	10	0	82
30	1	511	1	1	3	0.1857	0.1090	1	0	0.055	0	0	82
30	1	512	1	1	3	0.1857	0.1090	1	1	0.300	100	0	82
30	1	513	0	2	2	0.1857	0.1090	0	1	0.154	10	82	82
30	1	514	1	2	2	0.1857	0.1090	1	1	0.316	100	82	0
30	1	515	1	1	1	0.1857	0.1090	1	1	0.304	100	0	82
30	1	516	0	1	1	0.1857	0.1090	0	1	0.070	10	82	82
30	1	517	0	1	2	0.1857	0.1090	1	1	0.241	10	82	0
30	1	518	1	2	1	0.1857	0.1090	1	1	0.248	100	82	0
30	1	519	0	2	3	0.1857	0.1090	1	1	0.349	10	0	82
30	1	520	1	2	3	0.1857	0.1090	0	1	0.441	91	0	0
30	1	521	1	1	3	0.1857	0.1090	0	1	0.457	89	0	0
30	1	522	1	1	1	0.1857	0.1090	0	0	0.262	0	0	0
30	1	523	0	1	3	0.1857	0.1090	1	1	-0.003	10	82	0
30	1	524	9	1	3	0.1857	0.1090	1	1	0.286	0	82	0
30	1	525	1	2	2	0.1857	0.1090	0	1	0.557	79	0	0
30	1	526	0	2	3	0.1857	0.1090	0	1	0.079	10	82	82
30	1	527	9	1	3	0.1857	0.1090	0	1	0.123	0	82	82
30	1	528	0	1	2	0.1857	0.1090	1	1	0.311	10	82	0
30	1	529	1	1	3	0.1857	0.1090	0	1	0.299	100	0	0
30	1	530	9	1	1	0.1857	0.1090	0	1	0.058	0	82	82
30	1	531	0	1	3	0.1857	0.1090	0	1	0.318	10	82	82
30	1	532	0	1	1	0.1857	0.1090	1	1	0.283	10	82	0
30	1	533	9	1	3	0.1857	0.1090	0	0	0.232	0	0	0
30	1	534	0	2	3	0.1857	0.1090	1	1	0.480	9	0	82
30	1	535	0	1	1	0.1857	0.1090	1	0	0.097	0	82	0
30	1	536	9	2	3	0.1857	0.1090	1	1	0.388	0	82	0
30	1	537	0	2	1	0.1857	0.1090	1	1	0.325	10	0	82
30	1	538	1	1	3	0.1857	0.1090	1	0	0.211	0	0	82
30	1	539	1	1	3	0.1857	0.1090	0	1	0.436	91	0	0
30	1	540	1	2	2	0.1857	0.1090	1	1	0.188	100	82	0
30	1	541	1	1	3	0.1857	0.1090	1	1	0.238	100	0	82
30	1	542	0	1	2	0.1857	0.1090	1	1	0.128	10	82	0
30	1	543	0	2	3	0.1857	0.1090	0	1	0.036	10	82	82
30	1	544	9	2	2	0.1857	0.1090	0	1	0.078	0	82	82
30	1	545	0	2	2	0.1857	0.1090	0	1	0.539	8	82	82
30	1	546	1	1	1	0.1857	0.1090	0	0	0.382	0	0	0
30	1	547	0	2	2	0.1857	0.1090	1	1	0.497	9	0	82
30	1	548	9	2	3	0.1857	0.1090	1	1	0.231	0	0	82
30	1	549	0	1	1	0.1857	0.1090	0	1	0.175	10	82	82
30	1	550	0	1	3	0.1857	0.1090	1	0	0.426	0	82	0
30	1	551	0	2	3	0.1857	0.1090	0	0	0.176	0	82	82
30	1	552	1	1	3	0.1857	0.1090	1	1	0.196	100	0	82
30	1	553	1	1	1	0.1857	0.1090	0	1	0.380	97	0	0
30	1	554	0	2	3	0.1857	0.1090	1	1	0.424	9	0	82
30	1	555	0	2	3	0.1857	0.1090	0	1	0.162	10	82	82
30	1	556	9	2	2	0.1857	0.1090	1	0	0.246	0	0	82
30	1	557	0	2	3	0.1857	0.1090	0	0	0.292	0	82	82
30	1	558	1	2	2	0.1857	0.1090	0	1	0.346	100	0	0
30	1	559	1	2	2	0.1857	0.1090	1	1	0.189	100	82	0
30	1	560	0	1	3	0.1857	0.1090	1	1	0.237	10	82	0
30	1	561	9	1	2	0.1857	0.1090	1	1	0.258	0	82	0
30	1	562	1	1	3	0.1857	0.1090	1	1	0.370	98	0	82
30	1	563	1	1	1	0.1857	0.1090	1	1	0.188	100	0	82
30	1	564	1	1	1	0.1857	0.1090	0	1	0.013	100	0	0
30	1	565	1	1	1	0.1857	0.1090	1	1	0.200	100	0	82
30	1	566	9	1	1	0.1857	0.1090	1	0	0.248	0	0	82
30	1	567	9	1	3	0.1857	0.1090	1	1	0.273	0	0	82
30	1	568	9	2	2	0.1857	0.1090	0	0	0.022	0	0	0
30	1	569	1	2	1	0.1857	0.1090	1	1	0.288	100	82	0
30	1	570	0	1	1	0.1857	0.1090	1	0	0.584	0	82	0
30	1	571	9	1	3	0.1857	0.1090	1	1	0.042	0	82	0
30	1	572	0	1	3	0.1857	0.1090	0	1	0.612	7	82	82
30	1	573	0	1	1	0.1857	0.1090	1	0	0.479	0	82	0
30	1	574	0	2	3	0.1857	0.1090	0	1	0.197	10	82	82
30	1	575	0	2	3	0.1857	0.1090	1	1	0.108	10	0	82
30	1	576	1	1	1	0.1857	0.1090	0	1	0.392	96	0	0
30	1	577	0	2	3	0.1857	0.1090	1	0	0.266	0	0	82
30	1	578	1	1	1	0.1857	0.1090	1	1	0.247	100	0	82
30	1	579	0	1	1	0.1857	0.1090	0	1	0.213	10	82	82
30	1	580	1	1	1	0.1857	0.1090	0	1	0.309	100	0	0
30	1	581	1	2	2	0.1857	0.1090	0	1	0.419	93	0	0
30	1	582	1	2	2	0.1857	0.1090	0	0	0.243	0	0	0
30	1	583	1	1	1	0.1857	0.1090	0	1	0.354	100	0	0
30	1	584	9	1	3	0.1857	0.1090	0	0	0.269	0	0	0
30	1	585	0	2	3	0.1857	0.1090	0	1	0.516	8	82	82
30	1	586	9	2	2	0.1857	0.1090	0	0	0.139	0	82	82
30	1	587	9	2	2	0.1857	0.1090	1	0	0.621	0	0	82
30	1	588	9	1	1	0.1857	0.1090	0	0	0.292	0	82	82
30	1	589	1	2	3	0.1857	0.1090	1	1	0.385	97	82	0
30	1	590	1	2	3	0.1857	0.1090	0	1	0.497	85	0	0
30	1	591	9	1	1	0.1857	0.1090	0	0	0.262	0	0	0
30	1	592	0	2	1	0.1857	0.1090	1	1	0.567	8	0	82
30	1	593	0	2	3	0.1857	0.1090	0	1	0.194	10	82	82
30	1	594	0	2	2	0.1857	0.1090	1	0	0.229	0	0	82
30	1	595	9	1	3	0.1857	0.1090	1	1	0.301	0	0	82
30	1	596	0	1	1	0.1857	0.1090	1	1	0.300	10	82	0
30	1	597	1	2	2	0.1857	0.1090	0	0	0.265	0	0	0
30	1	598	1	2	2	0.1857	0.1090	0	1	0.322	100	0	0
30	1	599	0	1	1	0.1857	0.1090	1	0	0.246	0	82	0
30	1	600	9	2	2	0.1857	0.1090	1	0	0.319	0	82	0
30	1	601	9	1	1	0.1857	0.1090	1	1	0.286	0	0	82
30	1	602	0	1	3	0.1857	0.1090	1	1	0.245	10	82	0
30	1	603	9	2	3	0.1857	0.1090	0	0	0.316	0	82	82
30	1	604	9	2	3	0.1857	0.1090	1	1	0.304	0	82	0
30	1	605	1	2	2	0.1857	0.1090	1	1	0.220	100	82	0
30	1	606	0	1	3	0.1857	0.1090	1	1	0.405	9	82	0
30	1	607	1	1	3	0.1857	0.1090	0	1	0.302	100	0	0
30	1	608	1	2	3	0.1857	0.1090	0	1	0.277	100	0	0
30	1	609	0	2	3	0.1857	0.1090	0	1	0.204	10	82	82
30	1	610	9	1	3	0.1857	0.1090	0	1	0.285	0	0	0
30	1	611	1	2	3	0.1857	0.1090	0	1	0.434	92	0	0
30	1	612	1	1	3	0.1857	0.1090	1	0	0.282	0	0	82
30	1	613	1	1	1	0.1857	0.1090	1	1	0.329	100	0	82
30	1	614	0	1	1	0.1857	0.1090	1	1	0.260	10	82	0
30	1	615	9	1	3	0.1857	0.1090	1	1	0.445	0	82	0
30	1	616	0	2	2	0.1857	0.1090	0	1	0.180	10	82	82
30	1	617	0	1	1	0.1857	0.1090	0	1	0.285	10	82	82
30	1	618	1	2	2	0.1857	0.1090	0	1	0.299	100	0	0
30	1	619	1	2	2	0.1857	0.1090	1	0	0.242	0	82	0
30	1	620	0	2	3	0.1857	0.1090	1	1	0.235	10	0	82
30	1	621	1	2	3	0.1857	0.1090	1	1	0.323	100	82	0
30	1	622	9	2	2	0.1857	0.1090	0	1	0.473	0	0	0
30	1	623	0	1	3	0.1857	0.1090	1	1	0.362	10	82	0
30	1	624	0	2	3	0.1857	0.1090	0	0	0.166	0	82	82
30	1	625	1	2	2	0.1857	0.1090	1	1	0.704	65	82	0
30	1	626	1	1	3	0.1857	0.1090	0	1	0.572	78	0	0
30	1	627	0	1	3	0.1857	0.1090	1	1	0.069	10	82	0
30	1	628	1	2	2	0.1857	0.1090	0	1	0.473	88	0	0
30	1	629	0	1	3	0.1857	0.1090	0	1	0.238	10	82	82
30	1	630	1	1	2	0.1857	0.1090	1	1	0.229	100	0	82
30	1	631	0	1	3	0.1857	0.1090	0	1	0.212	10	82	82
30	1	632	0	2	3	0.1857	0.1090	0	1	0.239	10	82	82
30	1	633	0	1	1	0.1857	0.1090	0	1	0.104	10	82	82
30	1	634	9	2	3	0.1857	0.1090	0	0	-0.030	0	82	82
30	1	635	1	1	3	0.1857	0.1090	0	0	0.229	0	0	0
30	1	636	9	1	1	0.1857	0.1090	1	1	0.262	0	82	0
30	1	637	1	1	1	0.1857	0.1090	1	1	0.276	100	0	82
30	1	638	0	2	3	0.1857	0.1090	1	1	0.275	10	0	82
30	1	639	1	2	3	0.1857	0.1090	0	1	0.224	100	0	0
30	1	640	0	1	1	0.1857	0.1090	0	1	0.211	10	82	82
30	1	641	0	2	2	0.1857	0.1090	0	1	0.279	10	82	82
30	1	642	9	2	1	0.1857	0.1090	0	0	0.431	0	0	0
30	1	643	0	1	3	0.1857	0.1090	0	0	0.184	0	82	82
30	1	644	0	1	3	0.1857	0.1090	1	0	0.211	0	82	0
30	1	645	9	2	3	0.1857	0.1090	1	1	0.275	0	0	82
30	1	646	1	1	3	0.1857	0.1090	0	1	0.513	84	0	0
30	1	647	0	2	2	0.1857	0.1090	0	1	0.280	10	82	82
30	1	648	1	2	3	0.1857	0.1090	1	1	0.287	100	82	0
30	1	649	1	1	3	0.1857	0.1090	1	1	0.275	100	0	82
30	1	650	1	2	3	0.1857	0.1090	1	1	0.345	100	82	0
30	1	651	1	2	3	0.1857	0.1090	1	1	0.302	100	82	0
30	1	652	1	1	3	0.1857	0.1090	0	1	0.484	87	0	0
30	1	653	1	2	3	0.1857	0.1090	0	0	0.322	0	0	0
30	1	654	9	1	3	0.1857	0.1090	0	1	0.704	0	82	82
30	1	655	0	1	2	0.1857	0.1090	1	1	0.279	10	82	0
30	1	656	1	1	2	0.1857	0.1090	0	1	0.310	100	0	0
30	1	657	9	1	3	0.1857	0.1090	1	1	0.212	0	0	82
30	1	658	9	2	2	0.1857	0.1090	0	0	0.334	0	82	82
30	1	659	1	1	1	0.1857	0.1090	0	1	0.377	97	0	0
30	1	660	1	1	1	0.1857	0.1090	0	1	0.324	100	0	0
30	1	661	1	2	2	0.1857	0.1090	1	1	0.134	100	82	0
30	1	662	1	1	1	0.1857	0.1090	1	0	0.008	0	0	82
30	1	663	9	1	1	0.1857	0.1090	0	0	0.260	0	82	82
30	1	664	9	2	3	0.1857	0.1090	1	0	0.269	0	0	82
30	1	665	0	1	2	0.1857	0.1090	0	1	0.068	10	82	82
30	1	666	0	2	2	0.1857	0.1090	1	1	0.256	10	0	82
30	1	667	0	1	3	0.1857	0.1090	1	1	0.303	10	82	0
30	1	668	1	1	3	0.1857	0.1090	1	1	0.383	97	0	82
30	1	669	0	2	2	0.1857	0.1090	0	1	0.240	10	82	82
30	1	670	1	2	3	0.1857	0.1090	1	1	0.282	100	82	0
30	1	671	1	1	2	0.1857	0.1090	0	1	0.257	100	0	0
30	1	672	1	2	2	0.1857	0.1090	1	1	0.226	100	82	0
30	1	673	9	2	2	0.1857	0.1090	1	1	0.186	0	82	0
30	1	674	1	1	3	0.1857	0.1090	0	1	0.443	91	0	0
30	1	675	1	2	3	0.1857	0.1090	0	0	0.483	0	0	0
30	1	676	1	2	2	0.1857	0.1090	1	1	0.291	100	82	0
30	1	677	1	1	3	0.1857	0.1090	1	1	0.298	100	0	82
30	1	678	9	2	2	0.1857	0.1090	0	0	0.306	0	0	0
30	1	679	0	1	1	0.1857	0.1090	0	1	0.053	10	82	82
30	1	680	0	1	1	0.1857	0.1090	1	1	0.231	10	82	0
30	1	681	0	1	3	0.1857	0.1090	0	1	0.108	10	82	82
30	1	682	0	1	1	0.1857	0.1090	1	1	0.038	10	82	0
30	1	683	1	2	2	0.1857	0.1090	0	1	0.267	100	0	0
30	1	684	1	1	2	0.1857	0.1090	0	1	0.079	100	0	0
30	1	685	1	1	1	0.1857	0.1090	1	0	0.307	0	0	82
30	1	686	1	1	3	0.1857	0.1090	0	1	0.343	100	0	0
30	1	687	1	2	2	0.1857	0.1090	1	1	0.171	100	82	0
30	1	688	0	2	1	0.1857	0.1090	1	0	0.151	0	0	82
30	1	689	0	1	2	0.1857	0.1090	0	0	0.315	0	82	82
30	1	690	0	2	2	0.1857	0.1090	1	1	0.167	10	0	82
30	1	691	0	2	2	0.1857	0.1090	0	1	0.211	10	82	82
30	1	692	1	1	3	0.1857	0.1090	0	0	0.187	0	0	0
30	1	693	0	1	3	0.1857	0.1090	0	1	0.269	10	82	82
30	1	694	1	2	3	0.1857	0.1090	0	1	0.300	100	0	0
30	1	695	1	1	3	0.1857	0.1090	1	1	0.416	93	0	82
30	1	696	9	2	3	0.1857	0.1090	0	1	0.401	0	0	0
30	1	697	0	2	2	0.1857	0.1090	0	0	0.265	0	82	82
30	1	698	1	1	1	0.1857	0.1090	0	1	0.456	89	0	0
30	1	699	0	1	1	0.1857	0.1090	0	1	0.558	8	82	82
30	1	700	1	1	3	0.1857	0.1090	0	1	0.369	98	0	0
30	1	701	0	1	2	0.1857	0.1090	0	1	0.416	9	82	82
30	1	702	0	1	3	0.1857	0.1090	1	1	0.288	10	82	0
30	1	703	1	2	3	0.1857	0.1090	0	1	0.525	83	0	0
30	1	704	0	2	2	0.1857	0.1090	1	1	0.524	8	0	82
30	1	705	1	2	2	0.1857	0.1090	0	1	0.434	92	0	0
30	1	706	1	2	3	0.1857	0.1090	1	1	0.268	100	82	0
30	1	707	1	2	3	0.1857	0.1090	0	1	0.250	100	0	0
30	1	708	1	2	2	0.1857	0.1090	1	1	0.298	100	82	0
30	1	709	1	2	1	0.1857	0.1090	1	1	0.161	100	82	0
30	1	710	0	1	1	0.1857	0.1090	0	1	0.171	10	82	82
30	1	711	9	2	3	0.1857	0.1090	0	1	0.271	0	82	82
30	1	712	0	1	3	0.1857	0.1090	0	1	0.343	10	82	82
30	1	713	0	2	1	0.1857	0.1090	0	1	0.185	10	82	82
30	1	714	9	2	3	0.1857	0.1090	1	1	0.155	0	82	0
30	1	715	1	2	3	0.1857	0.1090	1	1	0.375	97	82	0
30	1	716	0	1	3	0.1857	0.1090	0	1	0.274	10	82	82
30	1	717	1	2	2	0.1857	0.1090	1	1	0.234	100	82	0
30	1	718	0	2	1	0.1857	0.1090	0	1	0.178	10	82	82
30	1	719	0	2	2	0.1857	0.1090	1	0	0.119	0	0	82
30	1	720	0	2	2	0.1857	0.1090	1	1	0.272	10	0	82
