sub	sess	t	rew	loc	cue	co1	co2	or	resp	rt	rew_tot	left_col	right_col
98	1	1	9	1	2	0.0500	0.4295	0	0	0.977	0	0	0
98	1	2	0	1	3	0.0500	0.4295	1	1	0.986	5	82	0
98	1	3	1	2	2	0.0500	0.4295	1	1	0.718	63	82	0
98	1	4	1	1	1	0.0500	0.4295	0	1	0.750	60	0	0
98	1	5	0	2	3	0.0500	0.4295	0	1	0.716	6	82	82
98	1	6	1	1	1	0.0500	0.4295	0	1	0.962	50	0	0
98	1	7	1	1	1	0.0500	0.4295	0	1	0.734	62	0	0
98	1	8	1	1	3	0.0500	0.4295	1	1	0.906	50	0	82
98	1	9	0	1	2	0.0500	0.4295	1	1	0.873	5	82	0
98	1	10	0	2	1	0.0500	0.4295	1	1	0.911	5	0	82
98	1	11	1	2	2	0.0500	0.4295	1	1	0.829	52	82	0
98	1	12	9	1	3	0.0500	0.4295	0	0	1.295	0	0	0
98	1	13	0	1	3	0.0500	0.4295	1	1	1.395	5	82	0
98	1	14	1	2	3	0.0500	0.4295	0	1	0.687	66	0	0
98	1	15	0	2	3	0.0500	0.4295	1	1	0.639	7	0	82
98	1	16	9	1	3	0.0500	0.4295	0	0	0.699	0	0	0
98	1	17	9	2	2	0.0500	0.4295	0	1	0.676	0	0	0
98	1	18	1	2	2	0.0500	0.4295	0	1	0.604	75	0	0
98	1	19	0	2	3	0.0500	0.4295	1	1	0.646	7	0	82
98	1	20	0	1	1	0.0500	0.4295	1	0	0.845	0	82	0
98	1	21	1	2	3	0.0500	0.4295	1	1	0.752	60	82	0
98	1	22	1	1	1	0.0500	0.4295	1	1	0.762	59	0	82
98	1	23	0	1	3	0.0500	0.4295	0	1	0.732	6	82	82
98	1	24	9	2	2	0.0500	0.4295	0	1	0.726	0	82	82
98	1	25	9	2	2	0.0500	0.4295	0	1	1.110	0	0	0
98	1	26	9	1	3	0.0500	0.4295	0	0	1.640	0	82	82
98	1	27	9	1	1	0.0500	0.4295	1	0	0.874	0	0	82
98	1	28	1	2	3	0.0500	0.4295	1	1	0.743	61	82	0
98	1	29	0	2	3	0.0500	0.4295	1	1	0.893	5	0	82
98	1	30	9	2	3	0.0500	0.4295	1	1	0.582	0	0	82
98	1	31	0	2	1	0.0500	0.4295	0	1	0.631	7	82	82
98	1	32	1	2	2	0.0500	0.4295	0	1	0.477	87	0	0
98	1	33	1	1	3	0.0500	0.4295	1	1	0.773	58	0	82
98	1	34	0	2	3	0.0500	0.4295	0	1	0.786	6	82	82
98	1	35	0	2	3	0.0500	0.4295	0	1	0.671	7	82	82
98	1	36	0	1	3	0.0500	0.4295	1	1	0.634	7	82	0
98	1	37	0	2	2	0.0500	0.4295	1	0	0.443	0	0	82
98	1	38	1	2	2	0.0500	0.4295	1	1	0.604	75	82	0
98	1	39	0	1	2	0.0500	0.4295	1	1	1.272	5	82	0
98	1	40	0	1	1	0.0500	0.4295	1	1	0.781	6	82	0
98	1	41	1	1	1	0.0500	0.4295	1	0	0.845	0	0	82
98	1	42	0	2	3	0.0500	0.4295	1	1	0.734	6	0	82
98	1	43	0	1	3	0.0500	0.4295	0	1	0.703	6	82	82
98	1	44	1	1	3	0.0500	0.4295	0	1	0.759	59	0	0
98	1	45	0	2	2	0.0500	0.4295	0	1	0.554	8	82	82
98	1	46	9	1	1	0.0500	0.4295	0	1	0.643	0	0	0
98	1	47	1	1	3	0.0500	0.4295	1	1	0.619	73	0	82
98	1	48	1	2	3	0.0500	0.4295	1	1	0.764	59	82	0
98	1	49	0	2	3	0.0500	0.4295	0	1	0.625	7	82	82
98	1	50	1	1	1	0.0500	0.4295	0	1	0.724	63	0	0
98	1	51	0	2	3	0.0500	0.4295	1	1	0.677	7	0	82
98	1	52	0	1	2	0.0500	0.4295	0	1	0.671	7	82	82
98	1	53	0	1	1	0.0500	0.4295	1	0	0.721	0	82	0
98	1	54	0	2	2	0.0500	0.4295	1	1	0.635	7	0	82
98	1	55	9	2	3	0.0500	0.4295	0	1	0.824	0	82	82
98	1	56	0	1	3	0.0500	0.4295	0	1	0.715	6	82	82
98	1	57	0	2	2	0.0500	0.4295	1	1	0.714	6	0	82
98	1	58	1	2	3	0.0500	0.4295	0	1	0.634	72	0	0
98	1	59	0	1	3	0.0500	0.4295	1	0	0.635	0	82	0
98	1	60	9	2	3	0.0500	0.4295	0	1	0.641	0	82	82
98	1	61	0	1	3	0.0500	0.4295	1	1	0.820	5	82	0
98	1	62	9	1	1	0.0500	0.4295	0	1	0.851	0	0	0
98	1	63	9	2	2	0.0500	0.4295	0	1	0.467	0	82	82
98	1	64	1	1	1	0.0500	0.4295	0	1	0.707	64	0	0
98	1	65	0	2	3	0.0500	0.4295	1	1	0.863	5	0	82
98	1	66	0	2	2	0.0500	0.4295	0	1	0.478	9	82	82
98	1	67	1	2	3	0.0500	0.4295	1	1	0.671	68	82	0
98	1	68	9	2	2	0.0500	0.4295	0	1	0.448	0	82	82
98	1	69	0	2	2	0.0500	0.4295	0	1	0.454	9	82	82
98	1	70	1	2	3	0.0500	0.4295	1	0	0.478	0	82	0
98	1	71	0	1	2	0.0500	0.4295	1	1	2.310	5	82	0
98	1	72	0	1	1	0.0500	0.4295	1	1	0.936	5	82	0
98	1	73	9	2	3	0.0500	0.4295	0	1	0.591	0	82	82
98	1	74	0	1	2	0.0500	0.4295	0	0	0.748	0	82	82
98	1	75	1	1	3	0.0500	0.4295	1	1	0.806	54	0	82
98	1	76	1	2	2	0.0500	0.4295	0	1	0.597	75	0	0
98	1	77	0	1	2	0.0500	0.4295	0	0	0.667	0	82	82
98	1	78	1	1	3	0.0500	0.4295	0	1	0.701	65	0	0
98	1	79	0	1	1	0.0500	0.4295	0	1	0.709	6	82	82
98	1	80	0	1	3	0.0500	0.4295	0	1	0.656	7	82	82
98	1	81	9	1	3	0.0500	0.4295	1	1	0.836	0	0	82
98	1	82	1	2	3	0.0500	0.4295	1	1	1.564	50	82	0
98	1	83	9	2	3	0.0500	0.4295	1	1	0.699	0	82	0
98	1	84	0	1	3	0.0500	0.4295	1	1	0.973	5	82	0
98	1	85	0	2	1	0.0500	0.4295	0	1	0.683	7	82	82
98	1	86	0	1	1	0.0500	0.4295	1	0	1.002	0	82	0
98	1	87	9	1	3	0.0500	0.4295	0	1	0.814	0	82	82
98	1	88	1	2	2	0.0500	0.4295	1	1	0.788	56	82	0
98	1	89	0	2	3	0.0500	0.4295	0	1	0.894	5	82	82
98	1	90	9	2	2	0.0500	0.4295	0	1	1.128	0	0	0
98	1	91	9	2	2	0.0500	0.4295	1	1	0.739	0	82	0
98	1	92	0	2	2	0.0500	0.4295	1	1	0.708	6	0	82
98	1	93	9	2	2	0.0500	0.4295	1	1	0.624	0	82	0
98	1	94	1	1	3	0.0500	0.4295	0	1	0.952	50	0	0
98	1	95	0	1	1	0.0500	0.4295	1	0	1.075	0	82	0
98	1	96	0	2	1	0.0500	0.4295	0	1	0.763	6	82	82
98	1	97	0	2	3	0.0500	0.4295	1	1	0.690	7	0	82
98	1	98	0	2	2	0.0500	0.4295	0	1	0.578	8	82	82
98	1	99	0	1	1	0.0500	0.4295	1	1	0.664	7	82	0
98	1	100	1	2	2	0.0500	0.4295	0	1	0.821	53	0	0
98	1	101	1	1	1	0.0500	0.4295	0	1	0.926	50	0	0
98	1	102	1	2	3	0.0500	0.4295	0	1	0.675	68	0	0
98	1	103	1	1	1	0.0500	0.4295	0	1	0.658	69	0	0
98	1	104	1	2	2	0.0500	0.4295	0	1	0.777	57	0	0
98	1	105	1	1	3	0.0500	0.4295	0	1	0.730	62	0	0
98	1	106	1	1	3	0.0500	0.4295	0	1	0.666	68	0	0
98	1	107	1	1	2	0.0500	0.4295	1	1	0.771	58	0	82
98	1	108	1	1	1	0.0500	0.4295	1	0	0.596	0	0	82
98	1	109	9	2	3	0.0500	0.4295	0	1	0.645	0	0	0
98	1	110	0	2	3	0.0500	0.4295	1	1	0.612	7	0	82
98	1	111	1	1	3	0.0500	0.4295	0	1	0.853	50	0	0
98	1	112	0	2	3	0.0500	0.4295	0	1	0.694	7	82	82
98	1	113	1	1	3	0.0500	0.4295	0	1	0.625	72	0	0
98	1	114	9	1	1	0.0500	0.4295	0	1	0.662	0	82	82
98	1	115	0	1	1	0.0500	0.4295	0	1	0.604	7	82	82
98	1	116	0	1	3	0.0500	0.4295	0	1	0.567	8	82	82
98	1	117	1	2	2	0.0500	0.4295	0	1	0.668	68	0	0
98	1	118	0	1	3	0.0500	0.4295	0	1	0.533	8	82	82
98	1	119	0	1	1	0.0500	0.4295	0	1	0.588	8	82	82
98	1	120	9	2	3	0.0500	0.4295	1	0	0.601	0	0	82
98	1	121	1	1	1	0.0500	0.4295	0	1	0.830	52	0	0
98	1	122	0	1	3	0.0500	0.4295	1	1	0.756	6	82	0
98	1	123	1	2	3	0.0500	0.4295	1	1	0.683	67	82	0
98	1	124	0	2	1	0.0500	0.4295	1	1	0.690	7	0	82
98	1	125	1	1	2	0.0500	0.4295	1	1	0.514	84	0	82
98	1	126	1	1	1	0.0500	0.4295	1	1	0.532	82	0	82
98	1	127	9	1	1	0.0500	0.4295	1	0	0.658	0	82	0
98	1	128	1	2	2	0.0500	0.4295	0	1	0.756	59	0	0
98	1	129	1	1	3	0.0500	0.4295	1	1	0.707	64	0	82
98	1	130	0	1	3	0.0500	0.4295	0	1	0.548	8	82	82
98	1	131	1	2	2	0.0500	0.4295	1	0	0.383	0	82	0
98	1	132	1	2	2	0.0500	0.4295	1	1	0.516	83	82	0
98	1	133	0	2	2	0.0500	0.4295	1	1	0.615	7	0	82
98	1	134	9	1	3	0.0500	0.4295	1	1	0.657	0	0	82
98	1	135	0	2	3	0.0500	0.4295	0	1	0.617	7	82	82
98	1	136	9	2	1	0.0500	0.4295	1	1	0.724	0	82	0
98	1	137	9	1	3	0.0500	0.4295	1	1	1.375	0	82	0
98	1	138	0	1	3	0.0500	0.4295	0	1	0.798	6	82	82
98	1	139	1	2	3	0.0500	0.4295	1	1	1.099	50	82	0
98	1	140	0	2	2	0.0500	0.4295	0	1	0.676	7	82	82
98	1	141	0	1	3	0.0500	0.4295	1	1	0.851	5	82	0
98	1	142	0	2	2	0.0500	0.4295	1	1	0.682	7	0	82
98	1	143	1	2	2	0.0500	0.4295	1	1	0.706	64	82	0
98	1	144	1	2	1	0.0500	0.4295	1	1	0.554	80	82	0
98	1	145	1	1	1	0.0500	0.4295	0	0	0.907	0	0	0
98	1	146	9	1	1	0.0500	0.4295	1	1	1.125	0	82	0
98	1	147	1	1	1	0.0500	0.4295	1	1	0.689	66	0	82
98	1	148	0	2	3	0.0500	0.4295	1	0	0.677	0	0	82
98	1	149	1	2	3	0.0500	0.4295	1	1	0.658	69	82	0
98	1	150	9	2	2	0.0500	0.4295	0	1	0.567	0	0	0
98	1	151	0	1	1	0.0500	0.4295	1	1	0.638	7	82	0
98	1	152	1	2	3	0.0500	0.4295	0	1	0.480	87	0	0
98	1	153	1	2	3	0.0500	0.4295	1	1	0.562	79	82	0
98	1	154	1	2	2	0.0500	0.4295	0	1	0.456	89	0	0
98	1	155	9	2	3	0.0500	0.4295	1	1	0.593	0	82	0
98	1	156	1	1	3	0.0500	0.4295	0	0	0.779	0	0	0
98	1	157	1	2	1	0.0500	0.4295	1	1	0.693	66	82	0
98	1	158	0	2	3	0.0500	0.4295	1	1	0.581	8	0	82
98	1	159	9	1	1	0.0500	0.4295	1	1	0.889	0	82	0
98	1	160	1	2	1	0.0500	0.4295	1	1	0.723	63	82	0
98	1	161	1	1	2	0.0500	0.4295	1	1	0.623	73	0	82
98	1	162	0	2	2	0.0500	0.4295	0	1	0.549	8	82	82
98	1	163	0	1	3	0.0500	0.4295	0	0	0.739	0	82	82
98	1	164	0	1	1	0.0500	0.4295	0	1	0.738	6	82	82
98	1	165	0	2	2	0.0500	0.4295	1	1	0.621	7	0	82
98	1	166	0	2	2	0.0500	0.4295	0	1	0.628	7	82	82
98	1	167	1	1	1	0.0500	0.4295	1	1	0.739	61	0	82
98	1	168	9	2	2	0.0500	0.4295	1	1	0.803	0	0	82
98	1	169	0	2	2	0.0500	0.4295	1	1	0.735	6	0	82
98	1	170	1	1	3	0.0500	0.4295	0	0	0.789	0	0	0
98	1	171	0	1	1	0.0500	0.4295	1	1	0.773	6	82	0
98	1	172	1	1	3	0.0500	0.4295	1	1	1.245	50	0	82
98	1	173	0	1	1	0.0500	0.4295	0	1	0.693	7	82	82
98	1	174	0	2	2	0.0500	0.4295	0	0	0.869	0	82	82
98	1	175	0	2	3	0.0500	0.4295	0	1	0.626	7	82	82
98	1	176	1	2	3	0.0500	0.4295	1	1	0.724	63	82	0
98	1	177	1	1	1	0.0500	0.4295	1	1	0.703	65	0	82
98	1	178	9	1	1	0.0500	0.4295	0	1	0.763	0	82	82
98	1	179	9	2	2	0.0500	0.4295	0	1	0.594	0	82	82
98	1	180	0	1	1	0.0500	0.4295	0	1	0.763	6	82	82
98	1	181	0	1	1	0.0500	0.4295	1	0	0.708	0	82	0
98	1	182	0	2	2	0.0500	0.4295	1	1	0.599	8	0	82
98	1	183	0	1	3	0.0500	0.4295	1	1	0.675	7	82	0
98	1	184	1	2	3	0.0500	0.4295	0	1	0.573	78	0	0
98	1	185	9	2	2	0.0500	0.4295	1	1	0.634	0	82	0
98	1	186	1	1	3	0.0500	0.4295	0	1	0.701	65	0	0
98	1	187	0	1	3	0.0500	0.4295	1	1	0.798	6	82	0
98	1	188	9	2	3	0.0500	0.4295	1	1	0.681	0	0	82
98	1	189	0	1	1	0.0500	0.4295	1	1	1.149	5	82	0
98	1	190	0	2	2	0.0500	0.4295	1	1	0.705	6	0	82
98	1	191	1	1	3	0.0500	0.4295	1	1	0.737	61	0	82
98	1	192	0	1	1	0.0500	0.4295	0	1	0.644	7	82	82
98	1	193	0	2	3	0.0500	0.4295	1	0	1.105	0	0	82
98	1	194	1	2	1	0.0500	0.4295	0	1	0.694	66	0	0
98	1	195	1	2	2	0.0500	0.4295	0	1	0.514	84	0	0
98	1	196	1	2	2	0.0500	0.4295	1	1	0.657	69	82	0
98	1	197	0	1	1	0.0500	0.4295	1	0	0.647	0	82	0
98	1	198	9	1	3	0.0500	0.4295	1	1	0.829	0	82	0
98	1	199	0	1	3	0.0500	0.4295	1	1	1.049	5	82	0
98	1	200	9	1	3	0.0500	0.4295	0	1	1.038	0	0	0
98	1	201	0	1	1	0.0500	0.4295	0	1	0.687	7	82	82
98	1	202	1	2	2	0.0500	0.4295	0	1	0.622	73	0	0
98	1	203	9	2	2	0.0500	0.4295	1	1	0.589	0	0	82
98	1	204	1	2	2	0.0500	0.4295	0	0	0.691	0	0	0
98	1	205	0	1	2	0.0500	0.4295	0	0	0.821	0	82	82
98	1	206	1	1	3	0.0500	0.4295	0	1	0.884	50	0	0
98	1	207	1	1	1	0.0500	0.4295	1	1	0.841	51	0	82
98	1	208	1	1	1	0.0500	0.4295	1	1	0.790	56	0	82
98	1	209	0	2	2	0.0500	0.4295	0	1	0.520	8	82	82
98	1	210	0	2	2	0.0500	0.4295	0	1	0.748	6	82	82
98	1	211	9	1	3	0.0500	0.4295	1	1	0.705	0	0	82
98	1	212	1	1	1	0.0500	0.4295	0	0	7.877	0	0	0
98	1	213	1	1	1	0.0500	0.4295	1	1	0.610	74	0	82
98	1	214	1	2	3	0.0500	0.4295	1	1	0.850	50	82	0
98	1	215	9	1	1	0.0500	0.4295	0	0	0.760	0	0	0
98	1	216	1	2	2	0.0500	0.4295	1	1	0.751	60	82	0
98	1	217	1	2	3	0.0500	0.4295	0	1	0.627	72	0	0
98	1	218	0	2	3	0.0500	0.4295	1	1	0.659	7	0	82
98	1	219	0	1	1	0.0500	0.4295	0	0	0.480	0	82	82
98	1	220	1	1	2	0.0500	0.4295	0	0	0.796	0	0	0
98	1	221	1	1	3	0.0500	0.4295	0	1	0.652	70	0	0
98	1	222	1	2	2	0.0500	0.4295	1	1	1.020	50	82	0
98	1	223	0	1	1	0.0500	0.4295	1	1	0.903	5	82	0
98	1	224	9	2	3	0.0500	0.4295	1	1	1.076	0	82	0
98	1	225	0	2	3	0.0500	0.4295	0	1	0.658	7	82	82
98	1	226	1	2	2	0.0500	0.4295	0	1	0.798	55	0	0
98	1	227	9	1	1	0.0500	0.4295	1	1	0.748	0	0	82
98	1	228	9	1	3	0.0500	0.4295	0	1	0.586	0	82	82
98	1	229	0	2	2	0.0500	0.4295	0	1	0.556	8	82	82
98	1	230	0	1	3	0.0500	0.4295	1	1	0.650	7	82	0
98	1	231	1	1	3	0.0500	0.4295	1	1	0.748	60	0	82
98	1	232	1	1	1	0.0500	0.4295	1	1	0.738	61	0	82
98	1	233	0	2	2	0.0500	0.4295	0	1	0.630	7	82	82
98	1	234	0	2	2	0.0500	0.4295	0	1	1.548	5	82	82
98	1	235	9	2	2	0.0500	0.4295	1	1	0.625	0	82	0
98	1	236	0	2	2	0.0500	0.4295	0	1	0.585	8	82	82
98	1	237	1	2	2	0.0500	0.4295	1	1	0.675	67	82	0
98	1	238	0	1	1	0.0500	0.4295	0	1	0.754	6	82	82
98	1	239	0	1	1	0.0500	0.4295	1	0	0.647	0	82	0
98	1	240	0	1	3	0.0500	0.4295	1	1	0.681	7	82	0
98	1	241	0	1	3	0.0500	0.4295	0	1	0.964	5	82	82
98	1	242	0	1	3	0.0500	0.4295	1	1	0.586	8	82	0
98	1	243	0	2	3	0.0500	0.4295	0	1	0.638	7	82	82
98	1	244	0	2	2	0.0500	0.4295	1	1	0.620	7	0	82
98	1	245	0	2	3	0.0500	0.4295	0	1	0.555	8	82	82
98	1	246	0	1	2	0.0500	0.4295	1	1	0.914	5	82	0
98	1	247	1	2	3	0.0500	0.4295	0	1	0.570	78	0	0
98	1	248	1	1	1	0.0500	0.4295	0	1	0.732	62	0	0
98	1	249	1	2	3	0.0500	0.4295	1	1	1.651	50	82	0
98	1	250	1	1	3	0.0500	0.4295	1	1	0.607	74	0	82
98	1	251	1	1	1	0.0500	0.4295	0	0	0.831	0	0	0
98	1	252	0	2	3	0.0500	0.4295	0	1	0.508	8	82	82
98	1	253	9	1	1	0.0500	0.4295	1	1	0.905	0	82	0
98	1	254	9	1	1	0.0500	0.4295	0	1	0.887	0	82	82
98	1	255	1	1	3	0.0500	0.4295	1	1	0.900	50	0	82
98	1	256	1	2	3	0.0500	0.4295	1	0	0.859	0	82	0
98	1	257	9	1	3	0.0500	0.4295	1	1	0.750	0	82	0
98	1	258	9	1	3	0.0500	0.4295	1	1	0.542	0	82	0
98	1	259	1	1	2	0.0500	0.4295	0	0	0.961	0	0	0
98	1	260	1	2	1	0.0500	0.4295	0	0	1.074	0	0	0
98	1	261	1	1	3	0.0500	0.4295	1	1	1.476	50	0	82
98	1	262	1	1	1	0.0500	0.4295	1	1	0.798	55	0	82
98	1	263	9	2	3	0.0500	0.4295	0	1	0.710	0	0	0
98	1	264	0	2	2	0.0500	0.4295	1	1	1.515	5	0	82
98	1	265	9	2	1	0.0500	0.4295	1	1	1.342	0	0	82
98	1	266	1	1	3	0.0500	0.4295	0	0	0.798	0	0	0
98	1	267	9	1	1	0.0500	0.4295	0	1	0.643	0	82	82
98	1	268	9	2	3	0.0500	0.4295	0	1	0.729	0	82	82
98	1	269	1	2	2	0.0500	0.4295	1	1	0.663	69	82	0
98	1	270	1	2	2	0.0500	0.4295	1	1	0.928	50	82	0
98	1	271	0	2	3	0.0500	0.4295	0	1	0.514	8	82	82
98	1	272	0	2	3	0.0500	0.4295	1	1	0.843	5	0	82
98	1	273	1	1	1	0.0500	0.4295	1	1	1.108	50	0	82
98	1	274	1	2	2	0.0500	0.4295	1	1	0.686	66	82	0
98	1	275	1	2	2	0.0500	0.4295	0	1	0.637	71	0	0
98	1	276	1	2	3	0.0500	0.4295	0	1	0.677	67	0	0
98	1	277	0	1	1	0.0500	0.4295	1	1	0.621	7	82	0
98	1	278	0	2	3	0.0500	0.4295	0	1	0.441	9	82	82
98	1	279	1	2	2	0.0500	0.4295	0	1	0.551	80	0	0
98	1	280	1	1	2	0.0500	0.4295	0	0	0.490	0	0	0
98	1	281	1	2	3	0.0500	0.4295	0	1	0.460	89	0	0
98	1	282	1	2	3	0.0500	0.4295	1	1	0.671	68	82	0
98	1	283	1	2	1	0.0500	0.4295	0	0	0.487	0	0	0
98	1	284	0	2	2	0.0500	0.4295	0	1	0.435	9	82	82
98	1	285	9	2	3	0.0500	0.4295	0	0	0.793	0	0	0
98	1	286	0	1	3	0.0500	0.4295	0	0	1.348	0	82	82
98	1	287	1	1	1	0.0500	0.4295	0	1	0.651	70	0	0
98	1	288	1	2	1	0.0500	0.4295	0	1	0.872	50	0	0
98	1	289	0	1	1	0.0500	0.4295	0	1	0.970	5	82	82
98	1	290	0	1	3	0.0500	0.4295	1	1	0.609	7	82	0
98	1	291	1	1	1	0.0500	0.4295	0	0	0.863	0	0	0
98	1	292	9	2	2	0.0500	0.4295	1	1	0.726	0	0	82
98	1	293	9	1	3	0.0500	0.4295	0	1	2.529	0	0	0
98	1	294	0	1	1	0.0500	0.4295	0	0	0.984	0	82	82
98	1	295	1	2	2	0.0500	0.4295	0	1	0.747	60	0	0
98	1	296	9	2	3	0.0500	0.4295	0	1	1.503	0	0	0
98	1	297	0	1	1	0.0500	0.4295	0	1	0.696	7	82	82
98	1	298	1	1	3	0.0500	0.4295	0	1	0.553	80	0	0
98	1	299	0	1	3	0.0500	0.4295	1	0	0.763	0	82	0
98	1	300	1	1	3	0.0500	0.4295	1	1	0.779	57	0	82
98	1	301	0	2	1	0.0500	0.4295	1	1	0.757	6	0	82
98	1	302	0	2	3	0.0500	0.4295	1	1	0.609	7	0	82
98	1	303	9	2	1	0.0500	0.4295	0	1	0.503	0	82	82
98	1	304	1	2	2	0.0500	0.4295	1	1	0.537	81	82	0
98	1	305	1	1	3	0.0500	0.4295	1	1	0.691	66	0	82
98	1	306	0	2	1	0.0500	0.4295	0	1	0.631	7	82	82
98	1	307	0	1	1	0.0500	0.4295	0	1	0.644	7	82	82
98	1	308	0	2	2	0.0500	0.4295	1	1	0.618	7	0	82
98	1	309	9	1	2	0.0500	0.4295	0	1	0.550	0	82	82
98	1	310	9	2	1	0.0500	0.4295	0	1	0.820	0	0	0
98	1	311	9	2	3	0.0500	0.4295	1	1	0.675	0	0	82
98	1	312	1	1	1	0.0500	0.4295	0	0	0.661	0	0	0
98	1	313	1	1	3	0.0500	0.4295	1	1	0.672	68	0	82
98	1	314	1	1	3	0.0500	0.4295	1	1	0.560	79	0	82
98	1	315	0	1	1	0.0500	0.4295	0	1	0.592	8	82	82
98	1	316	1	2	3	0.0500	0.4295	0	1	0.760	59	0	0
98	1	317	1	2	3	0.0500	0.4295	0	1	0.613	74	0	0
98	1	318	1	2	3	0.0500	0.4295	0	1	0.536	81	0	0
98	1	319	0	1	3	0.0500	0.4295	0	0	0.592	0	82	82
98	1	320	1	2	3	0.0500	0.4295	0	1	0.471	88	0	0
98	1	321	1	2	1	0.0500	0.4295	1	1	0.622	73	82	0
98	1	322	9	1	2	0.0500	0.4295	1	1	0.754	0	0	82
98	1	323	9	1	3	0.0500	0.4295	0	0	0.996	0	82	82
98	1	324	0	2	2	0.0500	0.4295	1	1	0.653	7	0	82
98	1	325	1	2	3	0.0500	0.4295	0	1	0.517	83	0	0
98	1	326	0	2	1	0.0500	0.4295	1	1	0.592	8	0	82
98	1	327	1	1	2	0.0500	0.4295	0	0	0.653	0	0	0
98	1	328	0	2	2	0.0500	0.4295	1	1	0.757	6	0	82
98	1	329	9	2	2	0.0500	0.4295	1	1	0.662	0	0	82
98	1	330	1	1	1	0.0500	0.4295	0	1	0.814	54	0	0
98	1	331	0	1	3	0.0500	0.4295	0	1	2.093	5	82	82
98	1	332	1	1	1	0.0500	0.4295	1	0	1.087	0	0	82
98	1	333	1	1	2	0.0500	0.4295	1	1	0.666	68	0	82
98	1	334	0	2	2	0.0500	0.4295	0	1	1.284	5	82	82
98	1	335	0	1	1	0.0500	0.4295	1	1	0.916	5	82	0
98	1	336	9	2	3	0.0500	0.4295	1	1	0.755	0	82	0
98	1	337	1	1	1	0.0500	0.4295	1	1	0.701	65	0	82
98	1	338	0	2	2	0.0500	0.4295	1	1	0.743	6	0	82
98	1	339	1	2	3	0.0500	0.4295	0	1	0.558	79	0	0
98	1	340	0	1	3	0.0500	0.4295	0	1	1.054	5	82	82
98	1	341	0	2	3	0.0500	0.4295	0	1	0.560	8	82	82
98	1	342	0	2	3	0.0500	0.4295	1	1	0.546	8	0	82
98	1	343	0	1	3	0.0500	0.4295	0	0	0.630	0	82	82
98	1	344	9	1	1	0.0500	0.4295	0	0	0.603	0	0	0
98	1	345	9	1	1	0.0500	0.4295	1	1	0.729	0	0	82
98	1	346	1	1	1	0.0500	0.4295	1	1	0.630	72	0	82
98	1	347	0	2	3	0.0500	0.4295	1	1	0.581	8	0	82
98	1	348	9	1	1	0.0500	0.4295	1	1	0.600	0	0	82
98	1	349	0	2	3	0.0500	0.4295	0	1	0.518	8	82	82
98	1	350	0	1	1	0.0500	0.4295	0	0	0.926	0	82	82
98	1	351	1	2	2	0.0500	0.4295	1	1	0.649	70	82	0
98	1	352	9	1	3	0.0500	0.4295	1	1	0.617	0	0	82
98	1	353	0	1	3	0.0500	0.4295	0	1	0.697	7	82	82
98	1	354	9	1	2	0.0500	0.4295	1	1	0.621	0	82	0
98	1	355	1	2	3	0.0500	0.4295	1	1	1.119	50	82	0
98	1	356	1	2	2	0.0500	0.4295	0	1	0.629	72	0	0
98	1	357	1	2	3	0.0500	0.4295	0	1	0.644	71	0	0
98	1	358	1	1	3	0.0500	0.4295	0	0	0.883	0	0	0
98	1	359	1	1	3	0.0500	0.4295	1	1	0.708	64	0	82
98	1	360	1	1	3	0.0500	0.4295	0	0	0.822	0	0	0
98	1	361	1	2	2	0.0500	0.4295	0	1	0.585	77	0	0
98	1	362	1	2	2	0.0500	0.4295	1	1	0.556	79	82	0
98	1	363	0	2	1	0.0500	0.4295	0	1	0.505	8	82	82
98	1	364	9	2	2	0.0500	0.4295	1	1	0.530	0	0	82
98	1	365	1	2	2	0.0500	0.4295	0	1	0.350	100	0	0
98	1	366	1	1	3	0.0500	0.4295	0	0	0.595	0	0	0
98	1	367	0	1	1	0.0500	0.4295	1	0	0.731	0	82	0
98	1	368	1	2	2	0.0500	0.4295	1	1	0.662	69	82	0
98	1	369	9	2	1	0.0500	0.4295	1	1	0.567	0	82	0
98	1	370	0	2	2	0.0500	0.4295	1	0	0.385	0	0	82
98	1	371	0	1	2	0.0500	0.4295	0	1	0.381	10	82	82
98	1	372	0	2	2	0.0500	0.4295	0	1	0.496	9	82	82
98	1	373	9	2	3	0.0500	0.4295	1	1	0.515	0	0	82
98	1	374	0	1	1	0.0500	0.4295	1	1	0.528	8	82	0
98	1	375	0	2	2	0.0500	0.4295	0	1	0.911	5	82	82
98	1	376	9	2	2	0.0500	0.4295	1	1	0.530	0	82	0
98	1	377	1	1	1	0.0500	0.4295	1	1	0.663	69	0	82
98	1	378	0	1	1	0.0500	0.4295	0	1	0.653	7	82	82
98	1	379	0	1	3	0.0500	0.4295	0	0	0.952	0	82	82
98	1	380	1	1	3	0.0500	0.4295	0	1	0.619	73	0	0
98	1	381	0	1	1	0.0500	0.4295	0	1	0.597	8	82	82
98	1	382	9	1	1	0.0500	0.4295	0	1	0.500	0	0	0
98	1	383	0	1	2	0.0500	0.4295	0	1	0.510	8	82	82
98	1	384	9	1	1	0.0500	0.4295	0	1	0.531	0	82	82
98	1	385	0	2	3	0.0500	0.4295	1	1	0.665	7	0	82
98	1	386	1	1	1	0.0500	0.4295	1	1	0.775	57	0	82
98	1	387	0	2	3	0.0500	0.4295	0	1	0.497	9	82	82
98	1	388	1	1	1	0.0500	0.4295	0	1	0.538	81	0	0
98	1	389	1	2	3	0.0500	0.4295	1	1	0.804	55	82	0
98	1	390	9	1	1	0.0500	0.4295	1	1	0.751	0	82	0
98	1	391	1	2	2	0.0500	0.4295	1	1	0.642	71	82	0
98	1	392	1	2	3	0.0500	0.4295	1	1	0.662	69	82	0
98	1	393	0	1	3	0.0500	0.4295	1	0	1.337	0	82	0
98	1	394	1	2	2	0.0500	0.4295	0	1	0.662	69	0	0
98	1	395	1	1	3	0.0500	0.4295	0	0	0.839	0	0	0
98	1	396	1	2	3	0.0500	0.4295	1	1	0.662	69	82	0
98	1	397	1	1	3	0.0500	0.4295	0	0	0.803	0	0	0
98	1	398	0	1	3	0.0500	0.4295	0	1	1.357	5	82	82
98	1	399	0	1	1	0.0500	0.4295	1	1	0.794	6	82	0
98	1	400	9	1	1	0.0500	0.4295	0	0	0.907	0	0	0
98	1	401	1	2	2	0.0500	0.4295	1	1	0.911	50	82	0
98	1	402	0	1	1	0.0500	0.4295	0	1	0.800	5	82	82
98	1	403	0	2	3	0.0500	0.4295	0	1	0.747	6	82	82
98	1	404	1	2	2	0.0500	0.4295	1	1	0.666	68	82	0
98	1	405	1	1	3	0.0500	0.4295	1	1	0.718	63	0	82
98	1	406	1	1	1	0.0500	0.4295	0	0	0.708	0	0	0
98	1	407	1	1	3	0.0500	0.4295	0	1	1.044	50	0	0
98	1	408	1	1	3	0.0500	0.4295	1	1	0.654	70	0	82
98	1	409	1	2	2	0.0500	0.4295	0	1	0.474	88	0	0
98	1	410	1	2	2	0.0500	0.4295	1	1	0.576	77	82	0
98	1	411	9	2	2	0.0500	0.4295	0	1	0.501	0	82	82
98	1	412	0	1	3	0.0500	0.4295	0	1	0.395	10	82	82
98	1	413	1	2	3	0.0500	0.4295	1	1	0.575	78	82	0
98	1	414	0	2	3	0.0500	0.4295	0	1	0.587	8	82	82
98	1	415	1	1	3	0.0500	0.4295	1	1	0.706	64	0	82
98	1	416	1	2	3	0.0500	0.4295	0	1	0.460	89	0	0
98	1	417	1	1	3	0.0500	0.4295	1	1	0.517	83	0	82
98	1	418	0	1	1	0.0500	0.4295	1	1	1.423	5	82	0
98	1	419	1	1	1	0.0500	0.4295	0	0	0.908	0	0	0
98	1	420	0	1	1	0.0500	0.4295	0	1	0.725	6	82	82
98	1	421	9	1	3	0.0500	0.4295	1	1	0.792	0	82	0
98	1	422	1	1	3	0.0500	0.4295	1	1	0.671	68	0	82
98	1	423	1	2	2	0.0500	0.4295	0	1	0.590	76	0	0
98	1	424	1	2	1	0.0500	0.4295	0	1	0.629	72	0	0
98	1	425	9	1	2	0.0500	0.4295	0	0	0.548	0	82	82
98	1	426	0	1	3	0.0500	0.4295	0	1	0.734	6	82	82
98	1	427	0	1	2	0.0500	0.4295	0	1	0.807	5	82	82
98	1	428	1	2	3	0.0500	0.4295	0	1	1.019	50	0	0
98	1	429	1	2	3	0.0500	0.4295	0	1	0.650	70	0	0
98	1	430	0	2	3	0.0500	0.4295	1	1	0.898	5	0	82
98	1	431	0	1	1	0.0500	0.4295	0	1	1.017	5	82	82
98	1	432	0	2	1	0.0500	0.4295	1	1	0.768	6	0	82
98	1	433	1	2	2	0.0500	0.4295	0	1	0.533	82	0	0
98	1	434	9	2	3	0.0500	0.4295	0	1	0.550	0	0	0
98	1	435	1	1	3	0.0500	0.4295	1	1	0.629	72	0	82
98	1	436	1	2	2	0.0500	0.4295	1	1	0.736	61	82	0
98	1	437	0	1	2	0.0500	0.4295	1	0	0.510	0	82	0
98	1	438	9	1	1	0.0500	0.4295	1	1	0.654	0	82	0
98	1	439	9	2	3	0.0500	0.4295	1	1	0.643	0	82	0
98	1	440	1	1	1	0.0500	0.4295	1	1	0.677	67	0	82
98	1	441	0	1	3	0.0500	0.4295	1	1	0.705	6	82	0
98	1	442	0	2	3	0.0500	0.4295	1	1	0.654	7	0	82
98	1	443	0	1	3	0.0500	0.4295	0	0	0.870	0	82	82
98	1	444	1	2	3	0.0500	0.4295	0	1	0.544	81	0	0
98	1	445	1	1	1	0.0500	0.4295	0	0	0.516	0	0	0
98	1	446	0	2	2	0.0500	0.4295	1	1	0.624	7	0	82
98	1	447	1	2	3	0.0500	0.4295	1	1	0.652	70	82	0
98	1	448	9	2	3	0.0500	0.4295	0	1	0.553	0	82	82
98	1	449	1	1	1	0.0500	0.4295	1	1	0.650	70	0	82
98	1	450	9	2	2	0.0500	0.4295	0	1	0.424	0	82	82
98	1	451	1	1	3	0.0500	0.4295	1	1	0.722	63	0	82
98	1	452	1	1	3	0.0500	0.4295	1	1	0.617	73	0	82
98	1	453	0	2	3	0.0500	0.4295	1	1	0.901	5	0	82
98	1	454	0	2	3	0.0500	0.4295	1	1	0.487	9	0	82
98	1	455	9	1	3	0.0500	0.4295	1	1	0.927	0	0	82
98	1	456	0	1	3	0.0500	0.4295	1	1	0.510	8	82	0
98	1	457	9	1	3	0.0500	0.4295	1	1	1.916	0	82	0
98	1	458	9	1	1	0.0500	0.4295	1	1	0.638	0	0	82
98	1	459	0	1	1	0.0500	0.4295	0	1	0.589	8	82	82
98	1	460	1	1	1	0.0500	0.4295	0	0	0.702	0	0	0
98	1	461	0	1	1	0.0500	0.4295	0	0	0.650	0	82	82
98	1	462	0	1	2	0.0500	0.4295	1	0	0.398	0	82	0
98	1	463	1	1	1	0.0500	0.4295	0	1	0.772	58	0	0
98	1	464	0	2	3	0.0500	0.4295	1	1	0.558	8	0	82
98	1	465	0	2	3	0.0500	0.4295	0	1	0.492	9	82	82
98	1	466	0	2	3	0.0500	0.4295	1	0	0.479	0	0	82
98	1	467	1	2	3	0.0500	0.4295	1	0	0.560	0	82	0
98	1	468	1	2	2	0.0500	0.4295	1	1	0.700	65	82	0
98	1	469	0	1	1	0.0500	0.4295	1	1	0.847	5	82	0
98	1	470	1	2	3	0.0500	0.4295	1	1	0.735	62	82	0
98	1	471	9	2	2	0.0500	0.4295	1	1	0.559	0	0	82
98	1	472	9	1	3	0.0500	0.4295	0	1	0.684	0	82	82
98	1	473	0	1	1	0.0500	0.4295	1	1	0.872	5	82	0
98	1	474	0	2	3	0.0500	0.4295	1	1	1.291	5	0	82
98	1	475	1	2	1	0.0500	0.4295	1	0	0.462	0	82	0
98	1	476	1	2	3	0.0500	0.4295	1	0	0.743	0	82	0
98	1	477	1	2	3	0.0500	0.4295	0	1	0.586	76	0	0
98	1	478	0	1	1	0.0500	0.4295	1	1	0.521	8	82	0
98	1	479	0	1	3	0.0500	0.4295	1	0	0.843	0	82	0
98	1	480	1	2	1	0.0500	0.4295	0	1	0.788	56	0	0
98	1	481	1	1	3	0.0500	0.4295	0	1	0.520	83	0	0
98	1	482	0	2	3	0.0500	0.4295	0	1	0.484	9	82	82
98	1	483	1	1	2	0.0500	0.4295	1	1	0.808	54	0	82
98	1	484	1	1	3	0.0500	0.4295	0	1	0.427	92	0	0
98	1	485	0	1	1	0.0500	0.4295	0	0	0.434	0	82	82
98	1	486	1	1	3	0.0500	0.4295	0	1	0.554	80	0	0
98	1	487	1	2	3	0.0500	0.4295	0	1	1.658	50	0	0
98	1	488	1	2	3	0.0500	0.4295	0	0	0.913	0	0	0
98	1	489	1	1	3	0.0500	0.4295	0	1	0.326	100	0	0
98	1	490	1	1	1	0.0500	0.4295	1	1	0.439	91	0	82
98	1	491	0	1	1	0.0500	0.4295	0	1	0.775	6	82	82
98	1	492	9	1	3	0.0500	0.4295	0	1	0.498	0	0	0
98	1	493	9	2	3	0.0500	0.4295	0	1	0.657	0	0	0
98	1	494	1	2	3	0.0500	0.4295	0	1	0.669	68	0	0
98	1	495	0	2	3	0.0500	0.4295	0	1	0.759	6	82	82
98	1	496	0	2	3	0.0500	0.4295	0	1	0.363	10	82	82
98	1	497	1	1	1	0.0500	0.4295	0	0	0.545	0	0	0
98	1	498	1	2	2	0.0500	0.4295	0	1	0.400	95	0	0
98	1	499	0	1	3	0.0500	0.4295	1	1	0.599	8	82	0
98	1	500	0	2	2	0.0500	0.4295	1	0	0.326	0	0	82
98	1	501	0	1	1	0.0500	0.4295	1	1	0.570	8	82	0
98	1	502	0	2	2	0.0500	0.4295	1	0	0.378	0	0	82
98	1	503	0	2	3	0.0500	0.4295	0	1	0.565	8	82	82
98	1	504	9	1	1	0.0500	0.4295	0	0	0.689	0	82	82
98	1	505	0	1	3	0.0500	0.4295	1	1	0.783	6	82	0
98	1	506	0	1	3	0.0500	0.4295	1	1	0.633	7	82	0
98	1	507	1	1	3	0.0500	0.4295	1	1	0.638	71	0	82
98	1	508	9	1	3	0.0500	0.4295	0	1	0.620	0	0	0
98	1	509	0	2	2	0.0500	0.4295	0	1	0.503	8	82	82
98	1	510	0	2	3	0.0500	0.4295	0	1	0.563	8	82	82
98	1	511	9	1	3	0.0500	0.4295	0	0	0.627	0	0	0
98	1	512	0	1	1	0.0500	0.4295	1	0	0.465	0	82	0
98	1	513	1	2	2	0.0500	0.4295	1	1	0.966	50	82	0
98	1	514	0	1	3	0.0500	0.4295	0	0	0.808	0	82	82
98	1	515	0	1	1	0.0500	0.4295	0	0	0.831	0	82	82
98	1	516	0	2	2	0.0500	0.4295	1	1	0.769	6	0	82
98	1	517	9	1	1	0.0500	0.4295	0	1	1.645	0	0	0
98	1	518	0	1	3	0.0500	0.4295	0	1	3.520	5	82	82
98	1	519	0	1	1	0.0500	0.4295	1	1	0.676	7	82	0
98	1	520	0	1	3	0.0500	0.4295	0	1	0.466	9	82	82
98	1	521	0	2	2	0.0500	0.4295	1	1	0.823	5	0	82
98	1	522	1	2	3	0.0500	0.4295	1	1	0.530	82	82	0
98	1	523	1	1	3	0.0500	0.4295	1	1	0.632	72	0	82
98	1	524	0	1	3	0.0500	0.4295	1	1	0.563	8	82	0
98	1	525	9	2	2	0.0500	0.4295	0	1	0.335	0	0	0
98	1	526	1	1	3	0.0500	0.4295	0	1	0.971	50	0	0
98	1	527	0	2	2	0.0500	0.4295	0	1	0.493	9	82	82
98	1	528	9	1	1	0.0500	0.4295	1	1	0.613	0	82	0
98	1	529	1	2	2	0.0500	0.4295	0	1	0.458	89	0	0
98	1	530	9	2	3	0.0500	0.4295	1	0	0.452	0	0	82
98	1	531	9	2	2	0.0500	0.4295	1	1	0.601	0	0	82
98	1	532	9	1	1	0.0500	0.4295	1	1	1.011	0	0	82
98	1	533	0	1	3	0.0500	0.4295	0	1	0.660	7	82	82
98	1	534	1	1	2	0.0500	0.4295	1	0	0.870	0	0	82
98	1	535	1	1	2	0.0500	0.4295	0	1	0.636	71	0	0
98	1	536	9	1	3	0.0500	0.4295	0	1	0.831	0	82	82
98	1	537	1	1	1	0.0500	0.4295	0	0	0.820	0	0	0
98	1	538	1	1	1	0.0500	0.4295	0	1	0.409	94	0	0
98	1	539	9	2	1	0.0500	0.4295	0	1	0.545	0	82	82
98	1	540	0	2	3	0.0500	0.4295	1	1	0.762	6	0	82
98	1	541	0	1	3	0.0500	0.4295	0	1	0.524	8	82	82
98	1	542	1	1	1	0.0500	0.4295	0	1	0.535	82	0	0
98	1	543	0	2	2	0.0500	0.4295	1	1	0.584	8	0	82
98	1	544	9	1	3	0.0500	0.4295	1	1	0.679	0	0	82
98	1	545	0	2	1	0.0500	0.4295	1	0	0.628	0	0	82
98	1	546	0	2	2	0.0500	0.4295	0	1	0.487	9	82	82
98	1	547	9	2	3	0.0500	0.4295	0	1	0.555	0	0	0
98	1	548	0	2	2	0.0500	0.4295	0	1	0.550	8	82	82
98	1	549	0	1	3	0.0500	0.4295	0	1	0.854	5	82	82
98	1	550	1	1	1	0.0500	0.4295	1	1	0.366	98	0	82
98	1	551	0	2	2	0.0500	0.4295	1	0	0.702	0	0	82
98	1	552	1	2	3	0.0500	0.4295	1	1	0.715	64	82	0
98	1	553	1	2	2	0.0500	0.4295	1	1	0.559	79	82	0
98	1	554	0	2	2	0.0500	0.4295	1	1	0.523	8	0	82
98	1	555	1	2	3	0.0500	0.4295	0	1	0.505	84	0	0
98	1	556	9	1	3	0.0500	0.4295	0	0	0.714	0	82	82
98	1	557	0	2	3	0.0500	0.4295	0	1	0.554	8	82	82
98	1	558	1	2	1	0.0500	0.4295	0	1	0.425	93	0	0
98	1	559	1	1	1	0.0500	0.4295	1	1	0.584	77	0	82
98	1	560	1	2	2	0.0500	0.4295	1	0	0.293	0	82	0
98	1	561	0	2	2	0.0500	0.4295	0	1	0.438	9	82	82
98	1	562	9	1	3	0.0500	0.4295	1	1	0.382	0	0	82
98	1	563	1	1	3	0.0500	0.4295	1	0	0.505	0	0	82
98	1	564	0	2	3	0.0500	0.4295	0	0	0.682	0	82	82
98	1	565	0	1	2	0.0500	0.4295	1	0	0.425	0	82	0
98	1	566	1	2	2	0.0500	0.4295	0	1	0.625	73	0	0
98	1	567	1	2	3	0.0500	0.4295	0	1	0.714	64	0	0
98	1	568	9	1	3	0.0500	0.4295	0	1	0.436	0	0	0
98	1	569	9	2	2	0.0500	0.4295	0	1	1.046	0	82	82
98	1	570	0	2	2	0.0500	0.4295	0	1	0.483	9	82	82
98	1	571	1	1	3	0.0500	0.4295	0	0	0.571	0	0	0
98	1	572	9	1	3	0.0500	0.4295	1	1	0.980	0	0	82
98	1	573	0	2	3	0.0500	0.4295	0	1	0.615	7	82	82
98	1	574	1	1	1	0.0500	0.4295	1	1	0.730	62	0	82
98	1	575	0	1	3	0.0500	0.4295	1	1	0.729	6	82	0
98	1	576	1	2	2	0.0500	0.4295	0	1	0.712	64	0	0
98	1	577	0	2	1	0.0500	0.4295	0	0	0.735	0	82	82
98	1	578	0	2	2	0.0500	0.4295	1	1	0.662	7	0	82
98	1	579	9	2	3	0.0500	0.4295	1	1	0.658	0	82	0
98	1	580	1	1	1	0.0500	0.4295	1	1	0.673	68	0	82
98	1	581	0	1	3	0.0500	0.4295	1	0	0.903	0	82	0
98	1	582	0	2	3	0.0500	0.4295	1	1	0.711	6	0	82
98	1	583	0	2	1	0.0500	0.4295	0	1	0.513	8	82	82
98	1	584	0	1	1	0.0500	0.4295	1	1	0.569	8	82	0
98	1	585	1	1	3	0.0500	0.4295	0	0	0.809	0	0	0
98	1	586	0	1	1	0.0500	0.4295	1	1	0.686	7	82	0
98	1	587	9	2	2	0.0500	0.4295	0	1	0.495	0	0	0
98	1	588	0	1	2	0.0500	0.4295	0	1	1.149	5	82	82
98	1	589	9	2	3	0.0500	0.4295	0	1	0.628	0	82	82
98	1	590	1	1	2	0.0500	0.4295	1	1	0.605	74	0	82
98	1	591	1	1	2	0.0500	0.4295	1	1	0.602	75	0	82
98	1	592	0	2	3	0.0500	0.4295	1	1	0.641	7	0	82
98	1	593	1	1	2	0.0500	0.4295	0	1	0.321	100	0	0
98	1	594	0	1	1	0.0500	0.4295	0	0	0.288	0	82	82
98	1	595	0	1	1	0.0500	0.4295	0	0	0.432	0	82	82
98	1	596	0	2	2	0.0500	0.4295	1	1	0.747	6	0	82
98	1	597	9	2	2	0.0500	0.4295	0	1	0.447	0	82	82
98	1	598	1	2	3	0.0500	0.4295	0	1	0.422	93	0	0
98	1	599	1	2	2	0.0500	0.4295	0	1	0.365	98	0	0
98	1	600	9	1	2	0.0500	0.4295	1	1	0.683	0	82	0
98	1	601	1	1	3	0.0500	0.4295	1	1	0.567	78	0	82
98	1	602	1	2	3	0.0500	0.4295	1	0	0.375	0	82	0
98	1	603	1	2	2	0.0500	0.4295	0	1	0.351	100	0	0
98	1	604	1	2	3	0.0500	0.4295	0	1	0.374	98	0	0
98	1	605	0	2	2	0.0500	0.4295	0	1	0.508	8	82	82
98	1	606	1	1	1	0.0500	0.4295	1	1	0.287	100	0	82
98	1	607	1	1	3	0.0500	0.4295	0	0	0.549	0	0	0
98	1	608	9	1	1	0.0500	0.4295	0	0	0.400	0	82	82
98	1	609	1	1	1	0.0500	0.4295	1	1	0.540	81	0	82
98	1	610	1	2	3	0.0500	0.4295	0	1	0.574	78	0	0
98	1	611	9	1	3	0.0500	0.4295	0	1	0.812	0	82	82
98	1	612	1	1	1	0.0500	0.4295	1	0	0.728	0	0	82
98	1	613	0	2	2	0.0500	0.4295	0	1	0.316	10	82	82
98	1	614	0	1	3	0.0500	0.4295	0	1	0.679	7	82	82
98	1	615	9	2	3	0.0500	0.4295	1	1	0.528	0	82	0
98	1	616	0	2	2	0.0500	0.4295	1	0	0.407	0	0	82
98	1	617	1	1	3	0.0500	0.4295	0	1	0.477	87	0	0
98	1	618	0	1	3	0.0500	0.4295	1	1	0.713	6	82	0
98	1	619	9	2	1	0.0500	0.4295	0	1	0.507	0	0	0
98	1	620	1	2	2	0.0500	0.4295	1	1	0.348	100	82	0
98	1	621	1	1	1	0.0500	0.4295	1	1	1.658	50	0	82
98	1	622	9	1	1	0.0500	0.4295	1	0	0.867	0	82	0
98	1	623	9	1	2	0.0500	0.4295	0	1	0.539	0	0	0
98	1	624	9	2	3	0.0500	0.4295	0	0	1.090	0	0	0
98	1	625	0	2	1	0.0500	0.4295	1	1	0.534	8	0	82
98	1	626	1	1	3	0.0500	0.4295	1	1	0.863	50	0	82
98	1	627	1	2	2	0.0500	0.4295	1	0	0.369	0	82	0
98	1	628	0	2	1	0.0500	0.4295	0	1	0.466	9	82	82
98	1	629	9	2	2	0.0500	0.4295	1	1	0.553	0	82	0
98	1	630	1	1	2	0.0500	0.4295	0	1	0.318	100	0	0
98	1	631	1	2	2	0.0500	0.4295	0	1	0.502	85	0	0
98	1	632	0	2	2	0.0500	0.4295	1	1	0.545	8	0	82
98	1	633	0	2	3	0.0500	0.4295	1	1	0.526	8	0	82
98	1	634	0	2	1	0.0500	0.4295	1	1	0.423	9	0	82
98	1	635	1	1	1	0.0500	0.4295	0	0	0.826	0	0	0
98	1	636	1	2	3	0.0500	0.4295	1	1	0.503	85	82	0
98	1	637	9	1	1	0.0500	0.4295	0	0	0.678	0	82	82
98	1	638	0	2	3	0.0500	0.4295	0	1	0.600	8	82	82
98	1	639	9	1	1	0.0500	0.4295	1	1	0.634	0	0	82
98	1	640	0	1	3	0.0500	0.4295	1	0	0.355	0	82	0
98	1	641	9	1	1	0.0500	0.4295	1	0	0.657	0	0	82
98	1	642	1	1	3	0.0500	0.4295	1	1	0.581	77	0	82
98	1	643	0	2	3	0.0500	0.4295	1	1	0.591	8	0	82
98	1	644	0	1	1	0.0500	0.4295	0	1	1.031	5	82	82
98	1	645	0	2	2	0.0500	0.4295	1	1	0.610	7	0	82
98	1	646	0	2	2	0.0500	0.4295	0	1	0.421	9	82	82
98	1	647	0	2	3	0.0500	0.4295	0	1	0.431	9	82	82
98	1	648	1	2	1	0.0500	0.4295	1	1	0.389	96	82	0
98	1	649	9	2	3	0.0500	0.4295	0	1	0.279	0	82	82
98	1	650	0	2	3	0.0500	0.4295	1	0	0.318	0	0	82
98	1	651	0	2	2	0.0500	0.4295	0	1	0.440	9	82	82
98	1	652	1	2	1	0.0500	0.4295	1	1	0.646	70	82	0
98	1	653	0	2	3	0.0500	0.4295	0	1	0.320	10	82	82
98	1	654	1	1	3	0.0500	0.4295	0	0	1.010	0	0	0
98	1	655	0	1	1	0.0500	0.4295	0	0	0.546	0	82	82
98	1	656	1	1	3	0.0500	0.4295	1	0	0.375	0	0	82
98	1	657	1	2	3	0.0500	0.4295	1	1	0.418	93	82	0
98	1	658	1	2	2	0.0500	0.4295	0	1	0.517	83	0	0
98	1	659	1	2	2	0.0500	0.4295	1	1	0.649	70	82	0
98	1	660	0	2	2	0.0500	0.4295	0	1	0.456	9	82	82
98	1	661	1	2	1	0.0500	0.4295	1	1	0.659	69	82	0
98	1	662	0	1	1	0.0500	0.4295	1	1	0.744	6	82	0
98	1	663	9	2	2	0.0500	0.4295	1	0	0.345	0	82	0
98	1	664	0	1	1	0.0500	0.4295	1	1	0.633	7	82	0
98	1	665	1	2	3	0.0500	0.4295	1	1	0.560	79	82	0
98	1	666	1	1	1	0.0500	0.4295	0	1	0.657	69	0	0
98	1	667	0	2	3	0.0500	0.4295	1	1	1.136	5	0	82
98	1	668	9	1	2	0.0500	0.4295	1	0	0.369	0	0	82
98	1	669	1	1	1	0.0500	0.4295	0	0	0.603	0	0	0
98	1	670	0	2	3	0.0500	0.4295	0	1	0.464	9	82	82
98	1	671	9	1	1	0.0500	0.4295	0	1	0.706	0	0	0
98	1	672	1	1	2	0.0500	0.4295	0	1	0.475	88	0	0
98	1	673	1	2	3	0.0500	0.4295	1	1	0.488	86	82	0
98	1	674	1	1	3	0.0500	0.4295	1	1	0.861	50	0	82
98	1	675	1	2	2	0.0500	0.4295	1	1	0.535	82	82	0
98	1	676	9	2	3	0.0500	0.4295	0	1	0.432	0	82	82
98	1	677	1	1	1	0.0500	0.4295	1	1	0.681	67	0	82
98	1	678	9	2	2	0.0500	0.4295	0	1	0.381	0	0	0
98	1	679	0	2	3	0.0500	0.4295	1	1	0.479	9	0	82
98	1	680	0	1	3	0.0500	0.4295	0	0	0.652	0	82	82
98	1	681	9	1	3	0.0500	0.4295	1	1	0.686	0	82	0
98	1	682	0	2	2	0.0500	0.4295	0	1	0.457	9	82	82
98	1	683	0	1	3	0.0500	0.4295	1	1	0.663	7	82	0
98	1	684	1	2	2	0.0500	0.4295	0	1	0.411	94	0	0
98	1	685	0	1	3	0.0500	0.4295	0	0	0.769	0	82	82
98	1	686	1	1	1	0.0500	0.4295	1	1	0.526	82	0	82
98	1	687	9	2	3	0.0500	0.4295	1	1	0.512	0	0	82
98	1	688	9	2	2	0.0500	0.4295	1	1	0.702	0	82	0
98	1	689	0	1	2	0.0500	0.4295	1	1	0.719	6	82	0
98	1	690	1	2	1	0.0500	0.4295	0	1	0.585	77	0	0
98	1	691	1	2	3	0.0500	0.4295	0	1	0.610	74	0	0
98	1	692	1	1	3	0.0500	0.4295	0	0	0.614	0	0	0
98	1	693	9	2	3	0.0500	0.4295	1	1	0.651	0	0	82
98	1	694	0	2	2	0.0500	0.4295	1	0	0.341	0	0	82
98	1	695	0	1	3	0.0500	0.4295	0	0	0.646	0	82	82
98	1	696	0	1	3	0.0500	0.4295	1	0	1.463	0	82	0
98	1	697	9	2	1	0.0500	0.4295	1	1	0.829	0	0	82
98	1	698	9	1	3	0.0500	0.4295	1	0	0.841	0	82	0
98	1	699	1	2	3	0.0500	0.4295	1	1	0.614	74	82	0
98	1	700	1	2	2	0.0500	0.4295	1	1	0.565	78	82	0
98	1	701	0	2	2	0.0500	0.4295	1	1	0.589	8	0	82
98	1	702	1	2	3	0.0500	0.4295	0	1	0.688	66	0	0
98	1	703	0	1	1	0.0500	0.4295	1	1	0.699	7	82	0
98	1	704	0	2	2	0.0500	0.4295	0	1	0.561	8	82	82
98	1	705	0	1	1	0.0500	0.4295	0	0	0.843	0	82	82
98	1	706	0	1	1	0.0500	0.4295	0	1	0.739	6	82	82
98	1	707	1	1	1	0.0500	0.4295	0	0	0.691	0	0	0
98	1	708	9	2	3	0.0500	0.4295	1	0	0.678	0	82	0
98	1	709	1	1	1	0.0500	0.4295	1	1	0.901	50	0	82
98	1	710	1	1	1	0.0500	0.4295	0	1	0.624	73	0	0
98	1	711	0	1	3	0.0500	0.4295	1	1	0.676	7	82	0
98	1	712	9	2	2	0.0500	0.4295	1	0	0.651	0	0	82
98	1	713	1	2	3	0.0500	0.4295	0	1	0.669	68	0	0
98	1	714	0	1	3	0.0500	0.4295	1	1	0.863	5	82	0
98	1	715	0	1	1	0.0500	0.4295	1	0	1.164	0	82	0
98	1	716	9	2	2	0.0500	0.4295	0	1	0.583	0	0	0
98	1	717	0	1	3	0.0500	0.4295	0	1	0.770	6	82	82
98	1	718	1	2	2	0.0500	0.4295	0	1	0.535	81	0	0
98	1	719	1	1	1	0.0500	0.4295	0	1	0.804	55	0	0
98	1	720	0	2	2	0.0500	0.4295	0	1	0.634	7	82	82
