sub	sess	t	loc	cue	co1	co2	or	resp	rt
67	1	1	1	3	0.0540	0.0500	0	1	2.797
67	1	2	2	2	0.0540	0.0500	1	1	1.145
67	1	3	1	1	0.0540	0.0500	1	0	1.167
67	1	4	1	1	0.0540	0.0500	0	1	1.069
67	1	5	1	1	0.0540	0.0500	0	1	0.934
67	1	6	1	1	0.0540	0.0500	1	0	0.946
67	1	7	2	3	0.0540	0.0500	0	1	1.124
67	1	8	2	2	0.0540	0.0500	1	1	1.407
67	1	9	2	2	0.0540	0.0500	0	0	0.915
67	1	10	2	3	0.0540	0.0500	0	0	1.251
67	1	11	1	3	0.0540	0.0500	1	1	1.599
67	1	12	2	1	0.0540	0.0500	1	0	6.496
67	1	13	1	2	0.0540	0.0500	0	1	2.535
67	1	14	2	1	0.0540	0.0500	0	0	2.563
67	1	15	1	1	0.0540	0.0500	1	0	5.531
67	1	16	2	3	0.0540	0.0500	1	1	4.138
67	1	17	1	1	0.0540	0.0500	0	1	1.220
67	1	18	1	1	0.0540	0.0500	1	1	1.405
67	1	19	2	2	0.0540	0.0500	0	1	1.028
67	1	20	2	2	0.0540	0.0500	1	1	1.651
67	1	21	1	1	0.0540	0.0500	0	1	0.972
67	1	22	2	2	0.0540	0.0500	1	1	0.972
67	1	23	1	2	0.0540	0.0500	0	1	0.920
67	1	24	1	3	0.0540	0.0500	0	1	1.189
67	1	25	1	1	0.0540	0.0500	1	0	0.801
67	1	26	2	2	0.0540	0.0500	1	0	0.968
67	1	27	2	1	0.0540	0.0500	1	1	0.793
67	1	28	1	2	0.0540	0.0500	1	0	0.879
67	1	29	2	3	0.0540	0.0500	0	1	1.016
67	1	30	1	3	0.0540	0.0500	0	0	1.101
67	1	31	2	3	0.0540	0.0500	1	1	0.984
67	1	32	2	2	0.0540	0.0500	0	1	0.798
67	1	33	2	2	0.0540	0.0500	1	1	0.930
67	1	34	2	2	0.0540	0.0500	1	1	0.751
67	1	35	1	2	0.0540	0.0500	1	0	0.797
67	1	36	2	2	0.0540	0.0500	0	1	1.044
67	1	37	2	3	0.0540	0.0500	1	1	1.033
67	1	38	1	1	0.0540	0.0500	1	0	0.806
67	1	39	1	1	0.0540	0.0500	0	0	0.801
67	1	40	1	3	0.0540	0.0500	1	1	0.887
67	1	41	2	3	0.0540	0.0500	1	1	0.769
67	1	42	2	2	0.0540	0.0500	1	1	0.639
67	1	43	2	2	0.0540	0.0500	0	1	0.711
67	1	44	2	2	0.0540	0.0500	0	1	0.591
67	1	45	1	1	0.0540	0.0500	0	1	0.641
67	1	46	1	3	0.0540	0.0500	0	0	0.668
67	1	47	1	3	0.0540	0.0500	1	0	0.625
67	1	48	1	1	0.0540	0.0500	1	0	1.031
67	1	49	1	3	0.0540	0.0500	1	1	0.761
67	1	50	1	1	0.0540	0.0500	0	1	1.037
67	1	51	2	3	0.0540	0.0500	0	1	1.794
67	1	52	2	1	0.0540	0.0500	0	1	0.745
67	1	53	2	2	0.0540	0.0500	0	1	1.174
67	1	54	1	1	0.0540	0.0500	1	0	1.390
67	1	55	2	2	0.0540	0.0500	0	1	0.708
67	1	56	1	1	0.0540	0.0500	0	0	0.902
67	1	57	1	2	0.0540	0.0500	0	0	1.461
67	1	58	1	1	0.0540	0.0500	1	0	0.734
67	1	59	1	3	0.0540	0.0500	1	0	0.660
67	1	60	1	3	0.0540	0.0500	1	0	0.903
67	1	61	1	1	0.0540	0.0500	0	1	0.798
67	1	62	1	1	0.0540	0.0500	0	1	0.592
67	1	63	1	1	0.0540	0.0500	1	0	0.683
67	1	64	2	2	0.0540	0.0500	1	1	3.394
67	1	65	2	2	0.0540	0.0500	1	1	1.169
67	1	66	2	2	0.0540	0.0500	1	1	0.702
67	1	67	1	3	0.0540	0.0500	1	0	1.042
67	1	68	2	2	0.0540	0.0500	0	1	1.008
67	1	69	1	1	0.0540	0.0500	1	1	0.979
67	1	70	2	2	0.0540	0.0500	1	0	0.849
67	1	71	2	2	0.0540	0.0500	0	0	0.744
67	1	72	2	2	0.0540	0.0500	1	1	0.705
67	1	73	2	2	0.0540	0.0500	1	1	1.157
67	1	74	2	3	0.0540	0.0500	1	1	1.114
67	1	75	2	2	0.0540	0.0500	0	0	0.724
67	1	76	2	3	0.0540	0.0500	1	0	1.000
67	1	77	2	3	0.0540	0.0500	1	1	0.825
67	1	78	1	1	0.0540	0.0500	0	1	0.915
67	1	79	1	1	0.0540	0.0500	1	0	0.949
67	1	80	2	2	0.0540	0.0500	0	0	0.731
67	1	81	1	3	0.0540	0.0500	0	1	0.684
67	1	82	2	3	0.0540	0.0500	0	1	0.639
67	1	83	1	3	0.0540	0.0500	1	0	0.782
67	1	84	2	1	0.0540	0.0500	0	1	0.866
67	1	85	2	3	0.0540	0.0500	1	1	0.986
67	1	86	1	1	0.0540	0.0500	1	1	0.862
67	1	87	1	1	0.0540	0.0500	1	0	1.570
67	1	88	1	1	0.0540	0.0500	1	1	0.487
67	1	89	1	1	0.0540	0.0500	0	1	1.183
67	1	90	2	2	0.0540	0.0500	0	1	0.782
67	1	91	2	1	0.0540	0.0500	1	1	0.885
67	1	92	2	2	0.0540	0.0500	0	1	0.953
67	1	93	2	3	0.0540	0.0500	0	1	0.639
67	1	94	2	2	0.0540	0.0500	1	1	0.651
67	1	95	1	1	0.0540	0.0500	0	1	0.798
67	1	96	2	2	0.0540	0.0500	0	0	0.695
67	1	97	2	3	0.0540	0.0500	0	0	0.717
67	1	98	2	1	0.0540	0.0500	0	1	0.792
67	1	99	1	2	0.0540	0.0500	0	1	0.736
67	1	100	1	1	0.0540	0.0500	1	0	0.710
67	1	101	1	1	0.0540	0.0500	0	1	0.674
67	1	102	2	2	0.0540	0.0500	0	1	0.537
67	1	103	2	3	0.0540	0.0500	0	1	0.519
67	1	104	1	1	0.0540	0.0500	0	1	0.658
67	1	105	1	1	0.0540	0.0500	0	1	0.682
67	1	106	1	2	0.0540	0.0500	1	0	0.606
67	1	107	1	2	0.0540	0.0500	1	0	0.737
67	1	108	1	3	0.0540	0.0500	0	0	0.967
67	1	109	1	3	0.0540	0.0500	0	1	0.570
67	1	110	2	1	0.0540	0.0500	1	1	0.681
67	1	111	2	2	0.0540	0.0500	1	0	0.682
67	1	112	1	3	0.0540	0.0500	0	1	1.018
