sub	sess	t	rew	loc	cue	co1	co2	or	resp	rt	rew_tot	left_col	right_col
31	1	1	0	1	3	0.1542	0.0500	0	1	0.974	5	0	0
31	1	2	0	1	3	0.1542	0.0500	1	1	0.551	8	0	82
31	1	3	9	2	2	0.1542	0.0500	1	1	0.505	0	0	82
31	1	4	1	2	3	0.1542	0.0500	0	1	0.841	51	82	82
31	1	5	0	1	3	0.1542	0.0500	0	1	0.535	8	0	0
31	1	6	9	1	1	0.1542	0.0500	1	1	0.805	0	82	0
31	1	7	0	1	3	0.1542	0.0500	0	1	0.586	8	0	0
31	1	8	1	1	1	0.1542	0.0500	0	1	0.530	82	82	82
31	1	9	0	1	1	0.1542	0.0500	0	1	0.455	9	0	0
31	1	10	0	1	3	0.1542	0.0500	1	1	0.647	7	0	82
31	1	11	9	1	1	0.1542	0.0500	0	1	0.434	0	0	0
31	1	12	0	1	3	0.1542	0.0500	0	1	0.473	9	0	0
31	1	13	1	2	2	0.1542	0.0500	0	1	0.655	69	82	82
31	1	14	9	2	2	0.1542	0.0500	0	1	0.596	0	0	0
31	1	15	1	1	2	0.1542	0.0500	0	1	0.520	83	82	82
31	1	16	9	2	1	0.1542	0.0500	1	0	0.585	0	82	0
31	1	17	9	2	3	0.1542	0.0500	0	1	0.566	0	82	82
31	1	18	9	2	2	0.1542	0.0500	1	1	0.673	0	82	0
31	1	19	1	1	1	0.1542	0.0500	1	1	0.583	77	82	0
31	1	20	9	2	2	0.1542	0.0500	1	1	0.652	0	0	82
31	1	21	0	1	2	0.1542	0.0500	1	1	0.611	7	0	82
31	1	22	0	2	2	0.1542	0.0500	0	1	0.788	6	0	0
31	1	23	1	1	1	0.1542	0.0500	0	1	0.478	87	82	82
31	1	24	9	2	3	0.1542	0.0500	0	1	0.663	0	0	0
31	1	25	1	1	1	0.1542	0.0500	0	1	0.491	86	82	82
31	1	26	0	2	3	0.1542	0.0500	1	1	0.637	7	82	0
31	1	27	1	2	2	0.1542	0.0500	1	1	0.718	63	0	82
31	1	28	9	2	2	0.1542	0.0500	1	1	0.598	0	82	0
31	1	29	9	2	2	0.1542	0.0500	0	1	0.684	0	82	82
31	1	30	0	2	3	0.1542	0.0500	1	1	0.629	7	82	0
31	1	31	1	2	2	0.1542	0.0500	0	0	0.908	0	82	82
31	1	32	0	1	2	0.1542	0.0500	0	1	0.489	9	0	0
31	1	33	0	1	3	0.1542	0.0500	0	1	0.506	8	0	0
31	1	34	0	2	2	0.1542	0.0500	0	1	0.556	8	0	0
31	1	35	0	2	2	0.1542	0.0500	1	1	0.712	6	82	0
31	1	36	9	1	3	0.1542	0.0500	1	1	0.940	0	82	0
31	1	37	1	2	3	0.1542	0.0500	0	1	0.662	69	82	82
31	1	38	0	2	3	0.1542	0.0500	1	1	0.753	6	82	0
31	1	39	1	2	2	0.1542	0.0500	0	1	0.921	50	82	82
31	1	40	0	1	2	0.1542	0.0500	0	1	0.674	7	0	0
31	1	41	1	1	1	0.1542	0.0500	0	1	0.455	90	82	82
31	1	42	0	2	2	0.1542	0.0500	0	1	0.536	8	0	0
31	1	43	1	1	3	0.1542	0.0500	0	1	0.435	91	82	82
31	1	44	0	1	1	0.1542	0.0500	0	1	0.390	10	0	0
31	1	45	1	1	1	0.1542	0.0500	0	1	0.423	93	82	82
31	1	46	1	2	3	0.1542	0.0500	1	1	0.780	57	0	82
31	1	47	0	2	3	0.1542	0.0500	1	0	0.705	0	82	0
31	1	48	1	1	3	0.1542	0.0500	1	1	0.606	74	82	0
31	1	49	0	1	1	0.1542	0.0500	1	1	0.706	6	0	82
31	1	50	0	1	3	0.1542	0.0500	0	1	0.600	7	0	0
31	1	51	1	2	3	0.1542	0.0500	0	1	1.008	50	82	82
31	1	52	0	1	2	0.1542	0.0500	1	1	0.533	8	0	82
31	1	53	9	2	2	0.1542	0.0500	1	1	1.545	0	0	82
31	1	54	1	2	2	0.1542	0.0500	1	0	0.751	0	0	82
31	1	55	9	1	1	0.1542	0.0500	0	1	0.605	0	0	0
31	1	56	1	1	1	0.1542	0.0500	1	1	0.620	73	82	0
31	1	57	0	1	1	0.1542	0.0500	0	1	0.515	8	0	0
31	1	58	1	2	3	0.1542	0.0500	0	1	0.715	63	82	82
31	1	59	0	2	3	0.1542	0.0500	0	1	0.587	8	0	0
31	1	60	1	2	1	0.1542	0.0500	1	1	0.963	50	0	82
31	1	61	1	1	2	0.1542	0.0500	1	1	0.916	50	82	0
31	1	62	0	2	2	0.1542	0.0500	0	1	0.679	7	0	0
31	1	63	1	2	3	0.1542	0.0500	1	1	0.845	50	0	82
31	1	64	1	1	1	0.1542	0.0500	0	1	0.504	85	82	82
31	1	65	1	1	3	0.1542	0.0500	1	1	0.652	70	82	0
31	1	66	1	1	1	0.1542	0.0500	1	1	0.571	78	82	0
31	1	67	9	1	1	0.1542	0.0500	1	1	0.544	0	82	0
31	1	68	0	2	2	0.1542	0.0500	1	1	0.780	6	82	0
31	1	69	9	2	3	0.1542	0.0500	0	1	0.697	0	82	82
31	1	70	0	1	3	0.1542	0.0500	1	1	0.589	8	0	82
31	1	71	1	2	2	0.1542	0.0500	0	1	0.573	78	82	82
31	1	72	0	2	2	0.1542	0.0500	1	1	0.543	8	82	0
31	1	73	1	1	3	0.1542	0.0500	1	1	0.657	69	82	0
31	1	74	9	2	3	0.1542	0.0500	1	1	0.932	0	0	82
31	1	75	0	2	3	0.1542	0.0500	1	1	0.677	7	82	0
31	1	76	0	2	3	0.1542	0.0500	0	1	0.563	8	0	0
31	1	77	9	2	3	0.1542	0.0500	0	1	0.500	0	82	82
31	1	78	9	2	2	0.1542	0.0500	1	0	0.567	0	82	0
31	1	79	1	2	3	0.1542	0.0500	1	1	0.740	61	0	82
31	1	80	1	2	3	0.1542	0.0500	0	1	1.239	50	82	82
31	1	81	9	2	3	0.1542	0.0500	0	1	0.657	0	0	0
31	1	82	9	1	3	0.1542	0.0500	0	1	0.483	0	0	0
31	1	83	9	2	2	0.1542	0.0500	0	0	0.636	0	82	82
31	1	84	0	2	2	0.1542	0.0500	1	1	0.738	6	82	0
31	1	85	0	2	2	0.1542	0.0500	0	1	0.546	8	0	0
31	1	86	1	1	1	0.1542	0.0500	0	1	0.534	82	82	82
31	1	87	0	1	1	0.1542	0.0500	0	1	0.583	8	0	0
31	1	88	0	2	2	0.1542	0.0500	0	1	0.540	8	0	0
31	1	89	0	2	1	0.1542	0.0500	0	1	0.526	8	0	0
31	1	90	9	1	1	0.1542	0.0500	0	1	0.455	0	0	0
31	1	91	9	1	1	0.1542	0.0500	0	1	0.408	0	0	0
31	1	92	9	1	1	0.1542	0.0500	0	1	0.367	0	82	82
31	1	93	0	1	3	0.1542	0.0500	1	0	0.439	0	0	82
31	1	94	1	1	1	0.1542	0.0500	1	1	0.547	80	82	0
31	1	95	1	2	3	0.1542	0.0500	1	0	1.554	0	0	82
31	1	96	9	1	2	0.1542	0.0500	0	1	0.495	0	82	82
31	1	97	9	2	3	0.1542	0.0500	0	1	1.033	0	82	82
31	1	98	9	1	3	0.1542	0.0500	0	1	0.543	0	82	82
31	1	99	1	1	1	0.1542	0.0500	1	1	1.118	50	82	0
31	1	100	1	2	2	0.1542	0.0500	0	1	0.991	50	82	82
31	1	101	9	1	1	0.1542	0.0500	1	1	1.404	0	0	82
31	1	102	0	2	1	0.1542	0.0500	0	1	0.820	5	0	0
31	1	103	9	1	1	0.1542	0.0500	0	1	0.615	0	82	82
31	1	104	0	2	2	0.1542	0.0500	0	1	0.610	7	0	0
31	1	105	9	2	2	0.1542	0.0500	1	1	1.278	0	82	0
31	1	106	0	1	3	0.1542	0.0500	0	1	0.640	7	0	0
31	1	107	1	2	3	0.1542	0.0500	0	1	1.137	50	82	82
31	1	108	0	1	3	0.1542	0.0500	0	1	0.518	8	0	0
31	1	109	0	1	1	0.1542	0.0500	1	1	0.584	8	0	82
31	1	110	1	1	1	0.1542	0.0500	0	1	0.542	81	82	82
31	1	111	1	1	1	0.1542	0.0500	0	1	0.490	86	82	82
31	1	112	1	1	2	0.1542	0.0500	1	1	2.363	50	82	0
31	1	113	0	1	3	0.1542	0.0500	1	1	0.773	6	0	82
31	1	114	0	2	3	0.1542	0.0500	0	1	1.347	5	0	0
31	1	115	0	2	3	0.1542	0.0500	0	1	0.647	7	0	0
31	1	116	1	2	2	0.1542	0.0500	1	1	0.795	56	0	82
31	1	117	9	2	2	0.1542	0.0500	0	1	0.822	0	0	0
31	1	118	1	2	3	0.1542	0.0500	0	1	0.715	63	82	82
31	1	119	0	1	1	0.1542	0.0500	1	1	0.752	6	0	82
31	1	120	0	1	3	0.1542	0.0500	1	1	0.741	6	0	82
31	1	121	1	1	3	0.1542	0.0500	1	1	0.708	64	82	0
31	1	122	1	2	2	0.1542	0.0500	1	1	0.785	57	0	82
31	1	123	0	1	1	0.1542	0.0500	0	1	0.548	8	0	0
31	1	124	1	2	2	0.1542	0.0500	0	1	0.692	66	82	82
31	1	125	0	2	1	0.1542	0.0500	0	1	0.567	8	0	0
31	1	126	0	2	3	0.1542	0.0500	0	1	0.530	8	0	0
31	1	127	0	1	1	0.1542	0.0500	0	1	0.592	8	0	0
31	1	128	1	2	2	0.1542	0.0500	1	1	0.567	78	0	82
31	1	129	1	1	3	0.1542	0.0500	0	1	0.544	81	82	82
31	1	130	9	1	3	0.1542	0.0500	1	1	0.564	0	82	0
31	1	131	0	2	2	0.1542	0.0500	1	1	0.612	7	82	0
31	1	132	0	2	2	0.1542	0.0500	1	1	0.610	7	82	0
31	1	133	1	2	1	0.1542	0.0500	0	1	0.660	69	82	82
31	1	134	9	2	3	0.1542	0.0500	1	1	0.661	0	82	0
31	1	135	0	1	1	0.1542	0.0500	0	1	0.528	8	0	0
31	1	136	1	2	2	0.1542	0.0500	0	1	1.141	50	82	82
31	1	137	1	1	3	0.1542	0.0500	0	1	0.500	85	82	82
31	1	138	9	2	2	0.1542	0.0500	0	1	0.614	0	0	0
31	1	139	0	2	2	0.1542	0.0500	0	1	0.565	8	0	0
31	1	140	9	2	1	0.1542	0.0500	0	1	0.568	0	82	82
31	1	141	9	1	3	0.1542	0.0500	1	1	0.664	0	0	82
31	1	142	0	1	3	0.1542	0.0500	1	1	0.670	7	0	82
31	1	143	1	2	2	0.1542	0.0500	0	1	0.626	72	82	82
31	1	144	1	2	1	0.1542	0.0500	1	1	0.574	78	0	82
31	1	145	9	2	2	0.1542	0.0500	1	0	1.448	0	0	82
31	1	146	9	2	3	0.1542	0.0500	1	1	0.757	0	82	0
31	1	147	1	1	1	0.1542	0.0500	1	1	0.735	61	82	0
31	1	148	0	1	1	0.1542	0.0500	1	1	0.677	7	0	82
31	1	149	1	1	1	0.1542	0.0500	0	1	0.664	69	82	82
31	1	150	1	1	1	0.1542	0.0500	1	1	1.323	50	82	0
31	1	151	1	2	3	0.1542	0.0500	1	1	0.993	50	0	82
31	1	152	0	1	1	0.1542	0.0500	1	1	0.666	7	0	82
31	1	153	0	2	1	0.1542	0.0500	1	1	1.100	5	82	0
31	1	154	9	2	2	0.1542	0.0500	0	1	1.174	0	0	0
31	1	155	1	2	3	0.1542	0.0500	1	1	0.714	64	0	82
31	1	156	1	2	2	0.1542	0.0500	1	1	0.557	79	0	82
31	1	157	1	2	3	0.1542	0.0500	1	1	0.661	69	0	82
31	1	158	0	2	2	0.1542	0.0500	1	1	0.544	8	82	0
31	1	159	9	1	3	0.1542	0.0500	0	1	0.544	0	0	0
31	1	160	0	1	1	0.1542	0.0500	0	1	0.558	8	0	0
31	1	161	0	1	1	0.1542	0.0500	1	1	0.790	6	0	82
31	1	162	0	2	3	0.1542	0.0500	1	1	0.689	7	82	0
31	1	163	9	1	1	0.1542	0.0500	1	1	0.638	0	0	82
31	1	164	0	1	3	0.1542	0.0500	0	1	0.568	8	0	0
31	1	165	1	2	2	0.1542	0.0500	1	1	0.616	73	0	82
31	1	166	0	2	2	0.1542	0.0500	0	1	0.597	8	0	0
31	1	167	1	1	3	0.1542	0.0500	0	1	0.581	77	82	82
31	1	168	0	2	3	0.1542	0.0500	0	0	0.594	0	0	0
31	1	169	0	2	3	0.1542	0.0500	1	1	0.934	5	82	0
31	1	170	1	2	1	0.1542	0.0500	1	1	0.822	53	0	82
31	1	171	1	2	2	0.1542	0.0500	1	1	0.728	62	0	82
31	1	172	1	1	3	0.1542	0.0500	1	1	0.653	70	82	0
31	1	173	1	2	3	0.1542	0.0500	1	1	0.534	82	0	82
31	1	174	1	2	2	0.1542	0.0500	0	1	0.671	68	82	82
31	1	175	1	1	3	0.1542	0.0500	0	1	0.569	78	82	82
31	1	176	1	2	2	0.1542	0.0500	0	1	0.620	73	82	82
31	1	177	9	1	2	0.1542	0.0500	1	1	0.689	0	0	82
31	1	178	1	2	3	0.1542	0.0500	1	1	1.203	50	0	82
31	1	179	1	2	3	0.1542	0.0500	0	1	0.638	71	82	82
31	1	180	9	1	1	0.1542	0.0500	0	1	0.509	0	82	82
31	1	181	1	1	3	0.1542	0.0500	0	1	0.552	80	82	82
31	1	182	0	2	2	0.1542	0.0500	1	1	0.595	8	82	0
31	1	183	1	1	3	0.1542	0.0500	0	1	0.485	87	82	82
31	1	184	0	1	1	0.1542	0.0500	1	0	0.478	0	0	82
31	1	185	0	2	2	0.1542	0.0500	0	1	0.755	6	0	0
31	1	186	1	1	3	0.1542	0.0500	0	1	0.549	80	82	82
31	1	187	0	1	1	0.1542	0.0500	1	1	0.555	8	0	82
31	1	188	0	2	3	0.1542	0.0500	1	1	0.539	8	82	0
31	1	189	0	1	3	0.1542	0.0500	1	1	0.537	8	0	82
31	1	190	1	2	3	0.1542	0.0500	1	1	0.601	75	0	82
31	1	191	0	2	3	0.1542	0.0500	0	1	0.832	5	0	0
31	1	192	1	1	1	0.1542	0.0500	0	1	0.545	80	82	82
31	1	193	1	1	3	0.1542	0.0500	1	1	0.600	75	82	0
31	1	194	9	2	3	0.1542	0.0500	1	0	1.276	0	0	82
31	1	195	1	1	3	0.1542	0.0500	1	1	0.556	79	82	0
31	1	196	1	1	1	0.1542	0.0500	0	1	0.526	82	82	82
31	1	197	0	1	1	0.1542	0.0500	1	1	0.521	8	0	82
31	1	198	1	1	3	0.1542	0.0500	0	1	0.714	64	82	82
31	1	199	1	1	1	0.1542	0.0500	1	1	0.576	77	82	0
31	1	200	1	1	3	0.1542	0.0500	0	1	0.527	82	82	82
31	1	201	1	2	3	0.1542	0.0500	0	1	0.683	67	82	82
31	1	202	1	2	2	0.1542	0.0500	1	1	0.808	54	0	82
31	1	203	1	2	3	0.1542	0.0500	1	1	0.711	64	0	82
31	1	204	1	1	1	0.1542	0.0500	1	1	0.507	84	82	0
31	1	205	0	2	2	0.1542	0.0500	1	1	0.571	8	82	0
31	1	206	0	2	2	0.1542	0.0500	0	1	0.596	8	0	0
31	1	207	0	1	1	0.1542	0.0500	0	1	0.537	8	0	0
31	1	208	9	1	2	0.1542	0.0500	1	1	0.727	0	82	0
31	1	209	0	1	1	0.1542	0.0500	0	1	0.521	8	0	0
31	1	210	1	1	3	0.1542	0.0500	1	1	0.580	77	82	0
31	1	211	9	1	3	0.1542	0.0500	0	1	0.603	0	82	82
31	1	212	0	1	2	0.1542	0.0500	0	1	0.478	9	0	0
31	1	213	9	1	3	0.1542	0.0500	0	0	0.559	0	0	0
31	1	214	9	1	3	0.1542	0.0500	0	1	0.830	0	0	0
31	1	215	1	1	1	0.1542	0.0500	1	1	0.703	65	82	0
31	1	216	9	1	3	0.1542	0.0500	1	1	0.547	0	0	82
31	1	217	0	1	2	0.1542	0.0500	1	1	0.580	8	0	82
31	1	218	1	1	3	0.1542	0.0500	0	1	0.938	50	82	82
31	1	219	0	1	1	0.1542	0.0500	0	1	0.508	8	0	0
31	1	220	9	2	2	0.1542	0.0500	0	1	0.814	0	82	82
31	1	221	9	1	3	0.1542	0.0500	1	1	0.639	0	82	0
31	1	222	0	1	3	0.1542	0.0500	0	1	0.674	7	0	0
31	1	223	1	1	1	0.1542	0.0500	1	1	0.607	74	82	0
31	1	224	0	1	3	0.1542	0.0500	0	1	0.464	9	0	0
31	1	225	0	2	3	0.1542	0.0500	1	1	1.045	5	82	0
31	1	226	9	2	2	0.1542	0.0500	0	1	0.946	0	82	82
31	1	227	0	2	2	0.1542	0.0500	0	1	0.533	8	0	0
31	1	228	1	1	2	0.1542	0.0500	0	1	0.485	86	82	82
31	1	229	1	2	3	0.1542	0.0500	1	1	0.547	80	0	82
31	1	230	1	1	3	0.1542	0.0500	1	0	0.460	0	82	0
31	1	231	0	2	3	0.1542	0.0500	1	1	0.661	7	82	0
31	1	232	9	1	2	0.1542	0.0500	0	1	0.492	0	0	0
31	1	233	0	2	3	0.1542	0.0500	0	1	0.933	5	0	0
31	1	234	1	2	3	0.1542	0.0500	0	1	0.632	72	82	82
31	1	235	0	2	1	0.1542	0.0500	1	0	0.880	0	82	0
31	1	236	0	1	3	0.1542	0.0500	1	1	0.520	8	0	82
31	1	237	9	2	3	0.1542	0.0500	1	1	0.875	0	82	0
31	1	238	0	1	2	0.1542	0.0500	0	1	0.664	7	0	0
31	1	239	1	1	3	0.1542	0.0500	0	1	0.567	78	82	82
31	1	240	0	1	1	0.1542	0.0500	0	1	0.504	8	0	0
31	1	241	1	2	1	0.1542	0.0500	0	1	0.579	77	82	82
31	1	242	0	2	1	0.1542	0.0500	1	1	0.715	6	82	0
31	1	243	1	2	2	0.1542	0.0500	0	1	0.833	52	82	82
31	1	244	1	2	3	0.1542	0.0500	1	1	1.204	50	0	82
31	1	245	9	1	3	0.1542	0.0500	1	1	0.657	0	0	82
31	1	246	0	1	3	0.1542	0.0500	0	1	0.556	8	0	0
31	1	247	0	1	3	0.1542	0.0500	1	1	0.591	8	0	82
31	1	248	0	1	1	0.1542	0.0500	1	1	0.583	8	0	82
31	1	249	1	1	1	0.1542	0.0500	0	1	0.618	73	82	82
31	1	250	1	1	3	0.1542	0.0500	1	1	0.612	74	82	0
31	1	251	0	1	1	0.1542	0.0500	1	1	0.730	6	0	82
31	1	252	0	2	2	0.1542	0.0500	1	1	0.876	5	82	0
31	1	253	1	1	1	0.1542	0.0500	0	1	0.480	87	82	82
31	1	254	9	1	1	0.1542	0.0500	1	1	0.646	0	82	0
31	1	255	1	2	2	0.1542	0.0500	0	1	0.676	67	82	82
31	1	256	1	1	3	0.1542	0.0500	1	1	0.535	82	82	0
31	1	257	1	2	1	0.1542	0.0500	1	1	0.984	50	0	82
31	1	258	9	2	3	0.1542	0.0500	1	1	0.611	0	82	0
31	1	259	9	2	3	0.1542	0.0500	0	1	0.724	0	0	0
31	1	260	0	2	3	0.1542	0.0500	1	1	0.630	7	82	0
31	1	261	0	2	3	0.1542	0.0500	0	1	0.629	7	0	0
31	1	262	1	2	2	0.1542	0.0500	1	0	0.684	0	0	82
31	1	263	0	1	1	0.1542	0.0500	1	1	0.611	7	0	82
31	1	264	0	2	2	0.1542	0.0500	1	1	0.653	7	82	0
31	1	265	9	1	1	0.1542	0.0500	1	1	0.763	0	0	82
31	1	266	9	2	3	0.1542	0.0500	1	1	0.661	0	0	82
31	1	267	0	1	1	0.1542	0.0500	1	1	0.541	8	0	82
31	1	268	1	2	3	0.1542	0.0500	1	1	0.553	80	0	82
31	1	269	0	2	3	0.1542	0.0500	1	1	0.515	8	82	0
31	1	270	1	2	2	0.1542	0.0500	1	1	0.654	70	0	82
31	1	271	0	1	1	0.1542	0.0500	0	1	0.604	7	0	0
31	1	272	0	1	3	0.1542	0.0500	1	1	0.591	8	0	82
31	1	273	0	1	1	0.1542	0.0500	0	1	0.524	8	0	0
31	1	274	0	2	3	0.1542	0.0500	0	1	0.731	6	0	0
31	1	275	9	1	3	0.1542	0.0500	0	1	0.507	0	82	82
31	1	276	9	1	3	0.1542	0.0500	0	1	0.424	0	82	82
31	1	277	1	1	1	0.1542	0.0500	0	1	0.456	89	82	82
31	1	278	0	1	1	0.1542	0.0500	0	1	0.486	9	0	0
31	1	279	1	1	3	0.1542	0.0500	1	1	0.512	84	82	0
31	1	280	1	1	1	0.1542	0.0500	1	1	0.595	76	82	0
31	1	281	0	2	3	0.1542	0.0500	0	1	0.621	7	0	0
31	1	282	9	2	3	0.1542	0.0500	0	1	0.583	0	0	0
31	1	283	1	1	2	0.1542	0.0500	0	1	0.421	93	82	82
31	1	284	1	2	3	0.1542	0.0500	0	1	0.651	70	82	82
31	1	285	9	1	3	0.1542	0.0500	1	1	0.505	0	0	82
31	1	286	9	1	1	0.1542	0.0500	0	1	0.415	0	82	82
31	1	287	1	1	2	0.1542	0.0500	1	1	0.559	79	82	0
31	1	288	1	2	2	0.1542	0.0500	0	1	0.808	54	82	82
31	1	289	1	2	3	0.1542	0.0500	0	1	0.798	55	82	82
31	1	290	0	2	3	0.1542	0.0500	1	0	0.676	0	82	0
31	1	291	0	2	2	0.1542	0.0500	0	1	0.514	8	0	0
31	1	292	0	2	3	0.1542	0.0500	0	1	0.480	9	0	0
31	1	293	1	2	3	0.1542	0.0500	0	1	0.446	90	82	82
31	1	294	1	1	2	0.1542	0.0500	0	1	0.442	91	82	82
31	1	295	0	1	3	0.1542	0.0500	0	1	0.453	9	0	0
31	1	296	1	2	2	0.1542	0.0500	1	1	0.719	63	0	82
31	1	297	0	2	2	0.1542	0.0500	1	1	0.549	8	82	0
31	1	298	0	2	2	0.1542	0.0500	1	1	0.447	9	82	0
31	1	299	0	1	3	0.1542	0.0500	0	1	0.509	8	0	0
31	1	300	1	1	2	0.1542	0.0500	1	1	0.545	81	82	0
31	1	301	0	1	3	0.1542	0.0500	0	1	0.514	8	0	0
31	1	302	1	2	2	0.1542	0.0500	1	1	0.522	83	0	82
31	1	303	1	1	1	0.1542	0.0500	1	1	0.621	73	82	0
31	1	304	1	1	1	0.1542	0.0500	1	0	0.483	0	82	0
31	1	305	0	2	1	0.1542	0.0500	0	1	0.592	8	0	0
31	1	306	1	2	1	0.1542	0.0500	0	1	0.551	80	82	82
31	1	307	1	2	2	0.1542	0.0500	1	1	0.545	80	0	82
31	1	308	0	1	1	0.1542	0.0500	1	1	0.637	7	0	82
31	1	309	1	1	1	0.1542	0.0500	0	1	0.463	89	82	82
31	1	310	0	1	1	0.1542	0.0500	0	1	0.371	10	0	0
31	1	311	1	1	1	0.1542	0.0500	1	1	0.497	85	82	0
31	1	312	0	2	2	0.1542	0.0500	0	1	0.664	7	0	0
31	1	313	1	1	3	0.1542	0.0500	1	1	0.472	88	82	0
31	1	314	1	2	2	0.1542	0.0500	0	1	0.501	85	82	82
31	1	315	9	2	3	0.1542	0.0500	1	1	0.479	0	0	82
31	1	316	0	2	3	0.1542	0.0500	1	0	0.608	0	82	0
31	1	317	1	1	3	0.1542	0.0500	0	1	0.487	86	82	82
31	1	318	0	2	3	0.1542	0.0500	0	1	1.039	5	0	0
31	1	319	0	2	2	0.1542	0.0500	1	1	0.539	8	82	0
31	1	320	1	2	2	0.1542	0.0500	1	1	0.469	88	0	82
31	1	321	0	1	3	0.1542	0.0500	0	1	0.455	9	0	0
31	1	322	1	2	3	0.1542	0.0500	0	1	0.515	84	82	82
31	1	323	1	1	3	0.1542	0.0500	0	1	0.409	94	82	82
31	1	324	0	1	3	0.1542	0.0500	1	1	0.595	8	0	82
31	1	325	1	2	2	0.1542	0.0500	0	1	0.754	60	82	82
31	1	326	1	2	2	0.1542	0.0500	1	1	0.621	73	0	82
31	1	327	9	1	3	0.1542	0.0500	1	1	0.497	0	82	0
31	1	328	0	1	1	0.1542	0.0500	1	1	0.614	7	0	82
31	1	329	0	2	1	0.1542	0.0500	1	1	0.665	7	82	0
31	1	330	1	1	3	0.1542	0.0500	1	1	0.516	83	82	0
31	1	331	1	1	3	0.1542	0.0500	1	1	0.500	85	82	0
31	1	332	9	2	1	0.1542	0.0500	0	1	0.638	0	0	0
31	1	333	1	2	3	0.1542	0.0500	1	1	0.582	77	0	82
31	1	334	0	1	2	0.1542	0.0500	1	1	0.475	9	0	82
31	1	335	0	1	1	0.1542	0.0500	1	1	0.532	8	0	82
31	1	336	0	1	3	0.1542	0.0500	1	1	0.463	9	0	82
31	1	337	1	2	3	0.1542	0.0500	1	1	0.636	71	0	82
31	1	338	0	2	2	0.1542	0.0500	1	1	0.468	9	82	0
31	1	339	0	1	3	0.1542	0.0500	1	1	0.426	9	0	82
31	1	340	1	1	1	0.1542	0.0500	1	1	0.618	73	82	0
31	1	341	1	2	2	0.1542	0.0500	0	0	0.597	0	82	82
31	1	342	0	2	2	0.1542	0.0500	0	1	0.568	8	0	0
31	1	343	1	1	3	0.1542	0.0500	0	1	0.415	94	82	82
31	1	344	0	2	3	0.1542	0.0500	0	1	0.458	9	0	0
31	1	345	0	2	2	0.1542	0.0500	1	0	0.570	0	82	0
31	1	346	1	2	3	0.1542	0.0500	0	0	0.402	0	82	82
31	1	347	1	2	1	0.1542	0.0500	0	1	0.566	78	82	82
31	1	348	0	1	3	0.1542	0.0500	1	1	0.604	7	0	82
31	1	349	0	2	3	0.1542	0.0500	0	1	0.536	8	0	0
31	1	350	1	1	3	0.1542	0.0500	0	1	0.505	84	82	82
31	1	351	1	1	3	0.1542	0.0500	1	1	0.486	86	82	0
31	1	352	0	1	3	0.1542	0.0500	1	1	1.376	5	0	82
31	1	353	0	2	2	0.1542	0.0500	0	1	0.588	8	0	0
31	1	354	9	1	1	0.1542	0.0500	1	1	0.712	0	0	82
31	1	355	0	2	3	0.1542	0.0500	1	1	0.923	5	82	0
31	1	356	9	2	1	0.1542	0.0500	1	0	1.586	0	0	82
31	1	357	1	2	3	0.1542	0.0500	0	1	0.625	72	82	82
31	1	358	0	2	3	0.1542	0.0500	1	1	0.780	6	82	0
31	1	359	9	1	1	0.1542	0.0500	1	1	0.936	0	82	0
31	1	360	0	2	3	0.1542	0.0500	0	1	0.697	7	0	0
31	1	361	1	1	3	0.1542	0.0500	1	1	0.496	85	82	0
31	1	362	1	1	1	0.1542	0.0500	1	1	0.588	76	82	0
31	1	363	9	1	1	0.1542	0.0500	1	1	0.621	0	82	0
31	1	364	0	2	3	0.1542	0.0500	1	1	0.700	7	82	0
31	1	365	9	1	1	0.1542	0.0500	0	1	0.498	0	82	82
31	1	366	0	1	1	0.1542	0.0500	0	1	0.413	9	0	0
31	1	367	1	1	1	0.1542	0.0500	0	1	0.415	94	82	82
31	1	368	9	2	2	0.1542	0.0500	0	1	0.438	0	82	82
31	1	369	1	2	2	0.1542	0.0500	1	1	0.824	53	0	82
31	1	370	1	1	3	0.1542	0.0500	0	1	0.457	89	82	82
31	1	371	1	2	2	0.1542	0.0500	1	1	0.590	76	0	82
31	1	372	9	2	1	0.1542	0.0500	0	1	0.530	0	0	0
31	1	373	1	2	2	0.1542	0.0500	0	1	0.498	85	82	82
31	1	374	1	1	3	0.1542	0.0500	0	1	0.502	85	82	82
31	1	375	9	2	3	0.1542	0.0500	1	1	0.706	0	82	0
31	1	376	1	2	2	0.1542	0.0500	1	1	0.756	59	0	82
31	1	377	9	1	3	0.1542	0.0500	0	1	0.419	0	82	82
31	1	378	0	1	3	0.1542	0.0500	1	1	0.567	8	0	82
31	1	379	0	1	3	0.1542	0.0500	1	1	0.507	8	0	82
31	1	380	0	2	3	0.1542	0.0500	1	1	0.630	7	82	0
31	1	381	9	2	3	0.1542	0.0500	0	1	0.653	0	0	0
31	1	382	1	2	3	0.1542	0.0500	0	1	0.519	83	82	82
31	1	383	1	1	1	0.1542	0.0500	1	0	0.521	0	82	0
31	1	384	0	2	3	0.1542	0.0500	1	1	0.738	6	82	0
31	1	385	0	1	1	0.1542	0.0500	1	1	0.657	7	0	82
31	1	386	0	1	1	0.1542	0.0500	1	1	0.595	8	0	82
31	1	387	1	1	3	0.1542	0.0500	0	1	0.482	87	82	82
31	1	388	9	2	3	0.1542	0.0500	0	1	0.783	0	82	82
31	1	389	9	1	3	0.1542	0.0500	0	1	0.455	0	0	0
31	1	390	1	2	2	0.1542	0.0500	0	1	0.414	94	82	82
31	1	391	0	1	1	0.1542	0.0500	1	1	0.765	6	0	82
31	1	392	0	1	3	0.1542	0.0500	0	1	0.360	10	0	0
31	1	393	0	2	3	0.1542	0.0500	0	1	0.521	8	0	0
31	1	394	0	1	3	0.1542	0.0500	1	1	0.551	8	0	82
31	1	395	1	2	2	0.1542	0.0500	1	1	0.535	81	0	82
31	1	396	9	2	2	0.1542	0.0500	1	1	0.496	0	0	82
31	1	397	0	1	2	0.1542	0.0500	1	1	0.529	8	0	82
31	1	398	0	2	3	0.1542	0.0500	1	0	1.292	0	82	0
31	1	399	0	2	1	0.1542	0.0500	0	0	0.703	0	0	0
31	1	400	0	1	3	0.1542	0.0500	0	1	0.450	9	0	0
31	1	401	0	1	1	0.1542	0.0500	1	1	0.582	8	0	82
31	1	402	0	2	1	0.1542	0.0500	1	1	0.617	7	82	0
31	1	403	0	1	3	0.1542	0.0500	1	1	0.499	9	0	82
31	1	404	1	2	2	0.1542	0.0500	0	1	0.614	74	82	82
31	1	405	0	1	1	0.1542	0.0500	0	1	0.412	9	0	0
31	1	406	9	1	3	0.1542	0.0500	0	1	0.354	0	0	0
31	1	407	1	2	2	0.1542	0.0500	1	1	0.422	93	0	82
31	1	408	9	1	3	0.1542	0.0500	1	1	0.485	0	82	0
31	1	409	0	2	1	0.1542	0.0500	0	1	0.537	8	0	0
31	1	410	0	2	2	0.1542	0.0500	0	1	0.513	8	0	0
31	1	411	1	1	3	0.1542	0.0500	1	1	0.521	83	82	0
31	1	412	0	2	1	0.1542	0.0500	0	1	0.529	8	0	0
31	1	413	9	1	1	0.1542	0.0500	0	1	0.502	0	82	82
31	1	414	0	2	2	0.1542	0.0500	1	0	1.057	0	82	0
31	1	415	0	1	3	0.1542	0.0500	0	1	0.535	8	0	0
31	1	416	0	2	3	0.1542	0.0500	1	1	0.758	6	82	0
31	1	417	9	2	2	0.1542	0.0500	1	0	1.204	0	82	0
31	1	418	1	1	1	0.1542	0.0500	1	1	0.614	74	82	0
31	1	419	0	1	1	0.1542	0.0500	1	1	0.594	8	0	82
31	1	420	0	2	1	0.1542	0.0500	1	1	1.751	5	82	0
31	1	421	1	2	2	0.1542	0.0500	1	1	0.876	50	0	82
31	1	422	1	2	3	0.1542	0.0500	0	0	0.621	0	82	82
31	1	423	1	2	2	0.1542	0.0500	0	1	1.360	50	82	82
31	1	424	9	1	1	0.1542	0.0500	1	1	0.713	0	82	0
31	1	425	0	2	2	0.1542	0.0500	0	1	0.827	5	0	0
31	1	426	0	2	3	0.1542	0.0500	1	1	0.561	8	82	0
31	1	427	0	1	3	0.1542	0.0500	0	1	0.522	8	0	0
31	1	428	0	1	3	0.1542	0.0500	0	1	0.450	9	0	0
31	1	429	1	2	3	0.1542	0.0500	0	1	1.401	50	82	82
31	1	430	0	2	3	0.1542	0.0500	0	1	0.615	7	0	0
31	1	431	1	2	1	0.1542	0.0500	1	1	0.586	76	0	82
31	1	432	1	2	2	0.1542	0.0500	1	1	0.445	91	0	82
31	1	433	1	2	3	0.1542	0.0500	1	1	0.442	91	0	82
31	1	434	0	2	3	0.1542	0.0500	1	0	0.998	0	82	0
31	1	435	0	1	1	0.1542	0.0500	1	1	1.601	5	0	82
31	1	436	1	1	1	0.1542	0.0500	0	1	0.607	74	82	82
31	1	437	0	2	2	0.1542	0.0500	0	1	0.819	5	0	0
31	1	438	1	1	2	0.1542	0.0500	0	1	0.425	92	82	82
31	1	439	9	1	3	0.1542	0.0500	0	1	0.411	0	0	0
31	1	440	0	1	3	0.1542	0.0500	0	1	0.405	9	0	0
31	1	441	0	1	1	0.1542	0.0500	1	1	0.670	7	0	82
31	1	442	1	1	1	0.1542	0.0500	1	1	0.505	84	82	0
31	1	443	9	1	3	0.1542	0.0500	1	1	0.431	0	0	82
31	1	444	1	1	3	0.1542	0.0500	1	1	0.442	91	82	0
31	1	445	9	2	2	0.1542	0.0500	0	1	1.060	0	82	82
31	1	446	0	2	2	0.1542	0.0500	1	1	1.405	5	82	0
31	1	447	9	1	1	0.1542	0.0500	1	1	0.904	0	0	82
31	1	448	1	2	1	0.1542	0.0500	0	1	0.584	77	82	82
31	1	449	1	1	3	0.1542	0.0500	0	1	0.543	81	82	82
31	1	450	0	2	2	0.1542	0.0500	0	1	0.500	9	0	0
31	1	451	0	2	3	0.1542	0.0500	0	1	0.461	9	0	0
31	1	452	0	2	3	0.1542	0.0500	0	1	0.479	9	0	0
31	1	453	0	1	3	0.1542	0.0500	1	1	0.519	8	0	82
31	1	454	1	1	1	0.1542	0.0500	0	1	0.449	90	82	82
31	1	455	9	2	2	0.1542	0.0500	1	1	0.899	0	82	0
31	1	456	9	2	2	0.1542	0.0500	0	1	0.583	0	0	0
31	1	457	1	1	2	0.1542	0.0500	0	1	0.471	88	82	82
31	1	458	1	2	2	0.1542	0.0500	0	1	0.500	85	82	82
31	1	459	1	1	3	0.1542	0.0500	0	1	0.393	96	82	82
31	1	460	0	1	1	0.1542	0.0500	0	1	0.441	9	0	0
31	1	461	0	2	3	0.1542	0.0500	0	1	0.445	9	0	0
31	1	462	0	2	3	0.1542	0.0500	1	1	0.689	7	82	0
31	1	463	1	2	1	0.1542	0.0500	0	1	0.453	90	82	82
31	1	464	1	2	3	0.1542	0.0500	0	1	0.485	86	82	82
31	1	465	1	2	3	0.1542	0.0500	0	1	0.483	87	82	82
31	1	466	1	1	3	0.1542	0.0500	1	1	0.592	76	82	0
31	1	467	0	1	3	0.1542	0.0500	0	1	0.384	10	0	0
31	1	468	9	2	2	0.1542	0.0500	0	1	0.576	0	82	82
31	1	469	0	1	1	0.1542	0.0500	1	1	0.822	5	0	82
31	1	470	0	1	1	0.1542	0.0500	1	1	0.567	8	0	82
31	1	471	0	2	2	0.1542	0.0500	0	0	0.550	0	0	0
31	1	472	1	1	2	0.1542	0.0500	1	1	0.416	93	82	0
31	1	473	1	1	1	0.1542	0.0500	1	1	0.468	88	82	0
31	1	474	0	2	3	0.1542	0.0500	0	1	0.523	8	0	0
31	1	475	1	1	1	0.1542	0.0500	0	1	0.493	86	82	82
31	1	476	1	2	1	0.1542	0.0500	0	1	0.716	63	82	82
31	1	477	9	1	1	0.1542	0.0500	0	1	0.413	0	0	0
31	1	478	0	1	3	0.1542	0.0500	1	1	0.455	9	0	82
31	1	479	1	2	2	0.1542	0.0500	0	1	0.579	77	82	82
31	1	480	1	2	3	0.1542	0.0500	1	1	0.754	60	0	82
31	1	481	9	1	2	0.1542	0.0500	1	1	0.605	0	0	82
31	1	482	0	1	1	0.1542	0.0500	0	1	0.563	8	0	0
31	1	483	0	1	3	0.1542	0.0500	0	1	0.420	9	0	0
31	1	484	0	2	2	0.1542	0.0500	0	1	1.065	5	0	0
31	1	485	9	2	3	0.1542	0.0500	1	1	1.102	0	82	0
31	1	486	9	2	1	0.1542	0.0500	1	1	0.750	0	82	0
31	1	487	9	2	2	0.1542	0.0500	0	1	0.755	0	0	0
31	1	488	1	1	1	0.1542	0.0500	0	1	0.439	91	82	82
31	1	489	9	1	3	0.1542	0.0500	1	1	0.520	0	0	82
31	1	490	0	2	2	0.1542	0.0500	0	1	0.780	6	0	0
31	1	491	0	2	2	0.1542	0.0500	1	1	0.779	6	82	0
31	1	492	9	2	1	0.1542	0.0500	1	1	0.569	0	0	82
31	1	493	1	2	2	0.1542	0.0500	0	1	0.499	85	82	82
31	1	494	9	2	3	0.1542	0.0500	1	1	0.552	0	82	0
31	1	495	1	2	1	0.1542	0.0500	1	1	0.512	84	0	82
31	1	496	1	1	1	0.1542	0.0500	1	1	0.487	86	82	0
31	1	497	0	2	1	0.1542	0.0500	1	1	0.700	7	82	0
31	1	498	9	1	1	0.1542	0.0500	0	1	0.459	0	82	82
31	1	499	0	1	3	0.1542	0.0500	1	1	0.894	5	0	82
31	1	500	0	2	2	0.1542	0.0500	0	1	0.529	8	0	0
31	1	501	9	1	3	0.1542	0.0500	1	1	0.540	0	82	0
31	1	502	0	1	1	0.1542	0.0500	0	1	0.415	9	0	0
31	1	503	9	1	1	0.1542	0.0500	1	1	0.449	0	82	0
31	1	504	0	1	1	0.1542	0.0500	1	1	0.610	7	0	82
31	1	505	1	2	3	0.1542	0.0500	0	1	0.439	91	82	82
31	1	506	0	2	1	0.1542	0.0500	0	1	0.434	9	0	0
31	1	507	0	1	1	0.1542	0.0500	0	1	0.459	9	0	0
31	1	508	1	2	3	0.1542	0.0500	0	1	0.474	88	82	82
31	1	509	1	1	3	0.1542	0.0500	0	1	0.351	100	82	82
31	1	510	0	1	3	0.1542	0.0500	1	1	0.803	5	0	82
31	1	511	1	1	1	0.1542	0.0500	1	0	0.402	0	82	0
31	1	512	0	1	1	0.1542	0.0500	0	1	0.373	10	0	0
31	1	513	9	1	1	0.1542	0.0500	0	1	0.366	0	0	0
31	1	514	1	1	1	0.1542	0.0500	1	1	0.476	87	82	0
31	1	515	0	1	3	0.1542	0.0500	0	1	0.550	8	0	0
31	1	516	1	2	2	0.1542	0.0500	0	1	0.692	66	82	82
31	1	517	1	1	1	0.1542	0.0500	0	1	0.391	96	82	82
31	1	518	1	1	3	0.1542	0.0500	0	1	0.359	99	82	82
31	1	519	0	2	2	0.1542	0.0500	0	1	0.483	9	0	0
31	1	520	0	1	3	0.1542	0.0500	1	1	0.470	9	0	82
31	1	521	9	1	3	0.1542	0.0500	0	1	0.421	0	0	0
31	1	522	0	1	1	0.1542	0.0500	0	1	0.358	10	0	0
31	1	523	1	1	1	0.1542	0.0500	1	1	0.427	92	82	0
31	1	524	9	2	3	0.1542	0.0500	0	1	0.686	0	82	82
31	1	525	0	2	3	0.1542	0.0500	1	1	0.664	7	82	0
31	1	526	0	1	3	0.1542	0.0500	1	1	0.565	8	0	82
31	1	527	0	2	3	0.1542	0.0500	0	1	0.577	8	0	0
31	1	528	1	1	3	0.1542	0.0500	1	1	0.470	88	82	0
31	1	529	1	2	1	0.1542	0.0500	1	1	0.414	94	0	82
31	1	530	0	2	3	0.1542	0.0500	0	1	0.657	7	0	0
31	1	531	0	1	1	0.1542	0.0500	1	0	0.775	0	0	82
31	1	532	9	2	3	0.1542	0.0500	1	1	0.523	0	0	82
31	1	533	0	1	3	0.1542	0.0500	1	1	0.750	6	0	82
31	1	534	1	1	3	0.1542	0.0500	1	1	0.538	81	82	0
31	1	535	0	1	2	0.1542	0.0500	1	1	0.532	8	0	82
31	1	536	0	1	1	0.1542	0.0500	0	1	0.514	8	0	0
31	1	537	1	1	3	0.1542	0.0500	1	1	0.377	97	82	0
31	1	538	9	1	1	0.1542	0.0500	1	1	0.561	0	0	82
31	1	539	0	2	3	0.1542	0.0500	1	1	0.949	5	82	0
31	1	540	0	2	3	0.1542	0.0500	0	0	0.418	0	0	0
31	1	541	1	2	2	0.1542	0.0500	0	1	0.507	84	82	82
31	1	542	0	2	2	0.1542	0.0500	0	1	0.420	9	0	0
31	1	543	1	1	1	0.1542	0.0500	1	1	0.496	85	82	0
31	1	544	1	2	3	0.1542	0.0500	1	1	0.501	85	0	82
31	1	545	1	2	3	0.1542	0.0500	1	1	0.704	65	0	82
31	1	546	1	1	1	0.1542	0.0500	0	1	0.354	100	82	82
31	1	547	9	2	3	0.1542	0.0500	0	1	0.418	0	82	82
31	1	548	0	2	2	0.1542	0.0500	1	1	0.910	5	82	0
31	1	549	0	2	3	0.1542	0.0500	1	1	0.569	8	82	0
31	1	550	0	1	1	0.1542	0.0500	0	1	0.426	9	0	0
31	1	551	1	1	3	0.1542	0.0500	1	1	0.459	89	82	0
31	1	552	1	1	1	0.1542	0.0500	0	1	0.435	92	82	82
31	1	553	0	2	1	0.1542	0.0500	1	1	0.771	6	82	0
31	1	554	1	1	2	0.1542	0.0500	1	1	0.461	89	82	0
31	1	555	1	1	3	0.1542	0.0500	1	1	0.383	97	82	0
31	1	556	1	2	2	0.1542	0.0500	0	1	0.608	74	82	82
31	1	557	0	1	1	0.1542	0.0500	0	1	0.437	9	0	0
31	1	558	1	2	3	0.1542	0.0500	0	1	0.472	88	82	82
31	1	559	9	1	1	0.1542	0.0500	0	1	0.408	0	82	82
31	1	560	0	2	2	0.1542	0.0500	0	1	0.623	7	0	0
31	1	561	0	1	1	0.1542	0.0500	0	1	0.422	9	0	0
31	1	562	1	1	1	0.1542	0.0500	1	0	0.457	0	82	0
31	1	563	0	1	2	0.1542	0.0500	1	1	0.515	8	0	82
31	1	564	9	2	3	0.1542	0.0500	1	1	0.579	0	0	82
31	1	565	0	2	3	0.1542	0.0500	0	1	0.613	7	0	0
31	1	566	1	2	3	0.1542	0.0500	1	1	0.752	60	0	82
31	1	567	0	1	2	0.1542	0.0500	0	1	0.430	9	0	0
31	1	568	1	2	3	0.1542	0.0500	1	1	0.563	79	0	82
31	1	569	1	1	2	0.1542	0.0500	0	1	0.447	90	82	82
31	1	570	0	1	3	0.1542	0.0500	0	1	0.396	10	0	0
31	1	571	9	1	2	0.1542	0.0500	0	1	0.312	0	82	82
31	1	572	9	1	1	0.1542	0.0500	1	1	0.505	0	0	82
31	1	573	1	1	3	0.1542	0.0500	1	1	0.438	91	82	0
31	1	574	9	2	3	0.1542	0.0500	0	1	0.888	0	0	0
31	1	575	0	1	3	0.1542	0.0500	1	1	0.504	8	0	82
31	1	576	0	2	2	0.1542	0.0500	1	1	0.622	7	82	0
31	1	577	1	2	2	0.1542	0.0500	1	1	0.532	82	0	82
31	1	578	9	2	3	0.1542	0.0500	1	1	0.512	0	0	82
31	1	579	1	1	3	0.1542	0.0500	0	1	0.521	83	82	82
31	1	580	1	1	1	0.1542	0.0500	1	0	0.435	0	82	0
31	1	581	0	1	3	0.1542	0.0500	0	1	0.387	10	0	0
31	1	582	1	1	2	0.1542	0.0500	1	1	0.335	100	82	0
31	1	583	1	1	1	0.1542	0.0500	0	1	0.644	71	82	82
31	1	584	1	2	3	0.1542	0.0500	0	1	0.503	85	82	82
31	1	585	9	1	3	0.1542	0.0500	0	1	0.340	0	82	82
31	1	586	0	1	3	0.1542	0.0500	1	1	0.996	5	0	82
31	1	587	0	2	3	0.1542	0.0500	1	1	1.320	5	82	0
31	1	588	0	2	2	0.1542	0.0500	1	1	0.634	7	82	0
31	1	589	1	1	3	0.1542	0.0500	0	1	0.423	93	82	82
31	1	590	9	2	1	0.1542	0.0500	0	1	0.492	0	82	82
31	1	591	9	2	2	0.1542	0.0500	0	1	0.603	0	82	82
31	1	592	0	1	1	0.1542	0.0500	1	1	0.701	6	0	82
31	1	593	0	2	2	0.1542	0.0500	1	1	0.582	8	82	0
31	1	594	0	1	3	0.1542	0.0500	1	1	0.473	9	0	82
31	1	595	1	2	1	0.1542	0.0500	1	1	1.237	50	0	82
31	1	596	0	2	3	0.1542	0.0500	1	0	0.856	0	82	0
31	1	597	1	2	2	0.1542	0.0500	1	1	0.601	75	0	82
31	1	598	1	1	3	0.1542	0.0500	0	1	0.450	90	82	82
31	1	599	1	2	2	0.1542	0.0500	1	1	0.557	79	0	82
31	1	600	1	1	3	0.1542	0.0500	1	1	0.467	88	82	0
31	1	601	1	2	2	0.1542	0.0500	1	1	0.559	79	0	82
31	1	602	0	2	2	0.1542	0.0500	1	1	0.336	10	82	0
31	1	603	0	2	3	0.1542	0.0500	0	1	0.470	9	0	0
31	1	604	9	1	3	0.1542	0.0500	1	1	0.504	0	82	0
31	1	605	1	2	3	0.1542	0.0500	1	1	0.459	89	0	82
31	1	606	0	2	3	0.1542	0.0500	0	1	0.484	9	0	0
31	1	607	0	2	2	0.1542	0.0500	1	1	0.541	8	82	0
31	1	608	1	1	3	0.1542	0.0500	0	1	0.385	97	82	82
31	1	609	0	1	2	0.1542	0.0500	0	1	0.390	10	0	0
31	1	610	0	2	2	0.1542	0.0500	1	1	0.492	9	82	0
31	1	611	0	2	3	0.1542	0.0500	0	1	0.437	9	0	0
31	1	612	9	2	3	0.1542	0.0500	1	1	0.419	0	0	82
31	1	613	0	2	3	0.1542	0.0500	0	1	0.394	10	0	0
31	1	614	1	2	3	0.1542	0.0500	1	0	0.836	0	0	82
31	1	615	1	2	2	0.1542	0.0500	0	1	0.438	91	82	82
31	1	616	1	1	1	0.1542	0.0500	1	1	0.396	95	82	0
31	1	617	1	1	3	0.1542	0.0500	0	1	0.396	95	82	82
31	1	618	1	2	2	0.1542	0.0500	0	1	0.508	84	82	82
31	1	619	9	2	2	0.1542	0.0500	1	1	0.515	0	0	82
31	1	620	9	1	3	0.1542	0.0500	0	1	0.394	0	82	82
31	1	621	0	2	2	0.1542	0.0500	1	1	0.519	8	82	0
31	1	622	9	1	1	0.1542	0.0500	0	1	0.395	0	0	0
31	1	623	0	1	1	0.1542	0.0500	0	1	0.382	10	0	0
31	1	624	0	1	1	0.1542	0.0500	1	0	0.340	0	0	82
31	1	625	9	1	3	0.1542	0.0500	1	1	0.420	0	0	82
31	1	626	1	1	1	0.1542	0.0500	1	1	0.354	100	82	0
31	1	627	1	2	2	0.1542	0.0500	1	1	0.484	87	0	82
31	1	628	9	1	2	0.1542	0.0500	0	1	0.518	0	0	0
31	1	629	1	1	3	0.1542	0.0500	0	1	0.346	100	82	82
31	1	630	1	2	2	0.1542	0.0500	0	1	0.665	69	82	82
31	1	631	0	1	1	0.1542	0.0500	0	1	0.337	10	0	0
31	1	632	0	2	2	0.1542	0.0500	1	1	0.942	5	82	0
31	1	633	0	2	2	0.1542	0.0500	0	1	0.447	9	0	0
31	1	634	1	2	3	0.1542	0.0500	1	1	0.578	77	0	82
31	1	635	1	1	1	0.1542	0.0500	1	1	0.450	90	82	0
31	1	636	9	1	3	0.1542	0.0500	1	1	0.690	0	0	82
31	1	637	0	2	2	0.1542	0.0500	0	1	0.450	9	0	0
31	1	638	1	1	1	0.1542	0.0500	0	1	0.430	92	82	82
31	1	639	0	1	1	0.1542	0.0500	1	1	0.584	8	0	82
31	1	640	0	2	2	0.1542	0.0500	1	1	0.575	8	82	0
31	1	641	0	1	1	0.1542	0.0500	0	1	0.375	10	0	0
31	1	642	0	2	2	0.1542	0.0500	0	1	0.463	9	0	0
31	1	643	9	2	3	0.1542	0.0500	1	0	0.872	0	82	0
31	1	644	0	1	3	0.1542	0.0500	1	1	0.559	8	0	82
31	1	645	9	2	3	0.1542	0.0500	0	1	0.505	0	82	82
31	1	646	0	2	2	0.1542	0.0500	1	1	0.848	5	82	0
31	1	647	1	1	1	0.1542	0.0500	1	1	0.397	95	82	0
31	1	648	0	1	3	0.1542	0.0500	0	1	0.347	10	0	0
31	1	649	9	2	3	0.1542	0.0500	0	1	0.501	0	0	0
31	1	650	9	1	3	0.1542	0.0500	0	1	0.329	0	82	82
31	1	651	0	1	3	0.1542	0.0500	0	1	0.270	10	0	0
31	1	652	9	1	3	0.1542	0.0500	1	1	0.451	0	82	0
31	1	653	1	2	3	0.1542	0.0500	0	1	0.270	100	82	82
31	1	654	0	2	2	0.1542	0.0500	0	1	0.573	8	0	0
31	1	655	1	2	3	0.1542	0.0500	0	1	0.372	98	82	82
31	1	656	9	2	2	0.1542	0.0500	1	0	0.784	0	82	0
31	1	657	1	1	2	0.1542	0.0500	1	0	0.298	0	82	0
31	1	658	1	2	3	0.1542	0.0500	1	1	0.377	97	0	82
31	1	659	1	2	1	0.1542	0.0500	0	0	0.409	0	82	82
31	1	660	1	2	2	0.1542	0.0500	1	1	0.516	83	0	82
31	1	661	0	2	2	0.1542	0.0500	0	1	0.536	8	0	0
31	1	662	1	2	3	0.1542	0.0500	1	1	0.504	85	0	82
31	1	663	1	2	3	0.1542	0.0500	1	1	0.403	95	0	82
31	1	664	1	2	2	0.1542	0.0500	1	1	0.385	96	0	82
31	1	665	0	1	3	0.1542	0.0500	0	1	0.284	10	0	0
31	1	666	9	1	1	0.1542	0.0500	1	0	0.612	0	0	82
31	1	667	1	1	2	0.1542	0.0500	0	1	0.546	80	82	82
31	1	668	1	2	3	0.1542	0.0500	0	0	0.535	0	82	82
31	1	669	0	1	2	0.1542	0.0500	0	1	0.316	10	0	0
31	1	670	1	1	1	0.1542	0.0500	0	1	0.345	100	82	82
31	1	671	1	2	3	0.1542	0.0500	0	1	0.548	80	82	82
31	1	672	0	1	1	0.1542	0.0500	0	1	0.431	9	0	0
31	1	673	0	2	3	0.1542	0.0500	0	1	0.516	8	0	0
31	1	674	1	2	3	0.1542	0.0500	0	1	0.394	96	82	82
31	1	675	1	2	3	0.1542	0.0500	1	1	0.506	84	0	82
31	1	676	1	1	3	0.1542	0.0500	1	1	0.452	90	82	0
31	1	677	1	1	1	0.1542	0.0500	0	1	0.406	94	82	82
31	1	678	0	1	1	0.1542	0.0500	1	1	0.608	7	0	82
31	1	679	1	2	3	0.1542	0.0500	1	1	0.474	88	0	82
31	1	680	1	1	3	0.1542	0.0500	1	1	0.414	94	82	0
31	1	681	9	1	1	0.1542	0.0500	1	1	0.419	0	82	0
31	1	682	1	1	3	0.1542	0.0500	1	1	0.315	100	82	0
31	1	683	1	2	2	0.1542	0.0500	0	0	0.505	0	82	82
31	1	684	9	1	1	0.1542	0.0500	0	1	0.400	0	0	0
31	1	685	0	2	2	0.1542	0.0500	1	0	0.689	0	82	0
31	1	686	9	2	2	0.1542	0.0500	1	1	0.679	0	0	82
31	1	687	1	2	3	0.1542	0.0500	0	1	0.728	62	82	82
31	1	688	1	2	2	0.1542	0.0500	0	1	0.436	91	82	82
31	1	689	0	2	3	0.1542	0.0500	1	1	0.656	7	82	0
31	1	690	0	1	1	0.1542	0.0500	1	1	0.619	7	0	82
31	1	691	9	2	3	0.1542	0.0500	0	1	0.496	0	0	0
31	1	692	0	2	3	0.1542	0.0500	0	1	0.421	9	0	0
31	1	693	0	1	3	0.1542	0.0500	1	1	0.725	6	0	82
31	1	694	1	2	2	0.1542	0.0500	1	1	0.537	81	0	82
31	1	695	1	1	3	0.1542	0.0500	0	1	0.494	86	82	82
31	1	696	1	1	1	0.1542	0.0500	0	1	0.367	98	82	82
31	1	697	1	1	3	0.1542	0.0500	1	1	0.423	93	82	0
31	1	698	0	2	3	0.1542	0.0500	1	1	1.098	5	82	0
31	1	699	1	1	1	0.1542	0.0500	0	1	0.380	97	82	82
31	1	700	1	1	1	0.1542	0.0500	0	1	0.378	97	82	82
31	1	701	1	2	2	0.1542	0.0500	0	1	0.463	89	82	82
31	1	702	9	2	2	0.1542	0.0500	1	1	0.675	0	82	0
31	1	703	1	2	3	0.1542	0.0500	1	1	1.063	50	0	82
31	1	704	9	2	2	0.1542	0.0500	0	1	0.485	0	0	0
31	1	705	1	2	3	0.1542	0.0500	0	1	0.424	93	82	82
31	1	706	1	1	3	0.1542	0.0500	1	1	0.496	85	82	0
31	1	707	0	1	2	0.1542	0.0500	1	1	0.439	9	0	82
31	1	708	0	1	3	0.1542	0.0500	0	0	0.431	0	0	0
31	1	709	0	1	3	0.1542	0.0500	0	1	0.326	10	0	0
31	1	710	1	2	3	0.1542	0.0500	1	1	0.778	57	0	82
31	1	711	9	2	2	0.1542	0.0500	0	1	0.517	0	0	0
31	1	712	9	2	2	0.1542	0.0500	1	1	0.490	0	0	82
31	1	713	1	1	3	0.1542	0.0500	0	1	0.417	93	82	82
31	1	714	1	2	2	0.1542	0.0500	1	1	0.499	85	0	82
31	1	715	0	2	3	0.1542	0.0500	1	1	0.847	5	82	0
31	1	716	1	1	3	0.1542	0.0500	0	1	0.275	100	82	82
31	1	717	0	2	2	0.1542	0.0500	1	1	0.722	6	82	0
31	1	718	1	1	1	0.1542	0.0500	0	1	0.405	95	82	82
31	1	719	9	1	2	0.1542	0.0500	1	1	0.476	0	82	0
31	1	720	0	1	2	0.1542	0.0500	0	1	0.312	10	0	0
