sub	sess	t	rew	loc	cue	co1	co2	or	resp	rt	rew_tot	left_col	right_col
136	1	1	1	2	2	0.2193	0.2987	0	1	1.912	50	0	0
136	1	2	0	1	1	0.2193	0.2987	1	1	1.666	5	82	0
136	1	3	9	2	3	0.2193	0.2987	1	1	1.367	0	0	82
136	1	4	0	2	2	0.2193	0.2987	0	1	0.805	5	82	82
136	1	5	9	2	3	0.2193	0.2987	0	1	1.313	0	0	0
136	1	6	9	2	2	0.2193	0.2987	1	1	0.939	0	82	0
136	1	7	1	1	3	0.2193	0.2987	1	1	0.884	50	0	82
136	1	8	0	1	1	0.2193	0.2987	0	1	0.715	6	82	82
136	1	9	0	2	3	0.2193	0.2987	1	1	1.758	5	0	82
136	1	10	0	1	1	0.2193	0.2987	0	1	0.654	7	82	82
136	1	11	0	2	1	0.2193	0.2987	1	1	0.556	8	0	82
136	1	12	0	1	3	0.2193	0.2987	0	1	0.625	7	82	82
136	1	13	1	2	2	0.2193	0.2987	1	1	0.632	72	82	0
136	1	14	1	1	1	0.2193	0.2987	0	1	0.982	50	0	0
136	1	15	0	1	1	0.2193	0.2987	0	1	0.731	6	82	82
136	1	16	1	1	3	0.2193	0.2987	1	1	0.961	50	0	82
136	1	17	1	1	3	0.2193	0.2987	0	1	0.658	69	0	0
136	1	18	1	2	2	0.2193	0.2987	0	1	0.662	69	0	0
136	1	19	1	1	3	0.2193	0.2987	0	1	0.630	72	0	0
136	1	20	0	2	3	0.2193	0.2987	1	1	0.547	8	0	82
136	1	21	0	2	2	0.2193	0.2987	1	1	0.756	6	0	82
136	1	22	1	1	3	0.2193	0.2987	1	1	0.639	71	0	82
136	1	23	0	1	1	0.2193	0.2987	1	1	0.701	6	82	0
136	1	24	9	2	2	0.2193	0.2987	0	1	0.523	0	82	82
136	1	25	9	2	2	0.2193	0.2987	1	1	0.541	0	82	0
136	1	26	1	2	3	0.2193	0.2987	1	1	0.875	50	82	0
136	1	27	0	1	1	0.2193	0.2987	1	1	0.757	6	82	0
136	1	28	1	1	3	0.2193	0.2987	1	1	0.566	78	0	82
136	1	29	9	1	3	0.2193	0.2987	1	1	0.586	0	82	0
136	1	30	1	2	3	0.2193	0.2987	1	1	0.633	72	82	0
136	1	31	9	2	3	0.2193	0.2987	1	1	0.974	0	0	82
136	1	32	9	1	3	0.2193	0.2987	1	1	0.683	0	82	0
136	1	33	9	1	3	0.2193	0.2987	1	1	0.538	0	0	82
136	1	34	9	1	1	0.2193	0.2987	1	1	0.957	0	0	82
136	1	35	0	2	2	0.2193	0.2987	0	1	0.613	7	82	82
136	1	36	1	2	2	0.2193	0.2987	0	1	0.719	63	0	0
136	1	37	1	2	3	0.2193	0.2987	1	1	0.638	71	82	0
136	1	38	1	2	2	0.2193	0.2987	0	1	0.611	74	0	0
136	1	39	0	2	3	0.2193	0.2987	0	1	0.668	7	82	82
136	1	40	0	2	3	0.2193	0.2987	1	1	0.431	9	0	82
136	1	41	9	2	2	0.2193	0.2987	0	0	4.346	0	82	82
136	1	42	1	1	3	0.2193	0.2987	0	1	1.038	50	0	0
136	1	43	1	1	1	0.2193	0.2987	1	1	0.774	58	0	82
136	1	44	0	2	3	0.2193	0.2987	0	1	0.626	7	82	82
136	1	45	9	1	1	0.2193	0.2987	0	1	0.748	0	82	82
136	1	46	1	2	1	0.2193	0.2987	0	1	0.935	50	0	0
136	1	47	1	1	1	0.2193	0.2987	1	1	0.614	74	0	82
136	1	48	1	1	1	0.2193	0.2987	0	1	0.537	81	0	0
136	1	49	1	2	3	0.2193	0.2987	1	1	0.658	69	82	0
136	1	50	0	1	2	0.2193	0.2987	1	1	0.807	5	82	0
136	1	51	0	1	3	0.2193	0.2987	0	1	0.498	9	82	82
136	1	52	1	2	2	0.2193	0.2987	1	1	0.473	88	82	0
136	1	53	9	1	1	0.2193	0.2987	0	1	0.502	0	0	0
136	1	54	9	2	2	0.2193	0.2987	0	1	0.568	0	0	0
136	1	55	1	2	3	0.2193	0.2987	0	1	0.727	62	0	0
136	1	56	9	1	3	0.2193	0.2987	1	1	1.181	0	82	0
136	1	57	9	2	3	0.2193	0.2987	1	1	0.727	0	0	82
136	1	58	9	1	1	0.2193	0.2987	0	1	0.576	0	82	82
136	1	59	1	2	2	0.2193	0.2987	0	1	0.697	65	0	0
136	1	60	9	1	1	0.2193	0.2987	0	1	0.565	0	0	0
136	1	61	1	1	3	0.2193	0.2987	0	1	1.452	50	0	0
136	1	62	0	1	3	0.2193	0.2987	0	1	0.561	8	82	82
136	1	63	1	2	3	0.2193	0.2987	1	1	0.567	78	82	0
136	1	64	0	2	2	0.2193	0.2987	0	1	0.859	5	82	82
136	1	65	1	2	3	0.2193	0.2987	0	1	1.200	50	0	0
136	1	66	0	1	2	0.2193	0.2987	0	1	1.012	5	82	82
136	1	67	1	2	1	0.2193	0.2987	1	1	0.694	66	82	0
136	1	68	0	1	3	0.2193	0.2987	0	1	0.727	6	82	82
136	1	69	9	2	3	0.2193	0.2987	0	1	1.382	0	0	0
136	1	70	9	2	1	0.2193	0.2987	1	1	3.724	0	0	82
136	1	71	0	1	1	0.2193	0.2987	0	1	0.603	7	82	82
136	1	72	1	2	2	0.2193	0.2987	1	1	0.759	59	82	0
136	1	73	0	2	2	0.2193	0.2987	0	1	0.714	6	82	82
136	1	74	9	1	3	0.2193	0.2987	1	1	0.757	0	0	82
136	1	75	0	1	1	0.2193	0.2987	0	1	0.597	8	82	82
136	1	76	0	2	1	0.2193	0.2987	0	1	0.905	5	82	82
136	1	77	1	1	3	0.2193	0.2987	0	1	0.922	50	0	0
136	1	78	0	2	3	0.2193	0.2987	1	1	0.638	7	0	82
136	1	79	0	1	1	0.2193	0.2987	1	1	0.965	5	82	0
136	1	80	0	2	2	0.2193	0.2987	0	1	0.691	7	82	82
136	1	81	0	1	3	0.2193	0.2987	0	1	1.560	5	82	82
136	1	82	1	2	3	0.2193	0.2987	1	1	0.685	67	82	0
136	1	83	0	2	2	0.2193	0.2987	0	1	0.585	8	82	82
136	1	84	1	1	1	0.2193	0.2987	0	1	0.670	68	0	0
136	1	85	0	1	1	0.2193	0.2987	1	1	0.685	7	82	0
136	1	86	0	1	1	0.2193	0.2987	0	1	0.619	7	82	82
136	1	87	0	2	2	0.2193	0.2987	0	1	1.286	5	82	82
136	1	88	0	2	3	0.2193	0.2987	0	1	0.536	8	82	82
136	1	89	0	1	3	0.2193	0.2987	1	1	1.013	5	82	0
136	1	90	9	1	3	0.2193	0.2987	0	1	0.537	0	82	82
136	1	91	1	2	2	0.2193	0.2987	0	1	0.656	69	0	0
136	1	92	9	2	3	0.2193	0.2987	0	1	1.203	0	82	82
136	1	93	0	1	3	0.2193	0.2987	1	1	0.596	8	82	0
136	1	94	1	2	3	0.2193	0.2987	1	1	0.867	50	82	0
136	1	95	0	2	3	0.2193	0.2987	1	1	1.090	5	0	82
136	1	96	1	1	3	0.2193	0.2987	0	1	0.573	78	0	0
136	1	97	1	2	3	0.2193	0.2987	0	1	0.745	61	0	0
136	1	98	1	1	1	0.2193	0.2987	0	1	0.725	62	0	0
136	1	99	9	2	2	0.2193	0.2987	0	1	1.699	0	0	0
136	1	100	1	1	1	0.2193	0.2987	0	1	0.627	72	0	0
136	1	101	1	2	2	0.2193	0.2987	1	1	0.666	68	82	0
136	1	102	0	2	3	0.2193	0.2987	1	1	0.530	8	0	82
136	1	103	0	1	3	0.2193	0.2987	1	1	0.629	7	82	0
136	1	104	1	1	3	0.2193	0.2987	1	1	0.596	75	0	82
136	1	105	9	1	3	0.2193	0.2987	0	1	0.583	0	82	82
136	1	106	0	2	2	0.2193	0.2987	0	1	0.794	6	82	82
136	1	107	1	2	2	0.2193	0.2987	1	1	0.643	71	82	0
136	1	108	1	1	3	0.2193	0.2987	0	1	0.617	73	0	0
136	1	109	0	1	1	0.2193	0.2987	1	1	0.625	7	82	0
136	1	110	0	1	1	0.2193	0.2987	1	1	0.971	5	82	0
136	1	111	1	1	2	0.2193	0.2987	1	1	1.496	50	0	82
136	1	112	9	1	3	0.2193	0.2987	0	1	0.856	0	82	82
136	1	113	9	2	3	0.2193	0.2987	1	1	0.636	0	82	0
136	1	114	0	1	2	0.2193	0.2987	1	1	0.766	6	82	0
136	1	115	1	2	3	0.2193	0.2987	1	1	0.543	81	82	0
136	1	116	1	2	1	0.2193	0.2987	1	1	0.563	79	82	0
136	1	117	0	2	2	0.2193	0.2987	1	1	0.561	8	0	82
136	1	118	0	2	2	0.2193	0.2987	1	1	0.491	9	0	82
136	1	119	1	2	2	0.2193	0.2987	1	1	0.487	86	82	0
136	1	120	9	1	1	0.2193	0.2987	0	1	0.766	0	82	82
136	1	121	1	2	3	0.2193	0.2987	0	1	0.793	56	0	0
136	1	122	9	1	2	0.2193	0.2987	0	1	0.813	0	0	0
136	1	123	9	1	1	0.2193	0.2987	1	1	0.733	0	82	0
136	1	124	0	1	1	0.2193	0.2987	1	1	0.610	7	82	0
136	1	125	0	1	1	0.2193	0.2987	1	1	0.711	6	82	0
136	1	126	0	2	2	0.2193	0.2987	1	1	0.661	7	0	82
136	1	127	0	2	2	0.2193	0.2987	1	1	0.636	7	0	82
136	1	128	1	2	3	0.2193	0.2987	0	1	0.849	50	0	0
136	1	129	0	1	3	0.2193	0.2987	0	1	0.612	7	82	82
136	1	130	9	1	2	0.2193	0.2987	1	1	0.751	0	82	0
136	1	131	1	1	3	0.2193	0.2987	1	1	0.622	73	0	82
136	1	132	1	1	3	0.2193	0.2987	1	1	0.593	76	0	82
136	1	133	1	2	3	0.2193	0.2987	0	1	0.804	55	0	0
136	1	134	1	2	2	0.2193	0.2987	1	1	0.536	81	82	0
136	1	135	0	2	3	0.2193	0.2987	0	1	0.639	7	82	82
136	1	136	1	2	2	0.2193	0.2987	1	1	0.694	66	82	0
136	1	137	0	1	1	0.2193	0.2987	0	1	0.554	8	82	82
136	1	138	0	2	3	0.2193	0.2987	0	1	1.723	5	82	82
136	1	139	1	2	3	0.2193	0.2987	0	1	0.720	63	0	0
136	1	140	1	2	3	0.2193	0.2987	0	1	1.680	50	0	0
136	1	141	9	2	3	0.2193	0.2987	1	1	2.117	0	82	0
136	1	142	1	1	2	0.2193	0.2987	1	1	0.622	73	0	82
136	1	143	0	1	1	0.2193	0.2987	1	1	0.655	7	82	0
136	1	144	1	1	2	0.2193	0.2987	1	1	0.489	86	0	82
136	1	145	1	1	1	0.2193	0.2987	0	1	0.716	63	0	0
136	1	146	0	2	3	0.2193	0.2987	0	1	0.752	6	82	82
136	1	147	1	1	1	0.2193	0.2987	1	1	0.513	84	0	82
136	1	148	1	1	1	0.2193	0.2987	0	1	0.817	53	0	0
136	1	149	0	2	3	0.2193	0.2987	0	1	0.738	6	82	82
136	1	150	0	1	3	0.2193	0.2987	0	1	0.559	8	82	82
136	1	151	0	1	1	0.2193	0.2987	0	1	0.487	9	82	82
136	1	152	1	2	3	0.2193	0.2987	0	1	0.738	61	0	0
136	1	153	0	2	2	0.2193	0.2987	0	1	0.553	8	82	82
136	1	154	1	1	3	0.2193	0.2987	1	1	0.568	78	0	82
136	1	155	1	2	3	0.2193	0.2987	0	1	0.986	50	0	0
136	1	156	9	2	3	0.2193	0.2987	0	1	0.528	0	82	82
136	1	157	0	2	2	0.2193	0.2987	1	1	0.569	8	0	82
136	1	158	0	1	3	0.2193	0.2987	1	1	1.016	5	82	0
136	1	159	1	2	2	0.2193	0.2987	0	1	0.569	78	0	0
136	1	160	1	2	3	0.2193	0.2987	0	1	0.541	81	0	0
136	1	161	9	2	3	0.2193	0.2987	0	1	0.761	0	0	0
136	1	162	0	2	1	0.2193	0.2987	0	1	0.548	8	82	82
136	1	163	0	2	2	0.2193	0.2987	1	1	0.616	7	0	82
136	1	164	1	1	1	0.2193	0.2987	1	1	1.101	50	0	82
136	1	165	9	2	3	0.2193	0.2987	1	1	0.707	0	82	0
136	1	166	1	1	3	0.2193	0.2987	0	1	0.579	77	0	0
136	1	167	1	2	2	0.2193	0.2987	0	1	1.148	50	0	0
136	1	168	0	2	1	0.2193	0.2987	1	1	0.535	8	0	82
136	1	169	1	1	3	0.2193	0.2987	0	1	0.635	72	0	0
136	1	170	9	2	2	0.2193	0.2987	0	1	1.020	0	0	0
136	1	171	1	2	2	0.2193	0.2987	0	1	0.676	67	0	0
136	1	172	0	1	3	0.2193	0.2987	1	1	0.567	8	82	0
136	1	173	0	2	3	0.2193	0.2987	0	1	0.650	7	82	82
136	1	174	1	2	1	0.2193	0.2987	0	1	0.769	58	0	0
136	1	175	0	1	3	0.2193	0.2987	0	1	0.669	7	82	82
136	1	176	0	1	1	0.2193	0.2987	0	1	0.585	8	82	82
136	1	177	9	2	3	0.2193	0.2987	0	1	0.893	0	0	0
136	1	178	0	2	2	0.2193	0.2987	1	1	0.575	8	0	82
136	1	179	1	1	2	0.2193	0.2987	0	1	0.690	66	0	0
136	1	180	1	2	2	0.2193	0.2987	0	1	0.727	62	0	0
136	1	181	1	2	2	0.2193	0.2987	0	1	1.032	50	0	0
136	1	182	0	2	3	0.2193	0.2987	0	1	0.561	8	82	82
136	1	183	0	1	3	0.2193	0.2987	0	1	0.514	8	82	82
136	1	184	0	1	3	0.2193	0.2987	1	1	0.821	5	82	0
136	1	185	9	1	1	0.2193	0.2987	0	1	0.631	0	82	82
136	1	186	1	2	1	0.2193	0.2987	0	1	1.095	50	0	0
136	1	187	9	1	3	0.2193	0.2987	0	1	0.547	0	82	82
136	1	188	1	2	2	0.2193	0.2987	1	1	0.537	81	82	0
136	1	189	0	1	1	0.2193	0.2987	1	1	0.640	7	82	0
136	1	190	0	1	1	0.2193	0.2987	1	1	0.615	7	82	0
136	1	191	0	2	3	0.2193	0.2987	1	1	2.543	5	0	82
136	1	192	1	1	1	0.2193	0.2987	1	1	0.717	63	0	82
136	1	193	0	1	3	0.2193	0.2987	0	1	0.506	8	82	82
136	1	194	1	1	1	0.2193	0.2987	1	1	0.556	79	0	82
136	1	195	9	1	3	0.2193	0.2987	0	1	0.607	0	0	0
136	1	196	9	1	2	0.2193	0.2987	1	1	0.856	0	0	82
136	1	197	0	1	3	0.2193	0.2987	1	1	0.676	7	82	0
136	1	198	0	1	1	0.2193	0.2987	0	1	0.584	8	82	82
136	1	199	0	1	3	0.2193	0.2987	1	1	0.720	6	82	0
136	1	200	0	2	2	0.2193	0.2987	0	1	0.600	7	82	82
136	1	201	9	2	2	0.2193	0.2987	1	1	2.168	0	82	0
136	1	202	0	1	3	0.2193	0.2987	0	1	0.494	9	82	82
136	1	203	1	2	3	0.2193	0.2987	1	1	0.460	89	82	0
136	1	204	0	1	1	0.2193	0.2987	0	1	0.457	9	82	82
136	1	205	9	2	1	0.2193	0.2987	0	1	2.013	0	0	0
136	1	206	0	2	3	0.2193	0.2987	0	1	0.592	8	82	82
136	1	207	0	1	2	0.2193	0.2987	0	1	0.527	8	82	82
136	1	208	0	2	2	0.2193	0.2987	0	1	0.553	8	82	82
136	1	209	0	2	3	0.2193	0.2987	1	1	0.482	9	0	82
136	1	210	9	1	3	0.2193	0.2987	0	1	0.672	0	0	0
136	1	211	1	2	2	0.2193	0.2987	1	1	0.497	85	82	0
136	1	212	1	2	3	0.2193	0.2987	1	1	0.469	88	82	0
136	1	213	9	2	3	0.2193	0.2987	1	1	1.039	0	0	82
136	1	214	1	1	3	0.2193	0.2987	1	0	1.822	0	0	82
136	1	215	1	2	2	0.2193	0.2987	1	1	0.731	62	82	0
136	1	216	0	1	2	0.2193	0.2987	0	1	0.599	8	82	82
136	1	217	1	1	3	0.2193	0.2987	0	1	0.487	86	0	0
136	1	218	1	2	3	0.2193	0.2987	1	1	0.703	65	82	0
136	1	219	0	2	1	0.2193	0.2987	1	1	1.108	5	0	82
136	1	220	0	1	1	0.2193	0.2987	1	1	0.939	5	82	0
136	1	221	9	2	1	0.2193	0.2987	0	1	0.785	0	82	82
136	1	222	1	2	2	0.2193	0.2987	1	1	0.478	87	82	0
136	1	223	9	1	3	0.2193	0.2987	0	1	0.657	0	0	0
136	1	224	9	2	2	0.2193	0.2987	1	1	0.501	0	0	82
136	1	225	9	2	2	0.2193	0.2987	1	1	0.409	0	0	82
136	1	226	9	1	1	0.2193	0.2987	0	1	0.466	0	0	0
136	1	227	9	1	1	0.2193	0.2987	1	1	0.477	0	0	82
136	1	228	0	1	3	0.2193	0.2987	0	1	0.454	9	82	82
136	1	229	0	1	3	0.2193	0.2987	1	0	0.565	0	82	0
136	1	230	0	1	3	0.2193	0.2987	0	1	1.483	5	82	82
136	1	231	1	1	3	0.2193	0.2987	1	1	0.641	71	0	82
136	1	232	1	2	3	0.2193	0.2987	1	1	0.511	84	82	0
136	1	233	0	2	3	0.2193	0.2987	0	1	0.607	7	82	82
136	1	234	0	1	1	0.2193	0.2987	0	1	0.636	7	82	82
136	1	235	9	2	1	0.2193	0.2987	1	1	0.530	0	82	0
136	1	236	1	1	1	0.2193	0.2987	0	1	0.634	72	0	0
136	1	237	1	1	1	0.2193	0.2987	1	1	0.749	60	0	82
136	1	238	1	2	1	0.2193	0.2987	1	1	0.650	70	82	0
136	1	239	0	2	2	0.2193	0.2987	0	1	0.719	6	82	82
136	1	240	0	2	2	0.2193	0.2987	1	1	0.707	6	0	82
136	1	241	1	1	1	0.2193	0.2987	1	1	0.762	59	0	82
136	1	242	1	1	3	0.2193	0.2987	0	1	0.704	65	0	0
136	1	243	9	1	1	0.2193	0.2987	0	1	0.667	0	0	0
136	1	244	0	2	1	0.2193	0.2987	0	1	0.737	6	82	82
136	1	245	1	1	3	0.2193	0.2987	0	1	0.519	83	0	0
136	1	246	0	1	3	0.2193	0.2987	1	1	0.841	5	82	0
136	1	247	0	1	3	0.2193	0.2987	1	1	0.713	6	82	0
136	1	248	9	2	2	0.2193	0.2987	1	1	0.685	0	82	0
136	1	249	1	1	2	0.2193	0.2987	0	1	0.631	72	0	0
136	1	250	1	1	1	0.2193	0.2987	0	1	0.514	84	0	0
136	1	251	1	1	3	0.2193	0.2987	0	1	0.577	77	0	0
136	1	252	1	1	3	0.2193	0.2987	1	1	0.617	73	0	82
136	1	253	1	2	2	0.2193	0.2987	1	1	0.563	79	82	0
136	1	254	1	2	1	0.2193	0.2987	1	1	0.816	53	82	0
136	1	255	9	1	1	0.2193	0.2987	1	1	0.720	0	0	82
136	1	256	1	1	1	0.2193	0.2987	1	1	0.559	79	0	82
136	1	257	1	1	1	0.2193	0.2987	0	1	0.517	83	0	0
136	1	258	1	2	3	0.2193	0.2987	0	1	0.810	54	0	0
136	1	259	0	1	2	0.2193	0.2987	1	1	0.839	5	82	0
136	1	260	0	1	1	0.2193	0.2987	1	1	0.762	6	82	0
136	1	261	0	1	3	0.2193	0.2987	0	1	0.622	7	82	82
136	1	262	9	1	3	0.2193	0.2987	0	1	0.560	0	0	0
136	1	263	1	2	3	0.2193	0.2987	1	1	0.491	86	82	0
136	1	264	9	2	3	0.2193	0.2987	0	1	0.883	0	82	82
136	1	265	9	2	3	0.2193	0.2987	0	1	0.644	0	82	82
136	1	266	9	2	2	0.2193	0.2987	1	1	0.529	0	0	82
136	1	267	1	1	3	0.2193	0.2987	0	1	0.600	75	0	0
136	1	268	0	2	3	0.2193	0.2987	1	1	0.651	7	0	82
136	1	269	1	1	2	0.2193	0.2987	0	1	0.537	81	0	0
136	1	270	0	2	2	0.2193	0.2987	1	1	0.495	9	0	82
136	1	271	9	1	1	0.2193	0.2987	1	1	0.774	0	82	0
136	1	272	0	2	3	0.2193	0.2987	1	1	1.831	5	0	82
136	1	273	1	2	3	0.2193	0.2987	1	1	0.510	84	82	0
136	1	274	1	2	2	0.2193	0.2987	0	1	0.609	74	0	0
136	1	275	1	1	3	0.2193	0.2987	0	1	0.850	50	0	0
136	1	276	1	1	1	0.2193	0.2987	1	1	0.606	74	0	82
136	1	277	0	2	3	0.2193	0.2987	0	1	0.687	7	82	82
136	1	278	0	1	1	0.2193	0.2987	0	1	0.600	7	82	82
136	1	279	9	1	3	0.2193	0.2987	1	1	0.873	0	0	82
136	1	280	0	1	2	0.2193	0.2987	0	1	0.602	7	82	82
136	1	281	0	1	1	0.2193	0.2987	1	1	1.858	5	82	0
136	1	282	1	2	3	0.2193	0.2987	0	1	0.564	79	0	0
136	1	283	1	2	2	0.2193	0.2987	1	1	0.490	86	82	0
136	1	284	1	1	3	0.2193	0.2987	1	1	0.829	52	0	82
136	1	285	0	2	3	0.2193	0.2987	0	1	0.780	6	82	82
136	1	286	1	2	2	0.2193	0.2987	0	1	0.502	85	0	0
136	1	287	9	2	2	0.2193	0.2987	0	1	0.797	0	82	82
136	1	288	0	2	3	0.2193	0.2987	1	1	0.563	8	0	82
136	1	289	1	1	2	0.2193	0.2987	1	1	0.825	52	0	82
136	1	290	9	1	3	0.2193	0.2987	1	1	0.463	0	0	82
136	1	291	0	1	2	0.2193	0.2987	1	1	0.640	7	82	0
136	1	292	0	2	2	0.2193	0.2987	1	1	0.787	6	0	82
136	1	293	0	2	2	0.2193	0.2987	1	1	0.519	8	0	82
136	1	294	1	1	1	0.2193	0.2987	0	1	0.656	69	0	0
136	1	295	0	1	3	0.2193	0.2987	1	1	0.683	7	82	0
136	1	296	0	1	1	0.2193	0.2987	1	1	0.551	8	82	0
136	1	297	0	1	3	0.2193	0.2987	1	1	0.575	8	82	0
136	1	298	1	1	1	0.2193	0.2987	1	1	0.466	88	0	82
136	1	299	9	2	3	0.2193	0.2987	1	1	0.481	0	82	0
136	1	300	1	2	3	0.2193	0.2987	1	1	0.494	86	82	0
136	1	301	1	1	3	0.2193	0.2987	1	1	0.918	50	0	82
136	1	302	1	1	3	0.2193	0.2987	0	1	0.496	85	0	0
136	1	303	0	1	3	0.2193	0.2987	1	1	0.657	7	82	0
136	1	304	1	2	2	0.2193	0.2987	1	1	0.512	84	82	0
136	1	305	9	1	3	0.2193	0.2987	1	1	0.560	0	82	0
136	1	306	0	2	2	0.2193	0.2987	0	1	0.542	8	82	82
136	1	307	1	2	2	0.2193	0.2987	0	0	0.544	0	0	0
136	1	308	1	2	3	0.2193	0.2987	0	1	0.760	59	0	0
136	1	309	1	1	2	0.2193	0.2987	0	1	0.536	81	0	0
136	1	310	1	1	1	0.2193	0.2987	0	1	0.628	72	0	0
136	1	311	0	1	3	0.2193	0.2987	0	1	0.597	8	82	82
136	1	312	1	1	1	0.2193	0.2987	0	1	0.698	65	0	0
136	1	313	9	1	2	0.2193	0.2987	0	1	0.612	0	82	82
136	1	314	0	1	3	0.2193	0.2987	1	1	0.868	5	82	0
136	1	315	0	1	1	0.2193	0.2987	0	1	0.602	7	82	82
136	1	316	0	1	3	0.2193	0.2987	1	1	0.897	5	82	0
136	1	317	9	1	1	0.2193	0.2987	1	1	0.638	0	82	0
136	1	318	9	1	1	0.2193	0.2987	1	1	0.634	0	0	82
136	1	319	1	1	1	0.2193	0.2987	1	1	0.479	87	0	82
136	1	320	0	2	3	0.2193	0.2987	1	1	1.110	5	0	82
136	1	321	0	2	2	0.2193	0.2987	1	1	0.956	5	0	82
136	1	322	9	2	2	0.2193	0.2987	0	1	0.592	0	82	82
136	1	323	0	1	3	0.2193	0.2987	0	1	0.470	9	82	82
136	1	324	1	1	1	0.2193	0.2987	0	1	0.521	83	0	0
136	1	325	0	2	3	0.2193	0.2987	1	1	0.555	8	0	82
136	1	326	1	2	3	0.2193	0.2987	0	1	0.652	70	0	0
136	1	327	9	2	2	0.2193	0.2987	1	1	0.483	0	0	82
136	1	328	0	2	3	0.2193	0.2987	0	1	0.738	6	82	82
136	1	329	0	2	3	0.2193	0.2987	1	1	0.971	5	0	82
136	1	330	0	2	2	0.2193	0.2987	0	1	0.647	7	82	82
136	1	331	0	2	2	0.2193	0.2987	1	1	0.491	9	0	82
136	1	332	0	2	1	0.2193	0.2987	1	1	0.605	7	0	82
136	1	333	1	1	1	0.2193	0.2987	1	1	0.893	50	0	82
136	1	334	1	1	1	0.2193	0.2987	1	1	0.657	69	0	82
136	1	335	1	1	3	0.2193	0.2987	1	1	0.494	86	0	82
136	1	336	0	2	3	0.2193	0.2987	0	1	0.581	8	82	82
136	1	337	0	1	1	0.2193	0.2987	0	1	0.589	8	82	82
136	1	338	1	1	3	0.2193	0.2987	1	1	0.575	77	0	82
136	1	339	1	2	3	0.2193	0.2987	1	1	0.738	61	82	0
136	1	340	1	2	2	0.2193	0.2987	0	1	0.567	78	0	0
136	1	341	0	2	1	0.2193	0.2987	0	1	3.659	5	82	82
136	1	342	0	2	3	0.2193	0.2987	1	1	0.522	8	0	82
136	1	343	0	2	2	0.2193	0.2987	1	1	0.631	7	0	82
136	1	344	0	2	3	0.2193	0.2987	0	1	0.586	8	82	82
136	1	345	0	2	2	0.2193	0.2987	1	1	0.506	8	0	82
136	1	346	1	1	3	0.2193	0.2987	1	1	0.531	82	0	82
136	1	347	1	1	1	0.2193	0.2987	0	1	0.550	80	0	0
136	1	348	9	2	2	0.2193	0.2987	0	1	1.771	0	0	0
136	1	349	1	2	1	0.2193	0.2987	0	1	0.982	50	0	0
136	1	350	1	2	2	0.2193	0.2987	0	1	0.601	75	0	0
136	1	351	1	1	1	0.2193	0.2987	0	1	0.651	70	0	0
136	1	352	0	1	1	0.2193	0.2987	0	1	0.501	8	82	82
136	1	353	0	2	2	0.2193	0.2987	0	1	0.515	8	82	82
136	1	354	1	1	1	0.2193	0.2987	1	1	0.560	79	0	82
136	1	355	1	2	3	0.2193	0.2987	0	1	0.534	82	0	0
136	1	356	0	2	2	0.2193	0.2987	0	1	0.574	8	82	82
136	1	357	0	2	3	0.2193	0.2987	1	1	0.751	6	0	82
136	1	358	9	1	1	0.2193	0.2987	1	0	0.505	0	82	0
136	1	359	1	1	1	0.2193	0.2987	1	1	0.869	50	0	82
136	1	360	1	2	2	0.2193	0.2987	1	1	0.704	65	82	0
136	1	361	1	1	1	0.2193	0.2987	1	1	0.593	76	0	82
136	1	362	1	2	3	0.2193	0.2987	0	1	0.590	76	0	0
136	1	363	1	2	2	0.2193	0.2987	1	1	0.468	88	82	0
136	1	364	0	2	2	0.2193	0.2987	1	1	0.587	8	0	82
136	1	365	0	1	2	0.2193	0.2987	1	1	0.574	8	82	0
136	1	366	0	1	1	0.2193	0.2987	0	1	0.677	7	82	82
136	1	367	1	1	3	0.2193	0.2987	1	1	0.803	55	0	82
136	1	368	0	2	3	0.2193	0.2987	0	1	0.796	6	82	82
136	1	369	0	1	3	0.2193	0.2987	1	1	0.713	6	82	0
136	1	370	0	1	3	0.2193	0.2987	1	1	0.655	7	82	0
136	1	371	0	1	1	0.2193	0.2987	1	1	0.556	8	82	0
136	1	372	1	2	2	0.2193	0.2987	1	1	0.799	55	82	0
136	1	373	1	2	3	0.2193	0.2987	0	1	1.207	50	0	0
136	1	374	0	1	3	0.2193	0.2987	0	1	0.590	8	82	82
136	1	375	1	2	2	0.2193	0.2987	0	1	0.674	68	0	0
136	1	376	0	1	1	0.2193	0.2987	0	1	0.556	8	82	82
136	1	377	1	1	2	0.2193	0.2987	0	1	0.706	64	0	0
136	1	378	0	2	3	0.2193	0.2987	1	1	0.563	8	0	82
136	1	379	0	1	1	0.2193	0.2987	0	1	0.473	9	82	82
136	1	380	1	2	2	0.2193	0.2987	0	1	0.759	59	0	0
136	1	381	1	1	3	0.2193	0.2987	1	1	0.831	52	0	82
136	1	382	1	1	1	0.2193	0.2987	0	1	0.477	87	0	0
136	1	383	0	1	1	0.2193	0.2987	1	1	0.591	8	82	0
136	1	384	9	2	2	0.2193	0.2987	0	1	0.585	0	0	0
136	1	385	1	1	1	0.2193	0.2987	0	1	0.500	85	0	0
136	1	386	1	1	2	0.2193	0.2987	1	1	0.608	74	0	82
136	1	387	1	1	1	0.2193	0.2987	1	1	0.653	70	0	82
136	1	388	0	1	3	0.2193	0.2987	0	1	0.556	8	82	82
136	1	389	9	1	1	0.2193	0.2987	0	1	0.692	0	82	82
136	1	390	1	1	3	0.2193	0.2987	1	1	0.666	68	0	82
136	1	391	0	2	2	0.2193	0.2987	1	1	1.346	5	0	82
136	1	392	9	1	1	0.2193	0.2987	1	1	1.570	0	0	82
136	1	393	0	1	3	0.2193	0.2987	0	1	0.707	6	82	82
136	1	394	1	2	2	0.2193	0.2987	0	1	1.187	50	0	0
136	1	395	9	2	3	0.2193	0.2987	0	1	0.595	0	82	82
136	1	396	0	2	3	0.2193	0.2987	0	1	0.659	7	82	82
136	1	397	1	2	3	0.2193	0.2987	0	1	0.505	85	0	0
136	1	398	1	1	1	0.2193	0.2987	1	1	0.536	81	0	82
136	1	399	0	2	3	0.2193	0.2987	1	1	0.664	7	0	82
136	1	400	1	1	3	0.2193	0.2987	1	1	0.686	66	0	82
136	1	401	1	2	2	0.2193	0.2987	0	1	1.183	50	0	0
136	1	402	1	2	1	0.2193	0.2987	1	1	0.811	54	82	0
136	1	403	9	1	3	0.2193	0.2987	1	1	0.649	0	0	82
136	1	404	0	2	2	0.2193	0.2987	1	1	0.621	7	0	82
136	1	405	9	2	2	0.2193	0.2987	0	1	0.557	0	0	0
136	1	406	9	2	3	0.2193	0.2987	0	1	0.536	0	0	0
136	1	407	1	1	3	0.2193	0.2987	0	1	0.547	80	0	0
136	1	408	9	2	3	0.2193	0.2987	1	1	0.641	0	0	82
136	1	409	1	1	3	0.2193	0.2987	1	1	0.802	55	0	82
136	1	410	0	2	2	0.2193	0.2987	0	1	0.891	5	82	82
136	1	411	1	2	2	0.2193	0.2987	1	1	0.704	65	82	0
136	1	412	1	2	3	0.2193	0.2987	0	1	0.671	68	0	0
136	1	413	1	2	2	0.2193	0.2987	1	1	0.487	86	82	0
136	1	414	1	2	1	0.2193	0.2987	0	1	0.738	61	0	0
136	1	415	9	2	3	0.2193	0.2987	0	1	0.692	0	0	0
136	1	416	1	1	1	0.2193	0.2987	1	1	0.590	76	0	82
136	1	417	0	1	3	0.2193	0.2987	1	1	0.634	7	82	0
136	1	418	1	2	2	0.2193	0.2987	1	1	0.570	78	82	0
136	1	419	1	2	1	0.2193	0.2987	1	1	0.523	83	82	0
136	1	420	0	2	3	0.2193	0.2987	0	1	1.173	5	82	82
136	1	421	1	1	3	0.2193	0.2987	1	1	0.611	74	0	82
136	1	422	0	2	1	0.2193	0.2987	0	1	0.785	6	82	82
136	1	423	1	1	3	0.2193	0.2987	0	1	0.613	74	0	0
136	1	424	1	2	3	0.2193	0.2987	0	1	1.583	50	0	0
136	1	425	0	2	2	0.2193	0.2987	0	1	0.582	8	82	82
136	1	426	0	2	1	0.2193	0.2987	0	1	0.804	5	82	82
136	1	427	1	2	1	0.2193	0.2987	1	1	0.463	89	82	0
136	1	428	0	2	1	0.2193	0.2987	1	1	0.503	8	0	82
136	1	429	1	2	3	0.2193	0.2987	1	1	0.588	76	82	0
136	1	430	1	1	1	0.2193	0.2987	1	1	0.941	50	0	82
136	1	431	1	2	3	0.2193	0.2987	0	1	0.568	78	0	0
136	1	432	9	2	2	0.2193	0.2987	0	1	0.543	0	0	0
136	1	433	9	1	3	0.2193	0.2987	0	1	1.090	0	0	0
136	1	434	0	2	2	0.2193	0.2987	1	1	0.472	9	0	82
136	1	435	9	2	1	0.2193	0.2987	1	1	0.697	0	82	0
136	1	436	0	2	3	0.2193	0.2987	1	1	0.526	8	0	82
136	1	437	1	2	2	0.2193	0.2987	0	1	0.677	67	0	0
136	1	438	0	2	3	0.2193	0.2987	1	1	0.549	8	0	82
136	1	439	1	1	3	0.2193	0.2987	0	1	0.920	50	0	0
136	1	440	9	1	2	0.2193	0.2987	1	1	0.920	0	82	0
136	1	441	9	1	1	0.2193	0.2987	0	1	0.582	0	0	0
136	1	442	1	1	1	0.2193	0.2987	0	1	0.475	88	0	0
136	1	443	0	1	1	0.2193	0.2987	0	1	0.492	9	82	82
136	1	444	0	2	2	0.2193	0.2987	1	1	0.026	10	0	82
136	1	445	1	2	3	0.2193	0.2987	0	0	3.351	0	0	0
136	1	446	1	2	2	0.2193	0.2987	0	1	0.599	75	0	0
136	1	447	0	2	3	0.2193	0.2987	1	1	0.775	6	0	82
136	1	448	0	1	1	0.2193	0.2987	0	1	0.475	9	82	82
136	1	449	1	1	1	0.2193	0.2987	1	1	0.913	50	0	82
136	1	450	0	2	2	0.2193	0.2987	0	1	0.801	5	82	82
136	1	451	9	1	1	0.2193	0.2987	0	1	0.528	0	82	82
136	1	452	0	1	1	0.2193	0.2987	1	1	0.617	7	82	0
136	1	453	1	1	3	0.2193	0.2987	0	1	0.839	51	0	0
136	1	454	9	1	1	0.2193	0.2987	1	1	0.533	0	0	82
136	1	455	1	2	3	0.2193	0.2987	1	1	1.336	50	82	0
136	1	456	1	2	2	0.2193	0.2987	0	1	0.607	74	0	0
136	1	457	1	1	1	0.2193	0.2987	1	1	0.564	79	0	82
136	1	458	0	1	1	0.2193	0.2987	1	1	0.640	7	82	0
136	1	459	0	2	3	0.2193	0.2987	1	1	0.598	8	0	82
136	1	460	9	1	3	0.2193	0.2987	1	1	0.756	0	82	0
136	1	461	1	2	3	0.2193	0.2987	0	1	0.833	52	0	0
136	1	462	9	1	1	0.2193	0.2987	1	1	0.745	0	82	0
136	1	463	1	1	3	0.2193	0.2987	0	1	0.523	83	0	0
136	1	464	1	2	2	0.2193	0.2987	1	1	0.878	50	82	0
136	1	465	1	2	3	0.2193	0.2987	1	1	0.498	85	82	0
136	1	466	9	1	1	0.2193	0.2987	0	1	0.668	0	0	0
136	1	467	0	2	3	0.2193	0.2987	0	1	0.764	6	82	82
136	1	468	1	2	2	0.2193	0.2987	0	1	0.544	81	0	0
136	1	469	0	2	3	0.2193	0.2987	0	1	0.530	8	82	82
136	1	470	1	1	3	0.2193	0.2987	0	1	0.507	84	0	0
136	1	471	9	1	1	0.2193	0.2987	1	1	0.615	0	82	0
136	1	472	9	2	3	0.2193	0.2987	1	1	0.760	0	82	0
136	1	473	0	1	3	0.2193	0.2987	0	1	0.522	8	82	82
136	1	474	1	2	3	0.2193	0.2987	1	1	0.538	81	82	0
136	1	475	0	2	3	0.2193	0.2987	0	1	1.348	5	82	82
136	1	476	0	1	1	0.2193	0.2987	1	1	0.649	7	82	0
136	1	477	0	2	3	0.2193	0.2987	0	1	0.690	7	82	82
136	1	478	0	1	3	0.2193	0.2987	0	1	0.486	9	82	82
136	1	479	0	1	3	0.2193	0.2987	1	1	0.540	8	82	0
136	1	480	0	1	1	0.2193	0.2987	0	1	0.503	8	82	82
136	1	481	9	2	3	0.2193	0.2987	0	1	1.463	0	0	0
136	1	482	9	2	1	0.2193	0.2987	0	1	0.807	0	0	0
136	1	483	0	2	3	0.2193	0.2987	0	1	0.544	8	82	82
136	1	484	9	1	1	0.2193	0.2987	0	1	0.606	0	82	82
136	1	485	0	1	3	0.2193	0.2987	1	1	0.542	8	82	0
136	1	486	1	1	1	0.2193	0.2987	0	1	0.525	82	0	0
136	1	487	0	1	3	0.2193	0.2987	0	1	0.483	9	82	82
136	1	488	9	2	3	0.2193	0.2987	0	1	0.762	0	0	0
136	1	489	0	1	1	0.2193	0.2987	1	1	1.365	5	82	0
136	1	490	0	1	3	0.2193	0.2987	0	1	0.429	9	82	82
136	1	491	1	2	3	0.2193	0.2987	1	1	0.545	80	82	0
136	1	492	9	2	2	0.2193	0.2987	1	1	0.685	0	0	82
136	1	493	9	1	1	0.2193	0.2987	1	0	0.848	0	82	0
136	1	494	1	1	1	0.2193	0.2987	1	1	1.012	50	0	82
136	1	495	1	2	2	0.2193	0.2987	1	1	0.773	58	82	0
136	1	496	1	1	2	0.2193	0.2987	0	1	0.984	50	0	0
136	1	497	1	1	3	0.2193	0.2987	1	1	0.543	81	0	82
136	1	498	0	2	3	0.2193	0.2987	1	1	0.631	7	0	82
136	1	499	0	2	3	0.2193	0.2987	1	1	0.442	9	0	82
136	1	500	9	2	3	0.2193	0.2987	1	1	0.529	0	0	82
136	1	501	1	2	3	0.2193	0.2987	1	1	0.714	64	82	0
136	1	502	0	2	2	0.2193	0.2987	0	1	0.780	6	82	82
136	1	503	1	2	3	0.2193	0.2987	0	1	0.612	74	0	0
136	1	504	1	2	2	0.2193	0.2987	1	1	0.692	66	82	0
136	1	505	9	1	3	0.2193	0.2987	0	1	0.480	0	82	82
136	1	506	1	1	1	0.2193	0.2987	0	1	0.497	85	0	0
136	1	507	1	1	1	0.2193	0.2987	0	1	0.460	89	0	0
136	1	508	9	1	3	0.2193	0.2987	0	1	0.604	0	82	82
136	1	509	0	2	2	0.2193	0.2987	1	1	0.594	8	0	82
136	1	510	1	1	2	0.2193	0.2987	0	1	0.603	75	0	0
136	1	511	1	1	1	0.2193	0.2987	0	1	0.422	93	0	0
136	1	512	1	2	3	0.2193	0.2987	1	1	0.497	85	82	0
136	1	513	0	1	1	0.2193	0.2987	0	1	0.495	9	82	82
136	1	514	0	2	2	0.2193	0.2987	1	1	0.871	5	0	82
136	1	515	9	2	2	0.2193	0.2987	0	1	0.670	0	0	0
136	1	516	1	1	3	0.2193	0.2987	0	1	0.526	82	0	0
136	1	517	0	2	2	0.2193	0.2987	1	1	0.494	9	0	82
136	1	518	1	1	3	0.2193	0.2987	1	1	1.381	50	0	82
136	1	519	0	1	3	0.2193	0.2987	0	1	0.469	9	82	82
136	1	520	9	2	2	0.2193	0.2987	0	1	0.883	0	82	82
136	1	521	0	1	1	0.2193	0.2987	1	1	1.659	5	82	0
136	1	522	1	2	3	0.2193	0.2987	1	1	0.479	87	82	0
136	1	523	1	2	3	0.2193	0.2987	0	1	0.548	80	0	0
136	1	524	1	1	3	0.2193	0.2987	1	1	0.621	73	0	82
136	1	525	0	1	2	0.2193	0.2987	0	1	0.482	9	82	82
136	1	526	9	2	3	0.2193	0.2987	1	1	0.521	0	0	82
136	1	527	1	1	1	0.2193	0.2987	1	1	0.613	74	0	82
136	1	528	0	1	1	0.2193	0.2987	0	1	0.649	7	82	82
136	1	529	1	1	3	0.2193	0.2987	1	1	0.651	70	0	82
136	1	530	9	2	2	0.2193	0.2987	0	1	0.527	0	82	82
136	1	531	0	1	1	0.2193	0.2987	1	1	0.481	9	82	0
136	1	532	9	2	3	0.2193	0.2987	0	1	0.761	0	82	82
136	1	533	1	2	2	0.2193	0.2987	0	1	0.582	77	0	0
136	1	534	1	1	1	0.2193	0.2987	1	1	0.480	87	0	82
136	1	535	1	2	1	0.2193	0.2987	0	1	0.856	50	0	0
136	1	536	1	2	2	0.2193	0.2987	1	1	0.621	73	82	0
136	1	537	1	1	1	0.2193	0.2987	1	1	0.643	71	0	82
136	1	538	0	1	2	0.2193	0.2987	1	1	0.656	7	82	0
136	1	539	9	2	2	0.2193	0.2987	1	1	1.137	0	0	82
136	1	540	0	2	2	0.2193	0.2987	0	1	0.560	8	82	82
136	1	541	0	2	2	0.2193	0.2987	1	1	0.904	5	0	82
136	1	542	9	2	3	0.2193	0.2987	0	1	0.746	0	82	82
136	1	543	9	2	2	0.2193	0.2987	0	1	0.520	0	82	82
136	1	544	9	2	3	0.2193	0.2987	1	1	0.494	0	82	0
136	1	545	1	1	3	0.2193	0.2987	0	1	0.544	81	0	0
136	1	546	0	1	2	0.2193	0.2987	0	1	0.589	8	82	82
136	1	547	0	2	2	0.2193	0.2987	0	1	0.717	6	82	82
136	1	548	0	2	2	0.2193	0.2987	0	1	0.505	8	82	82
136	1	549	1	1	3	0.2193	0.2987	1	1	0.578	77	0	82
136	1	550	1	1	1	0.2193	0.2987	0	1	0.664	69	0	0
136	1	551	9	1	1	0.2193	0.2987	0	1	0.394	0	82	82
136	1	552	1	1	3	0.2193	0.2987	1	1	0.457	89	0	82
136	1	553	0	1	3	0.2193	0.2987	1	0	2.797	0	82	0
136	1	554	1	2	3	0.2193	0.2987	1	1	0.754	60	82	0
136	1	555	0	2	3	0.2193	0.2987	0	1	1.051	5	82	82
136	1	556	9	1	2	0.2193	0.2987	0	1	0.605	0	0	0
136	1	557	0	2	1	0.2193	0.2987	0	1	0.602	7	82	82
136	1	558	1	2	3	0.2193	0.2987	1	1	0.739	61	82	0
136	1	559	9	1	3	0.2193	0.2987	0	1	0.524	0	82	82
136	1	560	9	1	3	0.2193	0.2987	1	1	0.572	0	0	82
136	1	561	9	2	2	0.2193	0.2987	1	1	0.638	0	82	0
136	1	562	1	2	2	0.2193	0.2987	1	1	0.514	84	82	0
136	1	563	0	2	3	0.2193	0.2987	1	1	0.851	5	0	82
136	1	564	9	1	1	0.2193	0.2987	0	1	0.484	0	0	0
136	1	565	9	2	2	0.2193	0.2987	1	1	0.436	0	82	0
136	1	566	1	1	1	0.2193	0.2987	0	1	0.503	85	0	0
136	1	567	0	1	3	0.2193	0.2987	0	1	0.512	8	82	82
136	1	568	0	2	2	0.2193	0.2987	0	1	0.989	5	82	82
136	1	569	9	1	3	0.2193	0.2987	1	1	0.563	0	82	0
136	1	570	0	1	3	0.2193	0.2987	1	1	0.556	8	82	0
136	1	571	9	2	3	0.2193	0.2987	1	1	0.627	0	82	0
136	1	572	1	2	2	0.2193	0.2987	0	1	1.421	50	0	0
136	1	573	0	2	2	0.2193	0.2987	1	1	0.507	8	0	82
136	1	574	0	1	1	0.2193	0.2987	1	1	0.501	8	82	0
136	1	575	9	2	3	0.2193	0.2987	1	1	0.432	0	82	0
136	1	576	1	1	1	0.2193	0.2987	0	1	0.422	93	0	0
136	1	577	1	1	3	0.2193	0.2987	0	1	0.569	78	0	0
136	1	578	1	1	1	0.2193	0.2987	1	1	0.576	77	0	82
136	1	579	1	1	1	0.2193	0.2987	0	1	0.630	72	0	0
136	1	580	1	2	1	0.2193	0.2987	0	0	0.580	0	0	0
136	1	581	9	1	3	0.2193	0.2987	0	1	0.605	0	82	82
136	1	582	9	1	3	0.2193	0.2987	0	1	0.501	0	0	0
136	1	583	9	2	2	0.2193	0.2987	1	1	0.425	0	82	0
136	1	584	0	2	3	0.2193	0.2987	1	1	0.476	9	0	82
136	1	585	9	1	1	0.2193	0.2987	0	1	0.583	0	0	0
136	1	586	1	2	3	0.2193	0.2987	1	1	0.705	65	82	0
136	1	587	0	2	3	0.2193	0.2987	0	1	0.822	5	82	82
136	1	588	0	2	2	0.2193	0.2987	0	1	0.516	8	82	82
136	1	589	0	1	3	0.2193	0.2987	1	1	0.592	8	82	0
136	1	590	0	2	2	0.2193	0.2987	0	1	0.525	8	82	82
136	1	591	1	1	1	0.2193	0.2987	1	1	0.500	85	0	82
136	1	592	1	2	3	0.2193	0.2987	1	1	0.663	69	82	0
136	1	593	1	1	3	0.2193	0.2987	0	1	0.648	70	0	0
136	1	594	0	2	2	0.2193	0.2987	0	1	1.463	5	82	82
136	1	595	1	1	2	0.2193	0.2987	0	1	0.655	70	0	0
136	1	596	0	1	3	0.2193	0.2987	1	1	0.678	7	82	0
136	1	597	1	1	1	0.2193	0.2987	0	1	0.442	91	0	0
136	1	598	1	2	2	0.2193	0.2987	1	1	0.934	50	82	0
136	1	599	1	1	1	0.2193	0.2987	1	1	0.553	80	0	82
136	1	600	0	1	3	0.2193	0.2987	1	1	0.656	7	82	0
136	1	601	9	2	3	0.2193	0.2987	1	1	0.675	0	0	82
136	1	602	9	2	2	0.2193	0.2987	1	1	0.602	0	0	82
136	1	603	1	1	2	0.2193	0.2987	1	0	0.576	0	0	82
136	1	604	0	1	3	0.2193	0.2987	1	1	1.366	5	82	0
136	1	605	9	1	2	0.2193	0.2987	0	1	0.601	0	82	82
136	1	606	0	1	1	0.2193	0.2987	1	1	0.758	6	82	0
136	1	607	1	1	3	0.2193	0.2987	1	1	0.507	84	0	82
136	1	608	1	1	3	0.2193	0.2987	0	1	0.583	77	0	0
136	1	609	0	1	3	0.2193	0.2987	0	1	0.619	7	82	82
136	1	610	0	1	1	0.2193	0.2987	0	1	0.517	8	82	82
136	1	611	0	1	1	0.2193	0.2987	0	1	0.487	9	82	82
136	1	612	0	1	3	0.2193	0.2987	1	1	0.742	6	82	0
136	1	613	1	1	3	0.2193	0.2987	0	1	0.552	80	0	0
136	1	614	0	2	1	0.2193	0.2987	0	1	1.388	5	82	82
136	1	615	0	2	3	0.2193	0.2987	0	1	0.620	7	82	82
136	1	616	0	2	2	0.2193	0.2987	1	1	0.592	8	0	82
136	1	617	1	1	1	0.2193	0.2987	1	1	0.840	51	0	82
136	1	618	1	2	2	0.2193	0.2987	1	1	0.680	67	82	0
136	1	619	0	2	1	0.2193	0.2987	1	1	0.539	8	0	82
136	1	620	1	2	2	0.2193	0.2987	0	1	0.565	79	0	0
136	1	621	0	1	1	0.2193	0.2987	0	1	0.623	7	82	82
136	1	622	0	2	3	0.2193	0.2987	1	1	0.486	9	0	82
136	1	623	0	1	1	0.2193	0.2987	1	1	0.799	6	82	0
136	1	624	0	1	1	0.2193	0.2987	1	1	0.563	8	82	0
136	1	625	1	1	2	0.2193	0.2987	1	1	0.567	78	0	82
136	1	626	0	1	1	0.2193	0.2987	0	1	0.532	8	82	82
136	1	627	1	2	2	0.2193	0.2987	1	1	1.078	50	82	0
136	1	628	0	1	3	0.2193	0.2987	0	1	0.415	9	82	82
136	1	629	1	1	3	0.2193	0.2987	1	1	0.526	82	0	82
136	1	630	0	2	2	0.2193	0.2987	1	1	0.708	6	0	82
136	1	631	1	2	3	0.2193	0.2987	0	1	1.136	50	0	0
136	1	632	0	2	2	0.2193	0.2987	1	1	0.480	9	0	82
136	1	633	0	1	1	0.2193	0.2987	1	1	1.010	5	82	0
136	1	634	1	1	1	0.2193	0.2987	0	1	0.598	75	0	0
136	1	635	0	2	2	0.2193	0.2987	0	1	0.889	5	82	82
136	1	636	9	1	3	0.2193	0.2987	1	1	0.507	0	0	82
136	1	637	1	2	2	0.2193	0.2987	1	1	0.507	84	82	0
136	1	638	0	2	3	0.2193	0.2987	1	1	0.503	8	0	82
136	1	639	9	1	3	0.2193	0.2987	0	1	0.545	0	0	0
136	1	640	1	2	1	0.2193	0.2987	1	1	0.646	70	82	0
136	1	641	1	2	3	0.2193	0.2987	1	1	1.160	50	82	0
136	1	642	0	2	3	0.2193	0.2987	1	1	0.689	7	0	82
136	1	643	9	2	3	0.2193	0.2987	0	1	0.725	0	82	82
136	1	644	0	2	1	0.2193	0.2987	1	1	0.558	8	0	82
136	1	645	1	1	3	0.2193	0.2987	1	1	0.641	71	0	82
136	1	646	0	1	3	0.2193	0.2987	1	1	0.536	8	82	0
136	1	647	0	1	1	0.2193	0.2987	1	1	0.552	8	82	0
136	1	648	1	1	3	0.2193	0.2987	0	1	0.685	66	0	0
136	1	649	0	2	2	0.2193	0.2987	1	1	1.374	5	0	82
136	1	650	0	2	3	0.2193	0.2987	1	1	0.456	9	0	82
136	1	651	0	2	2	0.2193	0.2987	1	1	0.536	8	0	82
136	1	652	1	1	3	0.2193	0.2987	0	1	0.438	91	0	0
136	1	653	0	2	3	0.2193	0.2987	1	1	0.503	8	0	82
136	1	654	9	1	3	0.2193	0.2987	1	1	0.827	0	82	0
136	1	655	0	2	2	0.2193	0.2987	0	1	0.709	6	82	82
136	1	656	1	1	1	0.2193	0.2987	0	1	0.529	82	0	0
136	1	657	9	2	2	0.2193	0.2987	1	1	1.771	0	0	82
136	1	658	0	1	3	0.2193	0.2987	0	1	0.613	7	82	82
136	1	659	0	1	3	0.2193	0.2987	0	1	0.558	8	82	82
136	1	660	0	2	3	0.2193	0.2987	0	1	0.627	7	82	82
136	1	661	0	1	1	0.2193	0.2987	0	1	0.673	7	82	82
136	1	662	1	2	3	0.2193	0.2987	1	0	0.675	0	82	0
136	1	663	1	2	3	0.2193	0.2987	0	1	0.910	50	0	0
136	1	664	0	1	3	0.2193	0.2987	0	1	0.711	6	82	82
136	1	665	1	2	3	0.2193	0.2987	1	1	0.490	86	82	0
136	1	666	1	1	1	0.2193	0.2987	1	1	1.025	50	0	82
136	1	667	1	2	3	0.2193	0.2987	1	1	0.496	85	82	0
136	1	668	1	2	2	0.2193	0.2987	0	1	0.721	63	0	0
136	1	669	0	2	3	0.2193	0.2987	1	1	0.604	7	0	82
136	1	670	0	1	1	0.2193	0.2987	0	1	0.521	8	82	82
136	1	671	0	1	3	0.2193	0.2987	1	1	0.562	8	82	0
136	1	672	1	2	3	0.2193	0.2987	0	1	0.653	70	0	0
136	1	673	1	2	2	0.2193	0.2987	0	1	0.508	84	0	0
136	1	674	9	1	1	0.2193	0.2987	1	1	0.531	0	82	0
136	1	675	9	1	3	0.2193	0.2987	1	1	0.534	0	0	82
136	1	676	9	2	1	0.2193	0.2987	0	1	0.669	0	82	82
136	1	677	9	2	2	0.2193	0.2987	0	1	0.488	0	82	82
136	1	678	1	1	1	0.2193	0.2987	0	1	0.944	50	0	0
136	1	679	1	2	3	0.2193	0.2987	0	1	0.798	55	0	0
136	1	680	1	1	3	0.2193	0.2987	0	1	0.476	87	0	0
136	1	681	9	1	2	0.2193	0.2987	1	1	0.617	0	0	82
136	1	682	0	1	2	0.2193	0.2987	0	1	0.481	9	82	82
136	1	683	1	1	3	0.2193	0.2987	0	1	0.470	88	0	0
136	1	684	0	1	3	0.2193	0.2987	1	1	0.472	9	82	0
136	1	685	1	2	1	0.2193	0.2987	0	1	1.009	50	0	0
136	1	686	0	1	3	0.2193	0.2987	0	1	0.471	9	82	82
136	1	687	1	2	3	0.2193	0.2987	0	1	0.774	58	0	0
136	1	688	0	2	2	0.2193	0.2987	0	1	0.819	5	82	82
136	1	689	0	1	3	0.2193	0.2987	1	1	0.579	8	82	0
136	1	690	1	2	2	0.2193	0.2987	0	1	0.647	70	0	0
136	1	691	0	1	2	0.2193	0.2987	1	1	0.507	8	82	0
136	1	692	1	2	2	0.2193	0.2987	1	1	0.521	83	82	0
136	1	693	1	2	2	0.2193	0.2987	0	1	0.641	71	0	0
136	1	694	0	1	2	0.2193	0.2987	0	1	0.527	8	82	82
136	1	695	0	2	3	0.2193	0.2987	0	1	0.518	8	82	82
136	1	696	9	2	1	0.2193	0.2987	1	1	0.560	0	0	82
136	1	697	9	1	3	0.2193	0.2987	1	1	0.823	0	82	0
136	1	698	1	2	2	0.2193	0.2987	1	1	0.660	69	82	0
136	1	699	0	2	2	0.2193	0.2987	1	1	0.476	9	0	82
136	1	700	1	2	3	0.2193	0.2987	0	1	0.609	74	0	0
136	1	701	0	1	1	0.2193	0.2987	0	1	0.968	5	82	82
136	1	702	1	1	2	0.2193	0.2987	1	1	0.575	78	0	82
136	1	703	0	1	1	0.2193	0.2987	1	1	0.590	8	82	0
136	1	704	9	1	1	0.2193	0.2987	1	1	0.550	0	0	82
136	1	705	9	1	3	0.2193	0.2987	0	1	0.588	0	0	0
136	1	706	1	1	1	0.2193	0.2987	0	1	0.567	78	0	0
136	1	707	1	2	2	0.2193	0.2987	0	1	0.759	59	0	0
136	1	708	0	2	3	0.2193	0.2987	0	1	0.495	9	82	82
136	1	709	0	1	1	0.2193	0.2987	1	1	0.652	7	82	0
136	1	710	0	2	1	0.2193	0.2987	1	1	0.750	6	0	82
136	1	711	0	1	1	0.2193	0.2987	0	1	0.555	8	82	82
136	1	712	0	2	2	0.2193	0.2987	0	1	0.666	7	82	82
136	1	713	0	2	3	0.2193	0.2987	0	1	1.371	5	82	82
136	1	714	9	2	2	0.2193	0.2987	1	1	0.426	0	82	0
136	1	715	0	1	2	0.2193	0.2987	1	1	0.601	7	82	0
136	1	716	0	2	2	0.2193	0.2987	0	1	0.743	6	82	82
136	1	717	0	2	3	0.2193	0.2987	0	1	0.627	7	82	82
136	1	718	1	1	3	0.2193	0.2987	1	1	0.529	82	0	82
136	1	719	9	1	1	0.2193	0.2987	1	1	0.576	0	0	82
136	1	720	0	1	3	0.2193	0.2987	0	1	0.553	8	82	82
