sub	sess	t	loc	co1	co2	or	resp	rt
89	1	1	1	1.0000	1.0000	1	1	5.318
89	1	2	2	1.0000	1.0000	0	0	2.064
89	1	3	2	1.0000	1.0000	0	0	5.694
89	1	4	1	1.0000	1.0000	0	0	4.440
89	1	5	2	1.0000	1.0000	1	1	1.701
89	1	6	1	1.0000	1.0000	0	1	0.847
89	1	7	2	1.0000	1.0000	1	0	2.424
89	1	8	1	1.0000	1.0000	1	0	3.136
89	1	9	2	1.0000	1.0000	1	1	1.469
89	1	10	1	1.0000	1.0000	0	1	2.051
89	1	11	1	1.0000	1.0000	1	1	1.167
89	1	12	1	1.0000	1.0000	1	1	1.373
89	1	13	1	1.0000	1.0000	0	1	1.799
89	1	14	1	1.0000	1.0000	1	0	1.094
89	1	15	2	1.0000	1.0000	0	1	1.697
89	1	16	2	1.0000	1.0000	1	1	1.319
89	1	17	2	1.0000	1.0000	1	0	0.825
89	1	18	2	1.0000	1.0000	0	0	4.523
89	1	19	2	1.0000	1.0000	1	1	1.070
89	1	20	2	1.0000	1.0000	0	1	0.909
89	1	21	1	1.0000	1.0000	0	1	1.148
89	1	22	1	1.0000	1.0000	1	0	0.943
89	1	23	2	1.0000	1.0000	0	0	1.952
89	1	24	1	1.0000	1.0000	0	0	2.970
89	1	25	2	1.0000	1.0000	1	0	1.107
89	1	26	1	1.0000	1.0000	1	1	1.262
89	1	27	2	1.0000	1.0000	0	0	3.297
89	1	28	1	1.0000	1.0000	1	0	1.069
89	1	29	2	1.0000	1.0000	1	0	1.545
89	1	30	2	1.0000	1.0000	1	1	1.692
89	1	31	2	1.0000	1.0000	0	1	1.068
89	1	32	1	1.0000	1.0000	0	0	3.770
89	1	33	2	1.0000	1.0000	0	1	0.977
89	1	34	1	1.0000	1.0000	0	1	1.359
89	1	35	1	1.0000	1.0000	0	1	1.601
89	1	36	2	1.0000	1.0000	1	0	4.233
89	1	37	1	1.0000	1.0000	1	0	1.133
89	1	38	1	1.0000	1.0000	1	1	3.345
89	1	39	2	1.0000	1.0000	0	1	1.829
89	1	40	2	1.0000	1.0000	1	1	1.342
89	1	41	2	1.0000	1.0000	0	1	0.765
89	1	42	1	1.0000	1.0000	0	1	0.707
89	1	43	1	1.0000	1.0000	1	1	0.509
89	1	44	1	1.0000	1.0000	0	1	0.624
89	1	45	2	1.0000	1.0000	1	1	1.252
89	1	46	1	1.0000	1.0000	1	1	0.613
89	1	47	2	1.0000	1.0000	0	1	0.665
89	1	48	1	1.0000	1.0000	0	1	0.668
89	1	49	1	1.0000	1.0000	0	1	0.561
89	1	50	2	1.0000	1.0000	0	1	1.346
89	1	51	2	1.0000	1.0000	1	1	0.626
89	1	52	2	1.0000	1.0000	1	1	0.603
89	1	53	1	1.0000	1.0000	1	1	0.549
89	1	54	1	1.0000	1.0000	1	1	1.077
89	1	55	1	1.0000	1.0000	0	1	0.475
89	1	56	1	1.0000	1.0000	0	1	0.622
89	1	57	2	1.0000	1.0000	0	1	1.027
89	1	58	2	0.2500	0.2500	1	1	0.583
89	1	59	2	0.2629	0.2629	1	1	0.804
89	1	60	1	0.2758	0.2758	1	1	0.488
89	1	61	2	0.2887	0.2887	0	1	0.540
89	1	62	1	0.3016	0.3016	0	1	0.570
89	1	63	2	0.3145	0.3145	1	1	0.537
89	1	64	2	0.3274	0.3274	1	1	0.796
89	1	65	2	0.3403	0.3403	1	1	0.447
89	1	66	1	0.3532	0.3532	0	1	0.464
89	1	67	1	0.3661	0.3661	0	1	0.480
89	1	68	1	0.3790	0.3790	1	1	0.497
89	1	69	1	0.3919	0.3919	0	1	0.623
89	1	70	2	0.4048	0.4048	1	1	0.589
89	1	71	2	0.4177	0.4177	0	1	0.528
89	1	72	1	0.4306	0.4306	0	1	0.686
89	1	73	2	0.4435	0.4435	0	1	0.534
89	1	74	1	0.4565	0.4565	0	0	0.452
89	1	75	2	0.4694	0.4694	0	1	0.516
89	1	76	2	0.4823	0.4823	1	1	0.449
89	1	77	1	0.4952	0.4952	1	1	0.420
89	1	78	1	0.5081	0.5081	0	1	0.718
89	1	79	2	0.5210	0.5210	0	1	0.465
89	1	80	2	0.5339	0.5339	0	1	0.424
89	1	81	1	0.5468	0.5468	1	1	0.452
89	1	82	2	0.5597	0.5597	0	1	0.474
89	1	83	1	0.5726	0.5726	1	1	0.516
89	1	84	2	0.5855	0.5855	0	1	0.405
89	1	85	2	0.5984	0.5984	1	1	0.514
89	1	86	2	0.6113	0.6113	0	1	0.433
89	1	87	2	0.6242	0.6242	1	1	0.512
89	1	88	1	0.6371	0.6371	1	1	0.425
89	1	89	2	0.6500	0.6500	1	0	0.459
89	1	90	2	0.2500	0.2500	0	1	0.564
89	1	91	1	0.2629	0.2629	1	1	0.472
89	1	92	2	0.2758	0.2758	0	1	0.432
89	1	93	1	0.2887	0.2887	1	1	0.670
89	1	94	2	0.3016	0.3016	0	1	0.628
89	1	95	2	0.3145	0.3145	1	1	0.593
89	1	96	1	0.3274	0.3274	0	1	0.539
89	1	97	1	0.3403	0.3403	0	1	0.553
89	1	98	1	0.3532	0.3532	0	1	0.483
89	1	99	2	0.3661	0.3661	1	1	0.456
89	1	100	1	0.3790	0.3790	1	1	0.486
89	1	101	2	0.3919	0.3919	1	1	0.480
89	1	102	1	0.4048	0.4048	0	1	0.448
89	1	103	2	0.4177	0.4177	0	1	0.416
89	1	104	1	0.4306	0.4306	0	0	0.506
89	1	105	1	0.4435	0.4435	0	1	0.534
89	1	106	1	0.4565	0.4565	1	1	0.647
89	1	107	1	0.4694	0.4694	1	1	0.418
89	1	108	2	0.4823	0.4823	0	1	0.658
89	1	109	2	0.4952	0.4952	0	1	0.420
89	1	110	2	0.5081	0.5081	1	1	0.497
89	1	111	1	0.5210	0.5210	1	1	0.543
89	1	112	1	0.5339	0.5339	0	1	0.398
89	1	113	1	0.5468	0.5468	1	1	0.550
89	1	114	1	0.5597	0.5597	0	1	0.415
89	1	115	2	0.5726	0.5726	1	1	0.812
89	1	116	1	0.5855	0.5855	1	1	0.679
89	1	117	1	0.5984	0.5984	0	1	0.451
89	1	118	2	0.6113	0.6113	0	1	0.595
89	1	119	1	0.6242	0.6242	1	1	0.779
89	1	120	2	0.6371	0.6371	1	1	0.526
89	1	121	1	0.6500	0.6500	1	1	0.685
89	1	122	1	0.3347	0.6371	0	1	0.465
89	1	123	2	0.3347	0.1595	1	1	0.471
89	1	124	1	0.3287	0.1595	1	1	0.784
89	1	125	1	0.3228	0.1595	0	1	0.641
89	1	126	1	0.3166	0.1595	0	1	0.490
89	1	127	2	0.3166	0.1486	1	1	0.439
89	1	128	1	0.3103	0.1486	0	1	0.572
89	1	129	2	0.3103	0.1375	0	1	0.484
89	1	130	2	0.3103	0.1264	1	1	0.414
89	1	131	2	0.3103	0.1151	0	1	0.413
89	1	132	1	0.3039	0.1151	1	1	0.458
89	1	133	2	0.3039	0.1039	0	1	0.450
89	1	134	1	0.2970	0.1039	0	1	0.515
89	1	135	1	0.2899	0.1039	1	1	0.476
89	1	136	2	0.2899	0.0926	1	0	3.014
89	1	137	1	0.2822	0.0926	0	1	0.452
89	1	138	2	0.2822	0.1251	1	1	0.481
89	1	139	2	0.2822	0.1159	1	1	0.417
89	1	140	1	0.2737	0.1159	1	1	0.455
89	1	141	2	0.2737	0.1068	0	1	0.487
89	1	142	1	0.2642	0.1068	1	1	0.482
89	1	143	1	0.2533	0.1068	1	1	0.434
89	1	144	2	0.2533	0.0979	0	1	0.524
89	1	145	2	0.2533	0.0892	1	1	0.519
89	1	146	2	0.2533	0.0806	0	1	0.468
89	1	147	2	0.2533	0.0723	0	1	0.387
89	1	148	1	0.2404	0.0723	0	1	0.483
89	1	149	1	0.2246	0.0723	1	1	0.542
89	1	150	1	0.2045	0.0723	0	1	0.501
89	1	151	2	0.2045	0.0642	0	1	0.499
89	1	152	2	0.2045	0.0562	1	1	0.552
89	1	153	1	0.1800	0.0562	0	1	0.564
89	1	154	2	0.1800	0.0485	1	1	0.723
89	1	155	1	0.1549	0.0485	0	1	0.516
89	1	156	1	0.1331	0.0485	1	1	0.552
89	1	157	1	0.1150	0.0485	1	1	0.652
89	1	158	2	0.1150	0.0410	1	1	1.067
89	1	159	1	0.0995	0.0410	1	1	0.561
89	1	160	1	0.0859	0.0410	0	1	0.549
89	1	161	2	0.0859	0.0339	1	1	1.658
89	1	162	1	0.0736	0.0339	1	0	0.794
89	1	163	1	0.1084	0.0339	1	1	2.198
89	1	164	1	0.0965	0.0339	1	1	0.613
89	1	165	1	0.0859	0.0339	1	1	0.487
89	1	166	2	0.0859	0.0269	0	1	0.586
89	1	167	1	0.0763	0.0269	0	0	1.028
89	1	168	2	0.0763	0.0201	1	1	0.903
89	1	169	1	0.1049	0.0201	1	1	0.544
89	1	170	2	0.1049	0.0137	0	1	0.552
89	1	171	2	0.1049	0.0075	1	1	0.769
89	1	172	2	0.1049	0.0015	1	1	0.944
89	1	173	1	0.0953	0.0015	1	1	0.630
89	1	174	1	0.0867	0.0015	0	1	0.420
89	1	175	2	0.0867	-0.0042	0	0	0.723
89	1	176	2	0.0867	0.0129	0	0	0.798
89	1	177	2	0.0867	0.0295	0	1	0.776
89	1	178	2	0.0867	0.0239	1	1	0.782
89	1	179	1	0.0788	0.0239	0	1	0.559
89	1	180	2	0.0788	0.0185	0	1	1.211
89	1	181	2	0.0788	0.0133	0	1	0.519
89	1	182	1	0.0715	0.0133	0	1	0.805
89	1	183	2	0.0715	0.0082	0	1	1.078
89	1	184	2	0.0715	0.0034	1	0	0.820
89	1	185	1	0.0647	0.0034	0	1	2.774
