sub	sess	t	rew	loc	cue	co1	co2	or	resp	rt	rew_tot	left_col	right_col
89	1	1	0	1	1	0.0551	0.0500	0	1	0.508	8	0	0
89	1	2	0	1	1	0.0551	0.0500	0	1	0.406	9	0	0
89	1	3	1	1	2	0.0551	0.0500	1	0	0.979	0	82	0
89	1	4	9	2	3	0.0551	0.0500	0	0	1.116	0	82	82
89	1	5	1	2	3	0.0551	0.0500	1	1	0.783	57	0	82
89	1	6	1	1	1	0.0551	0.0500	0	1	0.364	99	82	82
89	1	7	0	1	3	0.0551	0.0500	1	1	0.664	7	0	82
89	1	8	1	2	2	0.0551	0.0500	0	1	0.733	62	82	82
89	1	9	0	2	2	0.0551	0.0500	0	0	0.629	0	0	0
89	1	10	0	1	3	0.0551	0.0500	1	1	0.610	7	0	82
89	1	11	9	2	3	0.0551	0.0500	0	1	0.657	0	0	0
89	1	12	1	2	3	0.0551	0.0500	0	1	0.648	70	82	82
89	1	13	1	2	1	0.0551	0.0500	0	1	0.549	80	82	82
89	1	14	1	1	1	0.0551	0.0500	1	1	0.374	98	82	0
89	1	15	1	2	3	0.0551	0.0500	1	1	0.472	88	0	82
89	1	16	1	1	3	0.0551	0.0500	1	1	0.434	92	82	0
89	1	17	1	1	3	0.0551	0.0500	0	1	0.518	83	82	82
89	1	18	0	2	2	0.0551	0.0500	1	1	0.839	5	82	0
89	1	19	0	2	3	0.0551	0.0500	1	1	0.506	8	82	0
89	1	20	1	1	1	0.0551	0.0500	1	1	0.597	75	82	0
89	1	21	1	2	2	0.0551	0.0500	0	1	0.433	92	82	82
89	1	22	1	2	2	0.0551	0.0500	0	1	0.413	94	82	82
89	1	23	0	2	2	0.0551	0.0500	0	1	0.382	10	0	0
89	1	24	0	2	2	0.0551	0.0500	1	1	0.648	7	82	0
89	1	25	0	1	3	0.0551	0.0500	0	1	0.533	8	0	0
89	1	26	0	1	2	0.0551	0.0500	1	1	0.572	8	0	82
89	1	27	1	1	3	0.0551	0.0500	1	1	0.411	94	82	0
89	1	28	0	1	1	0.0551	0.0500	1	1	0.596	8	0	82
89	1	29	1	2	2	0.0551	0.0500	1	1	0.663	69	0	82
89	1	30	0	1	3	0.0551	0.0500	1	1	0.595	8	0	82
89	1	31	0	2	2	0.0551	0.0500	0	1	0.498	9	0	0
89	1	32	0	2	3	0.0551	0.0500	1	1	0.751	6	82	0
89	1	33	0	1	1	0.0551	0.0500	0	1	0.478	9	0	0
89	1	34	1	1	1	0.0551	0.0500	0	1	0.428	92	82	82
89	1	35	0	1	1	0.0551	0.0500	1	1	0.462	9	0	82
89	1	36	1	1	3	0.0551	0.0500	0	1	0.454	90	82	82
89	1	37	1	1	3	0.0551	0.0500	0	1	0.411	94	82	82
89	1	38	1	1	1	0.0551	0.0500	0	1	0.364	99	82	82
89	1	39	1	2	3	0.0551	0.0500	1	1	0.401	95	0	82
89	1	40	1	1	3	0.0551	0.0500	0	1	0.461	89	82	82
89	1	41	0	1	2	0.0551	0.0500	1	1	0.720	6	0	82
89	1	42	1	2	3	0.0551	0.0500	1	1	0.486	86	0	82
89	1	43	0	1	1	0.0551	0.0500	1	1	0.540	8	0	82
89	1	44	9	1	1	0.0551	0.0500	0	1	0.398	0	0	0
89	1	45	1	1	1	0.0551	0.0500	0	1	0.491	86	82	82
89	1	46	9	1	1	0.0551	0.0500	1	1	0.461	0	0	82
89	1	47	0	2	2	0.0551	0.0500	0	1	0.423	9	0	0
89	1	48	9	2	2	0.0551	0.0500	0	1	0.348	0	0	0
89	1	49	1	2	2	0.0551	0.0500	1	0	0.488	0	0	82
89	1	50	0	1	3	0.0551	0.0500	0	0	1.455	0	0	0
89	1	51	9	2	3	0.0551	0.0500	1	1	0.790	0	82	0
89	1	52	0	2	3	0.0551	0.0500	1	1	0.561	8	82	0
89	1	53	1	2	3	0.0551	0.0500	0	1	0.425	93	82	82
89	1	54	1	2	3	0.0551	0.0500	0	1	0.443	91	82	82
89	1	55	0	2	2	0.0551	0.0500	1	1	0.657	7	82	0
89	1	56	0	1	2	0.0551	0.0500	1	1	0.469	9	0	82
89	1	57	9	1	1	0.0551	0.0500	0	1	0.540	0	82	82
89	1	58	1	1	3	0.0551	0.0500	0	1	0.514	84	82	82
89	1	59	9	2	3	0.0551	0.0500	0	1	0.422	0	0	0
89	1	60	0	2	2	0.0551	0.0500	0	1	0.406	9	0	0
89	1	61	0	2	3	0.0551	0.0500	0	1	0.444	9	0	0
89	1	62	9	2	2	0.0551	0.0500	0	1	0.396	0	0	0
89	1	63	0	1	1	0.0551	0.0500	0	1	1.504	5	0	0
89	1	64	1	1	3	0.0551	0.0500	0	1	0.598	75	82	82
89	1	65	1	2	1	0.0551	0.0500	0	1	0.606	74	82	82
89	1	66	9	1	1	0.0551	0.0500	1	1	0.507	0	82	0
89	1	67	0	1	1	0.0551	0.0500	0	1	0.511	8	0	0
89	1	68	0	2	3	0.0551	0.0500	1	1	0.610	7	82	0
89	1	69	1	2	2	0.0551	0.0500	1	1	0.490	86	0	82
89	1	70	0	1	3	0.0551	0.0500	0	1	0.232	10	0	0
89	1	71	0	2	3	0.0551	0.0500	1	1	0.785	6	82	0
89	1	72	9	2	3	0.0551	0.0500	0	1	0.498	0	82	82
89	1	73	0	1	1	0.0551	0.0500	0	0	0.568	0	0	0
89	1	74	1	1	1	0.0551	0.0500	0	1	0.540	81	82	82
89	1	75	9	1	3	0.0551	0.0500	0	1	0.546	0	0	0
89	1	76	1	2	2	0.0551	0.0500	0	1	0.446	90	82	82
89	1	77	1	2	3	0.0551	0.0500	1	1	0.510	84	0	82
89	1	78	0	1	1	0.0551	0.0500	1	1	1.161	5	0	82
89	1	79	0	1	3	0.0551	0.0500	1	1	0.475	9	0	82
89	1	80	9	2	3	0.0551	0.0500	0	1	0.438	0	82	82
89	1	81	0	1	3	0.0551	0.0500	1	0	0.658	0	0	82
89	1	82	1	2	2	0.0551	0.0500	1	1	0.510	84	0	82
89	1	83	1	2	3	0.0551	0.0500	0	1	0.431	92	82	82
89	1	84	0	2	2	0.0551	0.0500	0	1	0.381	10	0	0
89	1	85	0	1	1	0.0551	0.0500	1	1	0.449	9	0	82
89	1	86	1	1	3	0.0551	0.0500	1	1	0.723	63	82	0
89	1	87	0	1	1	0.0551	0.0500	0	1	0.405	9	0	0
89	1	88	0	1	1	0.0551	0.0500	1	1	0.677	7	0	82
89	1	89	9	1	1	0.0551	0.0500	0	1	0.750	0	0	0
89	1	90	0	2	2	0.0551	0.0500	1	1	0.615	7	82	0
89	1	91	1	1	1	0.0551	0.0500	1	1	0.526	82	82	0
89	1	92	9	2	2	0.0551	0.0500	1	1	0.532	0	0	82
89	1	93	9	1	1	0.0551	0.0500	0	1	0.480	0	82	82
89	1	94	0	1	2	0.0551	0.0500	0	1	0.584	8	0	0
89	1	95	1	1	3	0.0551	0.0500	0	1	0.496	85	82	82
89	1	96	0	1	1	0.0551	0.0500	0	1	0.309	10	0	0
89	1	97	0	1	1	0.0551	0.0500	0	1	0.267	10	0	0
89	1	98	0	2	2	0.0551	0.0500	1	1	0.211	10	82	0
89	1	99	1	1	3	0.0551	0.0500	1	0	0.385	0	82	0
89	1	100	0	1	1	0.0551	0.0500	1	1	0.625	7	0	82
89	1	101	1	2	2	0.0551	0.0500	0	1	0.409	94	82	82
89	1	102	0	1	2	0.0551	0.0500	0	1	0.519	8	0	0
89	1	103	0	1	3	0.0551	0.0500	0	1	0.513	8	0	0
89	1	104	0	2	2	0.0551	0.0500	1	0	0.482	0	82	0
89	1	105	0	1	3	0.0551	0.0500	0	1	0.624	7	0	0
89	1	106	9	1	2	0.0551	0.0500	1	1	0.642	0	0	82
89	1	107	1	1	1	0.0551	0.0500	0	1	0.412	94	82	82
89	1	108	9	2	3	0.0551	0.0500	1	1	0.808	0	82	0
89	1	109	1	1	1	0.0551	0.0500	1	0	0.466	0	82	0
89	1	110	1	1	1	0.0551	0.0500	1	1	0.419	93	82	0
89	1	111	9	2	3	0.0551	0.0500	1	1	0.595	0	0	82
89	1	112	0	1	3	0.0551	0.0500	0	0	0.520	0	0	0
89	1	113	9	1	1	0.0551	0.0500	1	1	1.101	0	0	82
89	1	114	1	1	1	0.0551	0.0500	0	1	0.494	86	82	82
89	1	115	0	2	2	0.0551	0.0500	0	1	0.384	10	0	0
89	1	116	9	2	2	0.0551	0.0500	0	1	0.346	0	82	82
89	1	117	9	1	1	0.0551	0.0500	1	1	0.482	0	82	0
89	1	118	0	2	1	0.0551	0.0500	0	1	0.520	8	0	0
89	1	119	9	2	1	0.0551	0.0500	1	0	0.781	0	82	0
89	1	120	1	2	2	0.0551	0.0500	0	1	0.421	93	82	82
89	1	121	0	1	3	0.0551	0.0500	1	1	0.761	6	0	82
89	1	122	0	2	3	0.0551	0.0500	0	1	0.348	10	0	0
89	1	123	1	1	1	0.0551	0.0500	1	1	0.400	95	82	0
89	1	124	0	2	2	0.0551	0.0500	0	1	0.286	10	0	0
89	1	125	1	1	2	0.0551	0.0500	1	1	0.465	88	82	0
89	1	126	0	2	2	0.0551	0.0500	0	1	0.551	8	0	0
89	1	127	0	1	1	0.0551	0.0500	1	1	0.570	8	0	82
89	1	128	9	1	3	0.0551	0.0500	0	1	0.519	0	0	0
89	1	129	0	2	2	0.0551	0.0500	1	1	1.750	5	82	0
89	1	130	1	1	1	0.0551	0.0500	0	1	0.546	80	82	82
89	1	131	0	1	3	0.0551	0.0500	0	1	0.381	10	0	0
89	1	132	9	2	1	0.0551	0.0500	0	1	0.371	0	0	0
89	1	133	9	2	2	0.0551	0.0500	0	1	0.436	0	0	0
89	1	134	1	1	1	0.0551	0.0500	0	1	0.460	89	82	82
89	1	135	1	1	2	0.0551	0.0500	1	0	0.461	0	82	0
89	1	136	1	2	3	0.0551	0.0500	1	1	0.567	78	0	82
89	1	137	9	1	1	0.0551	0.0500	1	0	0.512	0	0	82
89	1	138	0	1	3	0.0551	0.0500	0	1	0.434	9	0	0
89	1	139	1	1	2	0.0551	0.0500	1	0	0.665	0	82	0
89	1	140	9	2	3	0.0551	0.0500	1	1	0.563	0	0	82
89	1	141	0	1	3	0.0551	0.0500	1	1	0.660	7	0	82
89	1	142	0	2	3	0.0551	0.0500	0	0	0.534	0	0	0
89	1	143	0	2	3	0.0551	0.0500	1	1	0.751	6	82	0
89	1	144	1	2	3	0.0551	0.0500	0	1	0.422	93	82	82
89	1	145	1	1	2	0.0551	0.0500	0	0	0.425	0	82	82
89	1	146	0	1	3	0.0551	0.0500	1	1	0.503	8	0	82
89	1	147	0	2	1	0.0551	0.0500	0	1	0.722	6	0	0
89	1	148	0	1	3	0.0551	0.0500	1	0	0.574	0	0	82
89	1	149	9	1	3	0.0551	0.0500	1	0	0.521	0	82	0
89	1	150	0	2	3	0.0551	0.0500	0	1	0.323	10	0	0
89	1	151	0	2	2	0.0551	0.0500	1	0	0.424	0	82	0
89	1	152	1	2	3	0.0551	0.0500	0	1	0.377	97	82	82
89	1	153	1	1	3	0.0551	0.0500	1	1	0.508	84	82	0
89	1	154	9	2	3	0.0551	0.0500	1	0	0.717	0	82	0
89	1	155	1	1	2	0.0551	0.0500	0	1	0.486	86	82	82
89	1	156	1	1	3	0.0551	0.0500	1	0	0.507	0	82	0
89	1	157	0	2	2	0.0551	0.0500	0	1	0.480	9	0	0
89	1	158	1	1	3	0.0551	0.0500	0	1	0.405	94	82	82
89	1	159	1	1	1	0.0551	0.0500	1	1	0.402	95	82	0
89	1	160	1	2	3	0.0551	0.0500	1	1	0.645	71	0	82
89	1	161	0	2	1	0.0551	0.0500	1	1	0.669	7	82	0
89	1	162	9	2	2	0.0551	0.0500	0	0	0.604	0	82	82
89	1	163	0	2	3	0.0551	0.0500	1	1	0.589	8	82	0
89	1	164	1	2	2	0.0551	0.0500	0	1	0.500	85	82	82
89	1	165	1	1	3	0.0551	0.0500	0	1	0.581	77	82	82
89	1	166	1	1	1	0.0551	0.0500	0	1	0.542	81	82	82
89	1	167	1	1	1	0.0551	0.0500	0	1	0.485	86	82	82
89	1	168	1	1	3	0.0551	0.0500	1	1	0.741	61	82	0
89	1	169	9	2	3	0.0551	0.0500	0	1	0.409	0	0	0
89	1	170	0	1	3	0.0551	0.0500	1	1	0.624	7	0	82
89	1	171	0	1	1	0.0551	0.0500	1	1	0.658	7	0	82
89	1	172	9	1	1	0.0551	0.0500	1	1	0.495	0	82	0
89	1	173	0	1	1	0.0551	0.0500	0	1	0.460	9	0	0
89	1	174	1	2	3	0.0551	0.0500	0	1	0.477	87	82	82
89	1	175	1	2	1	0.0551	0.0500	1	1	0.507	84	0	82
89	1	176	1	2	2	0.0551	0.0500	1	1	0.412	94	0	82
89	1	177	1	2	2	0.0551	0.0500	1	0	0.535	0	0	82
89	1	178	1	2	2	0.0551	0.0500	1	1	0.482	87	0	82
89	1	179	1	1	1	0.0551	0.0500	1	1	0.872	50	82	0
89	1	180	1	2	2	0.0551	0.0500	0	1	0.420	93	82	82
89	1	181	1	2	1	0.0551	0.0500	0	1	0.453	90	82	82
89	1	182	9	1	1	0.0551	0.0500	1	1	0.438	0	82	0
89	1	183	9	2	3	0.0551	0.0500	1	1	0.533	0	0	82
89	1	184	1	1	3	0.0551	0.0500	0	1	0.441	91	82	82
89	1	185	0	2	3	0.0551	0.0500	0	1	0.323	10	0	0
89	1	186	0	1	1	0.0551	0.0500	0	1	0.339	10	0	0
89	1	187	0	2	2	0.0551	0.0500	1	1	0.506	8	82	0
89	1	188	0	2	3	0.0551	0.0500	1	1	0.660	7	82	0
89	1	189	9	1	1	0.0551	0.0500	1	1	0.569	0	0	82
89	1	190	9	1	2	0.0551	0.0500	1	1	0.453	0	82	0
89	1	191	9	2	1	0.0551	0.0500	0	0	0.514	0	82	82
89	1	192	1	2	3	0.0551	0.0500	0	0	0.411	0	82	82
89	1	193	1	2	1	0.0551	0.0500	1	1	0.471	88	0	82
89	1	194	1	2	3	0.0551	0.0500	1	1	0.511	84	0	82
89	1	195	1	2	2	0.0551	0.0500	0	0	0.517	0	82	82
89	1	196	0	1	2	0.0551	0.0500	0	1	0.578	8	0	0
89	1	197	0	2	2	0.0551	0.0500	1	1	0.619	7	82	0
89	1	198	1	2	3	0.0551	0.0500	0	1	0.466	88	82	82
89	1	199	0	2	3	0.0551	0.0500	1	0	1.325	0	82	0
89	1	200	0	1	1	0.0551	0.0500	1	1	0.618	7	0	82
89	1	201	1	2	3	0.0551	0.0500	1	1	0.495	85	0	82
89	1	202	0	2	1	0.0551	0.0500	0	1	0.422	9	0	0
89	1	203	0	2	3	0.0551	0.0500	0	1	0.363	10	0	0
89	1	204	1	2	1	0.0551	0.0500	1	1	0.414	94	0	82
89	1	205	0	2	3	0.0551	0.0500	0	1	0.458	9	0	0
89	1	206	9	1	3	0.0551	0.0500	1	1	0.469	0	0	82
89	1	207	1	1	1	0.0551	0.0500	1	1	0.450	90	82	0
89	1	208	1	1	1	0.0551	0.0500	0	1	0.341	100	82	82
89	1	209	0	2	2	0.0551	0.0500	1	1	0.829	5	82	0
89	1	210	1	2	2	0.0551	0.0500	0	1	0.438	91	82	82
89	1	211	9	1	1	0.0551	0.0500	0	1	0.375	0	82	82
89	1	212	0	2	3	0.0551	0.0500	0	1	0.323	10	0	0
89	1	213	9	1	3	0.0551	0.0500	1	1	0.497	0	82	0
89	1	214	1	1	1	0.0551	0.0500	1	1	0.481	87	82	0
89	1	215	1	1	3	0.0551	0.0500	1	0	1.452	0	82	0
89	1	216	0	2	3	0.0551	0.0500	0	1	0.398	10	0	0
89	1	217	0	2	3	0.0551	0.0500	1	0	0.590	0	82	0
89	1	218	0	1	1	0.0551	0.0500	1	1	0.691	7	0	82
89	1	219	0	2	3	0.0551	0.0500	0	1	0.450	9	0	0
89	1	220	1	2	2	0.0551	0.0500	1	1	0.550	80	0	82
89	1	221	9	1	3	0.0551	0.0500	1	1	0.403	0	82	0
89	1	222	9	1	3	0.0551	0.0500	0	1	0.480	0	82	82
89	1	223	1	2	2	0.0551	0.0500	0	1	0.429	92	82	82
89	1	224	0	2	1	0.0551	0.0500	1	1	0.537	8	82	0
89	1	225	0	2	1	0.0551	0.0500	1	0	0.446	0	82	0
89	1	226	0	1	3	0.0551	0.0500	1	1	0.569	8	0	82
89	1	227	0	1	3	0.0551	0.0500	0	1	0.583	8	0	0
89	1	228	0	2	2	0.0551	0.0500	1	0	0.570	0	82	0
89	1	229	1	1	1	0.0551	0.0500	1	1	0.480	87	82	0
89	1	230	9	1	3	0.0551	0.0500	1	1	0.543	0	0	82
89	1	231	0	2	2	0.0551	0.0500	0	1	0.487	9	0	0
89	1	232	9	2	3	0.0551	0.0500	0	1	0.392	0	82	82
89	1	233	0	1	3	0.0551	0.0500	1	1	0.475	9	0	82
89	1	234	1	2	2	0.0551	0.0500	1	1	0.580	77	0	82
89	1	235	1	2	3	0.0551	0.0500	1	1	0.442	91	0	82
89	1	236	0	2	2	0.0551	0.0500	0	0	0.536	0	0	0
89	1	237	1	2	3	0.0551	0.0500	0	0	0.636	0	82	82
89	1	238	9	1	2	0.0551	0.0500	0	0	0.554	0	0	0
89	1	239	0	1	3	0.0551	0.0500	1	0	0.415	0	0	82
89	1	240	0	1	3	0.0551	0.0500	0	0	0.576	0	0	0
89	1	241	0	1	1	0.0551	0.0500	1	1	0.519	8	0	82
89	1	242	0	2	1	0.0551	0.0500	1	1	0.759	6	82	0
89	1	243	0	1	1	0.0551	0.0500	1	1	0.418	9	0	82
89	1	244	9	2	3	0.0551	0.0500	0	1	0.668	0	0	0
89	1	245	1	1	3	0.0551	0.0500	0	1	0.372	98	82	82
89	1	246	1	2	3	0.0551	0.0500	1	1	0.369	98	0	82
89	1	247	9	1	2	0.0551	0.0500	0	0	0.459	0	82	82
89	1	248	0	2	2	0.0551	0.0500	0	1	0.593	8	0	0
89	1	249	1	2	3	0.0551	0.0500	1	0	0.476	0	0	82
89	1	250	9	2	3	0.0551	0.0500	1	1	0.536	0	0	82
89	1	251	0	1	3	0.0551	0.0500	0	1	0.296	10	0	0
89	1	252	9	2	3	0.0551	0.0500	1	1	0.910	0	82	0
89	1	253	1	1	2	0.0551	0.0500	0	1	0.516	83	82	82
89	1	254	9	1	3	0.0551	0.0500	0	1	0.336	0	0	0
89	1	255	1	2	3	0.0551	0.0500	0	0	0.225	0	82	82
89	1	256	1	1	3	0.0551	0.0500	1	1	0.246	100	82	0
89	1	257	1	2	3	0.0551	0.0500	1	1	0.567	78	0	82
89	1	258	0	1	1	0.0551	0.0500	0	1	0.513	8	0	0
89	1	259	0	2	3	0.0551	0.0500	0	1	0.753	6	0	0
89	1	260	0	1	3	0.0551	0.0500	0	1	0.407	9	0	0
89	1	261	0	1	3	0.0551	0.0500	0	1	0.422	9	0	0
89	1	262	1	2	2	0.0551	0.0500	1	1	0.526	82	0	82
89	1	263	9	1	1	0.0551	0.0500	0	1	0.414	0	82	82
89	1	264	0	2	3	0.0551	0.0500	1	0	0.501	0	82	0
89	1	265	0	1	3	0.0551	0.0500	1	0	0.626	0	0	82
89	1	266	9	2	1	0.0551	0.0500	1	0	0.275	0	0	82
89	1	267	9	2	2	0.0551	0.0500	1	1	0.544	0	0	82
89	1	268	1	1	3	0.0551	0.0500	1	1	0.515	84	82	0
89	1	269	1	2	1	0.0551	0.0500	0	1	0.402	95	82	82
89	1	270	1	1	3	0.0551	0.0500	0	1	0.359	99	82	82
89	1	271	9	2	2	0.0551	0.0500	0	1	0.461	0	82	82
89	1	272	0	1	3	0.0551	0.0500	1	0	0.915	0	0	82
89	1	273	0	1	3	0.0551	0.0500	0	1	0.488	9	0	0
89	1	274	1	2	2	0.0551	0.0500	1	0	0.499	0	0	82
89	1	275	0	2	3	0.0551	0.0500	1	0	0.686	0	82	0
89	1	276	9	2	2	0.0551	0.0500	0	1	0.502	0	0	0
89	1	277	0	2	3	0.0551	0.0500	1	1	1.002	5	82	0
89	1	278	1	2	2	0.0551	0.0500	0	1	0.462	89	82	82
89	1	279	9	1	3	0.0551	0.0500	0	1	0.527	0	82	82
89	1	280	1	1	1	0.0551	0.0500	0	1	0.981	50	82	82
89	1	281	0	2	3	0.0551	0.0500	1	0	0.651	0	82	0
89	1	282	9	1	3	0.0551	0.0500	0	1	0.427	0	82	82
89	1	283	1	2	3	0.0551	0.0500	0	1	0.454	90	82	82
89	1	284	0	1	2	0.0551	0.0500	1	1	0.521	8	0	82
89	1	285	1	2	1	0.0551	0.0500	1	1	0.492	86	0	82
89	1	286	1	2	2	0.0551	0.0500	0	1	0.465	88	82	82
89	1	287	9	1	3	0.0551	0.0500	1	1	0.446	0	0	82
89	1	288	0	2	2	0.0551	0.0500	1	0	0.434	0	82	0
89	1	289	0	2	3	0.0551	0.0500	1	1	0.487	9	82	0
89	1	290	9	1	1	0.0551	0.0500	0	0	1.297	0	0	0
89	1	291	0	1	3	0.0551	0.0500	1	1	0.501	8	0	82
89	1	292	1	1	1	0.0551	0.0500	1	0	0.472	0	82	0
89	1	293	1	2	3	0.0551	0.0500	0	1	0.365	99	82	82
89	1	294	0	2	3	0.0551	0.0500	0	1	0.422	9	0	0
89	1	295	9	1	3	0.0551	0.0500	1	1	0.748	0	0	82
89	1	296	0	1	2	0.0551	0.0500	0	1	0.363	10	0	0
89	1	297	1	1	1	0.0551	0.0500	1	1	0.251	100	82	0
89	1	298	0	2	2	0.0551	0.0500	0	0	0.264	0	0	0
89	1	299	1	1	3	0.0551	0.0500	0	0	0.132	0	82	82
89	1	300	0	1	1	0.0551	0.0500	0	0	0.197	0	0	0
89	1	301	1	1	3	0.0551	0.0500	1	1	0.191	100	82	0
89	1	302	0	1	1	0.0551	0.0500	0	1	0.285	10	0	0
89	1	303	1	1	3	0.0551	0.0500	0	1	0.431	92	82	82
89	1	304	1	2	2	0.0551	0.0500	1	1	0.531	82	0	82
89	1	305	1	1	3	0.0551	0.0500	0	1	0.543	81	82	82
89	1	306	1	1	3	0.0551	0.0500	1	1	0.407	94	82	0
89	1	307	1	1	1	0.0551	0.0500	1	1	0.496	85	82	0
89	1	308	9	1	3	0.0551	0.0500	0	0	0.213	0	0	0
89	1	309	1	2	3	0.0551	0.0500	0	1	0.490	86	82	82
89	1	310	0	1	3	0.0551	0.0500	0	1	0.097	10	0	0
89	1	311	9	2	2	0.0551	0.0500	1	1	0.128	0	82	0
89	1	312	0	1	1	0.0551	0.0500	1	1	0.478	9	0	82
89	1	313	9	2	2	0.0551	0.0500	0	1	0.434	0	82	82
89	1	314	0	2	3	0.0551	0.0500	0	1	0.262	10	0	0
89	1	315	0	2	3	0.0551	0.0500	0	1	0.145	10	0	0
89	1	316	0	2	3	0.0551	0.0500	1	1	0.201	10	82	0
89	1	317	9	2	2	0.0551	0.0500	1	0	0.648	0	82	0
89	1	318	1	1	3	0.0551	0.0500	1	1	0.181	100	82	0
89	1	319	9	2	2	0.0551	0.0500	1	0	0.479	0	82	0
89	1	320	0	1	1	0.0551	0.0500	0	1	0.294	10	0	0
89	1	321	1	1	2	0.0551	0.0500	0	1	0.705	65	82	82
89	1	322	0	1	1	0.0551	0.0500	0	1	0.419	9	0	0
89	1	323	1	2	2	0.0551	0.0500	1	0	0.415	0	0	82
89	1	324	0	1	3	0.0551	0.0500	0	0	0.525	0	0	0
89	1	325	1	1	1	0.0551	0.0500	0	1	0.486	86	82	82
89	1	326	0	2	2	0.0551	0.0500	1	0	0.441	0	82	0
89	1	327	0	2	1	0.0551	0.0500	0	1	0.314	10	0	0
89	1	328	1	2	3	0.0551	0.0500	1	1	0.526	82	0	82
89	1	329	0	2	2	0.0551	0.0500	1	1	0.478	9	82	0
89	1	330	0	1	1	0.0551	0.0500	1	1	0.466	9	0	82
89	1	331	0	1	1	0.0551	0.0500	1	1	0.303	10	0	82
89	1	332	1	2	2	0.0551	0.0500	1	0	0.194	0	0	82
89	1	333	9	1	3	0.0551	0.0500	1	0	0.143	0	82	0
89	1	334	1	2	3	0.0551	0.0500	1	0	0.373	0	0	82
89	1	335	1	2	3	0.0551	0.0500	1	1	0.455	90	0	82
89	1	336	1	1	3	0.0551	0.0500	1	0	0.129	0	82	0
89	1	337	1	1	1	0.0551	0.0500	1	0	0.166	0	82	0
89	1	338	1	1	3	0.0551	0.0500	1	0	0.216	0	82	0
89	1	339	9	2	2	0.0551	0.0500	1	0	0.649	0	82	0
89	1	340	1	2	2	0.0551	0.0500	0	1	0.501	85	82	82
89	1	341	9	1	3	0.0551	0.0500	0	1	0.508	0	82	82
89	1	342	9	2	2	0.0551	0.0500	1	1	0.553	0	0	82
89	1	343	1	2	3	0.0551	0.0500	0	1	0.427	92	82	82
89	1	344	9	1	1	0.0551	0.0500	0	1	0.365	0	0	0
89	1	345	0	2	2	0.0551	0.0500	0	1	0.409	9	0	0
89	1	346	1	1	3	0.0551	0.0500	0	1	0.406	94	82	82
89	1	347	1	2	2	0.0551	0.0500	1	1	0.342	100	0	82
89	1	348	1	2	2	0.0551	0.0500	1	0	0.361	0	0	82
89	1	349	1	1	1	0.0551	0.0500	0	1	0.523	83	82	82
89	1	350	9	2	2	0.0551	0.0500	1	1	0.370	0	0	82
89	1	351	1	1	3	0.0551	0.0500	1	0	0.520	0	82	0
89	1	352	0	2	2	0.0551	0.0500	0	0	0.247	0	0	0
89	1	353	0	2	2	0.0551	0.0500	1	1	0.634	7	82	0
89	1	354	1	2	3	0.0551	0.0500	0	1	0.394	96	82	82
89	1	355	0	2	3	0.0551	0.0500	0	1	0.376	10	0	0
89	1	356	1	2	2	0.0551	0.0500	0	1	0.434	92	82	82
89	1	357	1	1	1	0.0551	0.0500	0	1	0.602	75	82	82
89	1	358	1	1	1	0.0551	0.0500	1	0	0.644	0	82	0
89	1	359	1	2	2	0.0551	0.0500	0	1	0.391	96	82	82
89	1	360	0	2	3	0.0551	0.0500	0	0	0.030	0	0	0
89	1	361	0	2	2	0.0551	0.0500	0	0	0.089	0	0	0
89	1	362	1	1	3	0.0551	0.0500	0	1	0.465	88	82	82
89	1	363	1	1	3	0.0551	0.0500	1	0	0.536	0	82	0
89	1	364	1	1	1	0.0551	0.0500	0	1	0.412	94	82	82
89	1	365	1	1	2	0.0551	0.0500	1	0	0.574	0	82	0
89	1	366	0	2	3	0.0551	0.0500	1	1	0.598	8	82	0
89	1	367	9	1	1	0.0551	0.0500	0	0	0.096	0	0	0
89	1	368	9	1	1	0.0551	0.0500	0	1	0.350	0	0	0
89	1	369	1	1	1	0.0551	0.0500	1	0	0.536	0	82	0
89	1	370	1	1	2	0.0551	0.0500	1	1	0.535	82	82	0
89	1	371	0	2	2	0.0551	0.0500	0	1	0.561	8	0	0
89	1	372	0	1	2	0.0551	0.0500	0	0	0.470	0	0	0
89	1	373	0	2	2	0.0551	0.0500	1	1	0.636	7	82	0
89	1	374	0	1	3	0.0551	0.0500	0	1	0.434	9	0	0
89	1	375	9	1	3	0.0551	0.0500	0	0	0.970	0	0	0
89	1	376	0	1	3	0.0551	0.0500	0	0	0.678	0	0	0
89	1	377	1	1	1	0.0551	0.0500	0	1	0.377	97	82	82
89	1	378	0	2	1	0.0551	0.0500	0	1	0.448	9	0	0
89	1	379	1	2	1	0.0551	0.0500	1	0	0.379	0	0	82
89	1	380	9	2	3	0.0551	0.0500	0	1	0.417	0	82	82
89	1	381	9	2	3	0.0551	0.0500	1	0	0.611	0	82	0
89	1	382	0	2	3	0.0551	0.0500	1	0	0.421	0	82	0
89	1	383	1	2	3	0.0551	0.0500	0	0	0.548	0	82	82
89	1	384	1	2	3	0.0551	0.0500	1	1	0.758	59	0	82
89	1	385	1	2	2	0.0551	0.0500	0	1	0.432	92	82	82
89	1	386	1	1	3	0.0551	0.0500	1	1	0.943	50	82	0
89	1	387	1	1	3	0.0551	0.0500	1	1	0.732	62	82	0
89	1	388	1	1	3	0.0551	0.0500	0	1	0.549	80	82	82
89	1	389	0	2	2	0.0551	0.0500	1	0	0.481	0	82	0
89	1	390	1	1	1	0.0551	0.0500	0	0	0.594	0	82	82
89	1	391	9	1	3	0.0551	0.0500	1	1	0.444	0	82	0
89	1	392	1	1	1	0.0551	0.0500	0	1	0.630	72	82	82
89	1	393	9	1	3	0.0551	0.0500	0	1	0.427	0	0	0
89	1	394	1	1	1	0.0551	0.0500	1	0	0.501	0	82	0
89	1	395	0	1	3	0.0551	0.0500	1	1	0.529	8	0	82
89	1	396	0	1	3	0.0551	0.0500	0	1	0.355	10	0	0
89	1	397	0	2	2	0.0551	0.0500	0	1	0.390	10	0	0
89	1	398	0	1	3	0.0551	0.0500	0	0	0.559	0	0	0
89	1	399	9	1	1	0.0551	0.0500	0	1	0.324	0	82	82
89	1	400	0	1	3	0.0551	0.0500	1	1	1.124	5	0	82
89	1	401	0	1	3	0.0551	0.0500	1	1	0.799	6	0	82
89	1	402	1	2	3	0.0551	0.0500	1	1	0.484	87	0	82
89	1	403	9	2	1	0.0551	0.0500	1	0	1.178	0	82	0
89	1	404	0	2	1	0.0551	0.0500	1	1	0.677	7	82	0
89	1	405	9	1	3	0.0551	0.0500	0	1	0.496	0	82	82
89	1	406	9	1	3	0.0551	0.0500	1	1	0.890	0	0	82
89	1	407	1	1	3	0.0551	0.0500	0	1	0.306	100	82	82
89	1	408	0	1	3	0.0551	0.0500	0	1	0.434	9	0	0
89	1	409	1	2	3	0.0551	0.0500	1	1	0.442	91	0	82
89	1	410	9	2	2	0.0551	0.0500	1	1	0.475	0	0	82
89	1	411	1	2	3	0.0551	0.0500	1	0	0.278	0	0	82
89	1	412	1	2	2	0.0551	0.0500	0	1	0.637	71	82	82
89	1	413	0	1	3	0.0551	0.0500	0	1	0.490	9	0	0
89	1	414	1	2	3	0.0551	0.0500	1	1	0.920	50	0	82
89	1	415	1	1	3	0.0551	0.0500	1	1	0.622	73	82	0
89	1	416	1	1	1	0.0551	0.0500	0	1	0.429	92	82	82
89	1	417	1	2	2	0.0551	0.0500	1	1	0.467	88	0	82
89	1	418	1	1	1	0.0551	0.0500	1	1	0.469	88	82	0
89	1	419	0	1	3	0.0551	0.0500	0	1	0.079	10	0	0
89	1	420	0	1	3	0.0551	0.0500	1	1	0.396	10	0	82
89	1	421	0	2	3	0.0551	0.0500	0	1	0.282	10	0	0
89	1	422	0	1	1	0.0551	0.0500	0	1	0.550	8	0	0
89	1	423	1	2	1	0.0551	0.0500	0	1	0.446	90	82	82
89	1	424	1	2	3	0.0551	0.0500	0	1	0.385	97	82	82
89	1	425	0	2	2	0.0551	0.0500	0	0	0.218	0	0	0
89	1	426	9	1	1	0.0551	0.0500	0	0	0.691	0	82	82
89	1	427	1	2	3	0.0551	0.0500	1	0	0.462	0	0	82
89	1	428	1	2	3	0.0551	0.0500	1	0	0.466	0	0	82
89	1	429	0	2	2	0.0551	0.0500	0	1	0.251	10	0	0
89	1	430	0	1	1	0.0551	0.0500	1	1	0.505	8	0	82
89	1	431	0	1	2	0.0551	0.0500	0	1	0.513	8	0	0
89	1	432	0	1	1	0.0551	0.0500	0	0	0.472	0	0	0
89	1	433	0	1	1	0.0551	0.0500	0	1	0.547	8	0	0
89	1	434	1	1	1	0.0551	0.0500	0	1	0.606	74	82	82
89	1	435	0	1	1	0.0551	0.0500	1	1	0.712	6	0	82
89	1	436	1	2	1	0.0551	0.0500	1	0	0.596	0	0	82
89	1	437	9	1	1	0.0551	0.0500	1	1	0.551	0	82	0
89	1	438	0	1	1	0.0551	0.0500	1	1	0.664	7	0	82
89	1	439	1	2	3	0.0551	0.0500	0	1	0.581	77	82	82
89	1	440	0	2	2	0.0551	0.0500	1	1	0.646	7	82	0
89	1	441	1	2	2	0.0551	0.0500	0	1	0.351	100	82	82
89	1	442	0	1	3	0.0551	0.0500	0	0	0.607	0	0	0
89	1	443	1	2	2	0.0551	0.0500	1	0	0.651	0	0	82
89	1	444	1	1	3	0.0551	0.0500	1	1	1.146	50	82	0
89	1	445	0	1	1	0.0551	0.0500	1	1	0.552	8	0	82
89	1	446	0	1	1	0.0551	0.0500	1	0	0.510	0	0	82
89	1	447	0	1	3	0.0551	0.0500	1	0	0.522	0	0	82
89	1	448	0	2	1	0.0551	0.0500	1	1	0.588	8	82	0
89	1	449	1	1	2	0.0551	0.0500	0	1	0.418	93	82	82
89	1	450	1	1	2	0.0551	0.0500	0	1	0.602	75	82	82
89	1	451	9	1	3	0.0551	0.0500	1	1	0.367	0	82	0
89	1	452	0	1	3	0.0551	0.0500	1	1	0.482	9	0	82
89	1	453	1	1	3	0.0551	0.0500	1	1	0.590	76	82	0
89	1	454	0	1	1	0.0551	0.0500	1	1	1.351	5	0	82
89	1	455	1	2	3	0.0551	0.0500	1	0	0.492	0	0	82
89	1	456	1	1	3	0.0551	0.0500	1	1	0.604	75	82	0
89	1	457	0	1	1	0.0551	0.0500	1	1	0.745	6	0	82
89	1	458	1	2	2	0.0551	0.0500	0	1	0.372	98	82	82
89	1	459	9	1	2	0.0551	0.0500	0	0	0.504	0	0	0
89	1	460	9	1	1	0.0551	0.0500	1	1	0.869	0	0	82
89	1	461	1	1	1	0.0551	0.0500	1	1	0.505	84	82	0
89	1	462	0	1	1	0.0551	0.0500	0	1	0.466	9	0	0
89	1	463	9	2	3	0.0551	0.0500	1	1	0.440	0	0	82
89	1	464	1	2	2	0.0551	0.0500	1	1	0.458	89	0	82
89	1	465	9	2	1	0.0551	0.0500	0	1	0.488	0	0	0
89	1	466	1	2	3	0.0551	0.0500	0	1	0.591	76	82	82
89	1	467	1	2	3	0.0551	0.0500	0	1	0.536	81	82	82
89	1	468	0	2	3	0.0551	0.0500	0	1	0.417	9	0	0
89	1	469	9	2	3	0.0551	0.0500	1	1	0.379	0	0	82
89	1	470	1	2	2	0.0551	0.0500	1	1	0.582	77	0	82
89	1	471	9	2	2	0.0551	0.0500	0	1	0.412	0	82	82
89	1	472	0	1	1	0.0551	0.0500	1	1	0.703	6	0	82
89	1	473	0	2	2	0.0551	0.0500	1	0	0.659	0	82	0
89	1	474	0	1	1	0.0551	0.0500	1	1	0.679	7	0	82
89	1	475	1	2	1	0.0551	0.0500	1	0	0.375	0	0	82
89	1	476	1	1	1	0.0551	0.0500	0	0	0.512	0	82	82
89	1	477	1	2	3	0.0551	0.0500	1	0	0.383	0	0	82
89	1	478	0	2	1	0.0551	0.0500	0	1	0.505	8	0	0
89	1	479	1	1	3	0.0551	0.0500	0	1	0.581	77	82	82
89	1	480	1	2	3	0.0551	0.0500	0	0	0.651	0	82	82
89	1	481	0	2	2	0.0551	0.0500	0	1	0.541	8	0	0
89	1	482	9	2	2	0.0551	0.0500	0	1	0.517	0	82	82
89	1	483	1	2	2	0.0551	0.0500	0	1	0.437	91	82	82
89	1	484	9	2	2	0.0551	0.0500	1	0	0.543	0	82	0
89	1	485	1	1	3	0.0551	0.0500	0	0	0.638	0	82	82
89	1	486	1	2	2	0.0551	0.0500	1	1	0.617	73	0	82
89	1	487	0	2	2	0.0551	0.0500	0	0	1.036	0	0	0
89	1	488	0	1	3	0.0551	0.0500	0	1	0.567	8	0	0
89	1	489	0	1	3	0.0551	0.0500	0	1	0.634	7	0	0
89	1	490	1	1	1	0.0551	0.0500	0	1	0.454	90	82	82
89	1	491	1	1	1	0.0551	0.0500	1	1	0.508	84	82	0
89	1	492	9	2	3	0.0551	0.0500	0	1	0.518	0	82	82
89	1	493	0	2	2	0.0551	0.0500	0	1	0.483	9	0	0
89	1	494	1	2	2	0.0551	0.0500	1	1	0.603	75	0	82
89	1	495	0	2	2	0.0551	0.0500	1	1	0.501	8	82	0
89	1	496	1	1	2	0.0551	0.0500	1	1	0.596	75	82	0
89	1	497	9	1	2	0.0551	0.0500	1	1	0.449	0	82	0
89	1	498	0	2	1	0.0551	0.0500	1	1	0.702	6	82	0
89	1	499	0	2	2	0.0551	0.0500	1	1	0.571	8	82	0
89	1	500	0	2	2	0.0551	0.0500	0	1	0.480	9	0	0
89	1	501	1	1	1	0.0551	0.0500	1	1	0.470	88	82	0
89	1	502	1	1	3	0.0551	0.0500	0	1	0.686	66	82	82
89	1	503	9	2	3	0.0551	0.0500	1	0	1.213	0	82	0
89	1	504	9	2	2	0.0551	0.0500	0	1	0.358	0	0	0
89	1	505	1	2	3	0.0551	0.0500	1	1	0.538	81	0	82
89	1	506	1	2	2	0.0551	0.0500	1	0	0.374	0	0	82
89	1	507	0	2	3	0.0551	0.0500	1	1	0.578	8	82	0
89	1	508	9	1	1	0.0551	0.0500	1	0	0.680	0	0	82
89	1	509	1	2	3	0.0551	0.0500	0	0	0.543	0	82	82
89	1	510	1	1	3	0.0551	0.0500	1	1	0.436	91	82	0
89	1	511	9	2	3	0.0551	0.0500	0	1	0.434	0	82	82
89	1	512	0	2	2	0.0551	0.0500	0	1	0.515	8	0	0
89	1	513	0	1	1	0.0551	0.0500	0	1	0.519	8	0	0
89	1	514	1	1	1	0.0551	0.0500	1	1	0.425	93	82	0
89	1	515	9	2	2	0.0551	0.0500	1	0	0.617	0	0	82
89	1	516	9	2	2	0.0551	0.0500	1	1	0.557	0	82	0
89	1	517	0	2	2	0.0551	0.0500	1	0	0.580	0	82	0
89	1	518	9	1	1	0.0551	0.0500	0	1	0.366	0	0	0
89	1	519	1	1	3	0.0551	0.0500	1	0	1.005	0	82	0
89	1	520	0	1	2	0.0551	0.0500	1	1	0.578	8	0	82
89	1	521	0	1	1	0.0551	0.0500	1	1	0.564	8	0	82
89	1	522	9	1	3	0.0551	0.0500	0	1	0.431	0	0	0
89	1	523	0	2	3	0.0551	0.0500	1	1	0.584	8	82	0
89	1	524	1	1	3	0.0551	0.0500	1	1	0.613	74	82	0
89	1	525	0	2	2	0.0551	0.0500	1	0	0.716	0	82	0
89	1	526	0	1	3	0.0551	0.0500	1	0	0.393	0	0	82
89	1	527	0	2	2	0.0551	0.0500	0	1	0.458	9	0	0
89	1	528	1	1	3	0.0551	0.0500	1	1	0.407	94	82	0
89	1	529	9	2	3	0.0551	0.0500	1	0	1.220	0	0	82
89	1	530	0	2	3	0.0551	0.0500	0	1	0.456	9	0	0
89	1	531	9	2	2	0.0551	0.0500	0	1	0.470	0	0	0
89	1	532	9	1	1	0.0551	0.0500	1	0	0.664	0	82	0
89	1	533	9	1	3	0.0551	0.0500	0	0	0.236	0	0	0
89	1	534	0	2	2	0.0551	0.0500	1	0	0.395	0	82	0
89	1	535	1	1	3	0.0551	0.0500	0	1	0.390	96	82	82
89	1	536	1	1	3	0.0551	0.0500	0	1	0.492	86	82	82
89	1	537	1	2	1	0.0551	0.0500	0	1	0.471	88	82	82
89	1	538	9	1	1	0.0551	0.0500	1	1	0.693	0	0	82
89	1	539	0	2	3	0.0551	0.0500	0	1	0.370	10	0	0
89	1	540	0	1	1	0.0551	0.0500	0	1	0.489	9	0	0
89	1	541	9	2	2	0.0551	0.0500	1	0	0.526	0	82	0
89	1	542	1	2	2	0.0551	0.0500	0	1	0.380	97	82	82
89	1	543	9	2	3	0.0551	0.0500	1	0	0.509	0	82	0
89	1	544	1	2	2	0.0551	0.0500	0	1	0.447	90	82	82
89	1	545	1	1	3	0.0551	0.0500	0	0	1.020	0	82	82
89	1	546	1	2	3	0.0551	0.0500	0	1	0.515	84	82	82
89	1	547	0	1	1	0.0551	0.0500	0	1	0.326	10	0	0
89	1	548	1	2	3	0.0551	0.0500	1	1	0.470	88	0	82
89	1	549	1	1	1	0.0551	0.0500	1	1	0.544	81	82	0
89	1	550	1	1	3	0.0551	0.0500	0	1	0.466	88	82	82
89	1	551	1	1	1	0.0551	0.0500	0	0	0.478	0	82	82
89	1	552	0	1	1	0.0551	0.0500	1	1	0.639	7	0	82
89	1	553	0	1	3	0.0551	0.0500	1	0	0.294	0	0	82
89	1	554	0	1	1	0.0551	0.0500	0	1	1.326	5	0	0
89	1	555	1	1	1	0.0551	0.0500	0	1	0.392	96	82	82
89	1	556	9	2	2	0.0551	0.0500	0	1	0.432	0	82	82
89	1	557	1	1	2	0.0551	0.0500	0	1	0.524	83	82	82
89	1	558	0	2	2	0.0551	0.0500	0	1	0.406	9	0	0
89	1	559	1	2	1	0.0551	0.0500	0	0	0.237	0	82	82
89	1	560	0	2	2	0.0551	0.0500	0	1	0.502	8	0	0
89	1	561	1	1	1	0.0551	0.0500	1	1	0.454	90	82	0
89	1	562	1	2	2	0.0551	0.0500	0	1	0.427	92	82	82
89	1	563	1	2	3	0.0551	0.0500	0	1	0.406	94	82	82
89	1	564	0	1	3	0.0551	0.0500	0	0	0.638	0	0	0
89	1	565	9	2	3	0.0551	0.0500	0	1	0.459	0	0	0
89	1	566	1	2	2	0.0551	0.0500	1	1	0.421	93	0	82
89	1	567	1	1	1	0.0551	0.0500	1	1	0.475	88	82	0
89	1	568	1	1	1	0.0551	0.0500	1	1	0.481	87	82	0
89	1	569	0	2	3	0.0551	0.0500	0	1	0.435	9	0	0
89	1	570	1	1	3	0.0551	0.0500	1	1	0.363	99	82	0
89	1	571	1	2	3	0.0551	0.0500	0	1	0.151	100	82	82
89	1	572	0	2	3	0.0551	0.0500	0	1	0.427	9	0	0
89	1	573	1	1	1	0.0551	0.0500	1	1	0.382	97	82	0
89	1	574	1	2	2	0.0551	0.0500	1	1	0.485	86	0	82
89	1	575	0	2	3	0.0551	0.0500	0	1	0.410	9	0	0
89	1	576	0	2	2	0.0551	0.0500	1	1	0.274	10	82	0
89	1	577	9	2	2	0.0551	0.0500	0	1	0.413	0	0	0
89	1	578	9	1	1	0.0551	0.0500	1	1	0.578	0	82	0
89	1	579	1	1	1	0.0551	0.0500	0	0	0.714	0	82	82
89	1	580	9	1	3	0.0551	0.0500	0	0	0.539	0	82	82
89	1	581	9	2	1	0.0551	0.0500	1	1	0.565	0	0	82
89	1	582	1	2	2	0.0551	0.0500	0	1	0.502	85	82	82
89	1	583	9	2	3	0.0551	0.0500	1	1	0.575	0	0	82
89	1	584	0	2	3	0.0551	0.0500	1	1	0.654	7	82	0
89	1	585	9	1	3	0.0551	0.0500	1	1	0.567	0	0	82
89	1	586	0	2	2	0.0551	0.0500	0	1	0.165	10	0	0
89	1	587	0	1	2	0.0551	0.0500	1	0	0.721	0	0	82
89	1	588	1	2	1	0.0551	0.0500	0	1	0.349	100	82	82
89	1	589	0	2	3	0.0551	0.0500	0	1	0.232	10	0	0
89	1	590	0	2	3	0.0551	0.0500	1	1	0.863	5	82	0
89	1	591	0	1	1	0.0551	0.0500	0	1	0.808	5	0	0
89	1	592	0	2	3	0.0551	0.0500	0	0	0.105	0	0	0
89	1	593	0	2	1	0.0551	0.0500	0	1	0.425	9	0	0
89	1	594	1	2	3	0.0551	0.0500	0	1	0.390	96	82	82
89	1	595	1	2	3	0.0551	0.0500	1	1	0.496	85	0	82
89	1	596	0	1	1	0.0551	0.0500	1	1	0.503	8	0	82
89	1	597	1	2	1	0.0551	0.0500	1	0	0.453	0	0	82
89	1	598	0	2	3	0.0551	0.0500	1	1	0.486	9	82	0
89	1	599	1	1	1	0.0551	0.0500	1	1	0.406	94	82	0
89	1	600	9	1	3	0.0551	0.0500	0	0	0.490	0	82	82
89	1	601	1	1	3	0.0551	0.0500	0	1	0.330	100	82	82
89	1	602	1	1	1	0.0551	0.0500	0	1	0.510	84	82	82
89	1	603	0	1	3	0.0551	0.0500	1	1	0.441	9	0	82
89	1	604	9	1	3	0.0551	0.0500	0	1	0.298	0	82	82
89	1	605	9	2	3	0.0551	0.0500	0	1	0.470	0	82	82
89	1	606	1	2	2	0.0551	0.0500	1	0	0.523	0	0	82
89	1	607	9	1	3	0.0551	0.0500	1	1	0.614	0	0	82
89	1	608	0	1	1	0.0551	0.0500	0	1	0.240	10	0	0
89	1	609	0	1	1	0.0551	0.0500	0	1	0.372	10	0	0
89	1	610	0	2	1	0.0551	0.0500	1	0	0.515	0	82	0
89	1	611	9	2	2	0.0551	0.0500	1	0	1.061	0	0	82
89	1	612	1	2	3	0.0551	0.0500	1	1	0.515	83	0	82
89	1	613	1	1	2	0.0551	0.0500	1	0	0.561	0	82	0
89	1	614	1	1	3	0.0551	0.0500	1	1	0.513	84	82	0
89	1	615	0	2	3	0.0551	0.0500	0	1	0.365	10	0	0
89	1	616	9	2	3	0.0551	0.0500	0	1	0.521	0	0	0
89	1	617	1	1	1	0.0551	0.0500	0	1	0.527	82	82	82
89	1	618	0	2	2	0.0551	0.0500	1	0	0.610	0	82	0
89	1	619	0	2	3	0.0551	0.0500	1	1	0.698	7	82	0
89	1	620	9	1	1	0.0551	0.0500	0	0	0.652	0	0	0
89	1	621	9	1	3	0.0551	0.0500	1	1	0.538	0	82	0
89	1	622	0	1	3	0.0551	0.0500	0	1	0.079	10	0	0
89	1	623	1	2	2	0.0551	0.0500	0	1	0.410	94	82	82
89	1	624	1	2	2	0.0551	0.0500	0	1	0.559	79	82	82
89	1	625	1	2	2	0.0551	0.0500	1	1	0.509	84	0	82
89	1	626	0	2	3	0.0551	0.0500	1	1	0.771	6	82	0
89	1	627	0	1	1	0.0551	0.0500	0	1	0.274	10	0	0
89	1	628	0	1	1	0.0551	0.0500	0	1	0.533	8	0	0
89	1	629	0	1	3	0.0551	0.0500	1	1	0.409	9	0	82
89	1	630	0	1	3	0.0551	0.0500	0	0	0.442	0	0	0
89	1	631	1	1	3	0.0551	0.0500	0	1	0.682	67	82	82
89	1	632	9	2	2	0.0551	0.0500	1	1	0.567	0	82	0
89	1	633	0	1	2	0.0551	0.0500	1	0	0.607	0	0	82
89	1	634	1	2	2	0.0551	0.0500	0	1	0.412	94	82	82
89	1	635	0	2	3	0.0551	0.0500	1	0	0.374	0	82	0
89	1	636	1	1	3	0.0551	0.0500	0	0	0.702	0	82	82
89	1	637	0	2	2	0.0551	0.0500	1	1	0.544	8	82	0
89	1	638	0	2	3	0.0551	0.0500	1	1	0.623	7	82	0
89	1	639	0	2	3	0.0551	0.0500	1	1	0.601	7	82	0
89	1	640	1	1	1	0.0551	0.0500	0	1	0.496	85	82	82
89	1	641	1	2	2	0.0551	0.0500	1	1	0.454	90	0	82
89	1	642	0	1	1	0.0551	0.0500	1	0	0.678	0	0	82
89	1	643	9	2	2	0.0551	0.0500	0	1	0.479	0	0	0
89	1	644	1	2	2	0.0551	0.0500	1	1	0.530	82	0	82
89	1	645	1	2	3	0.0551	0.0500	1	1	0.371	98	0	82
89	1	646	1	2	3	0.0551	0.0500	0	1	0.315	100	82	82
89	1	647	1	1	3	0.0551	0.0500	1	1	0.388	96	82	0
89	1	648	1	2	2	0.0551	0.0500	0	1	0.470	88	82	82
89	1	649	0	2	3	0.0551	0.0500	1	0	0.370	0	82	0
89	1	650	0	1	3	0.0551	0.0500	1	1	0.401	9	0	82
89	1	651	0	2	2	0.0551	0.0500	0	1	0.105	10	0	0
89	1	652	1	2	3	0.0551	0.0500	0	1	0.431	92	82	82
89	1	653	1	2	3	0.0551	0.0500	0	1	0.365	99	82	82
89	1	654	9	2	1	0.0551	0.0500	0	0	0.208	0	82	82
89	1	655	1	2	3	0.0551	0.0500	1	0	0.419	0	0	82
89	1	656	0	1	3	0.0551	0.0500	0	1	0.378	10	0	0
89	1	657	9	2	2	0.0551	0.0500	1	0	0.362	0	0	82
89	1	658	1	1	3	0.0551	0.0500	0	1	0.258	100	82	82
89	1	659	0	2	2	0.0551	0.0500	1	1	0.607	7	82	0
89	1	660	0	2	1	0.0551	0.0500	0	0	0.215	0	0	0
89	1	661	9	1	1	0.0551	0.0500	0	1	0.298	0	82	82
89	1	662	1	2	2	0.0551	0.0500	1	1	0.475	88	0	82
89	1	663	1	2	3	0.0551	0.0500	1	1	0.442	91	0	82
89	1	664	1	1	2	0.0551	0.0500	0	1	0.311	100	82	82
89	1	665	0	2	2	0.0551	0.0500	1	1	0.433	9	82	0
89	1	666	9	1	1	0.0551	0.0500	1	0	0.331	0	82	0
89	1	667	0	1	3	0.0551	0.0500	1	1	0.456	9	0	82
89	1	668	9	1	3	0.0551	0.0500	1	1	0.393	0	82	0
89	1	669	0	1	3	0.0551	0.0500	0	1	0.144	10	0	0
89	1	670	0	1	1	0.0551	0.0500	0	0	1.216	0	0	0
89	1	671	0	1	3	0.0551	0.0500	1	1	0.833	5	0	82
89	1	672	0	1	1	0.0551	0.0500	1	1	0.570	8	0	82
89	1	673	0	2	3	0.0551	0.0500	0	1	0.215	10	0	0
89	1	674	1	2	3	0.0551	0.0500	0	1	0.461	89	82	82
89	1	675	0	1	3	0.0551	0.0500	1	0	0.628	0	0	82
89	1	676	1	2	2	0.0551	0.0500	0	1	0.456	89	82	82
89	1	677	0	2	3	0.0551	0.0500	0	1	0.169	10	0	0
89	1	678	0	1	3	0.0551	0.0500	1	0	0.297	0	0	82
89	1	679	0	1	1	0.0551	0.0500	1	1	0.693	7	0	82
89	1	680	0	2	3	0.0551	0.0500	0	1	0.306	10	0	0
89	1	681	0	1	1	0.0551	0.0500	1	0	0.636	0	0	82
89	1	682	0	2	3	0.0551	0.0500	0	1	0.182	10	0	0
89	1	683	1	1	1	0.0551	0.0500	1	0	0.343	0	82	0
89	1	684	9	2	3	0.0551	0.0500	0	1	0.178	0	0	0
89	1	685	0	2	3	0.0551	0.0500	1	1	0.530	8	82	0
89	1	686	9	2	3	0.0551	0.0500	0	1	0.130	0	0	0
89	1	687	1	1	1	0.0551	0.0500	1	0	0.366	0	82	0
89	1	688	1	2	2	0.0551	0.0500	1	0	0.575	0	0	82
89	1	689	0	1	1	0.0551	0.0500	0	0	0.822	0	0	0
89	1	690	0	1	2	0.0551	0.0500	0	1	0.284	10	0	0
89	1	691	1	2	3	0.0551	0.0500	0	1	0.413	94	82	82
89	1	692	9	1	2	0.0551	0.0500	1	1	0.699	0	0	82
89	1	693	1	1	1	0.0551	0.0500	0	1	0.479	87	82	82
89	1	694	1	1	3	0.0551	0.0500	0	1	0.460	89	82	82
89	1	695	0	1	3	0.0551	0.0500	0	1	0.473	9	0	0
89	1	696	0	2	2	0.0551	0.0500	1	0	0.529	0	82	0
89	1	697	0	2	2	0.0551	0.0500	0	1	0.342	10	0	0
89	1	698	1	1	3	0.0551	0.0500	1	1	0.464	89	82	0
89	1	699	0	2	2	0.0551	0.0500	1	0	0.515	0	82	0
89	1	700	0	2	3	0.0551	0.0500	1	1	0.705	6	82	0
89	1	701	1	2	2	0.0551	0.0500	0	1	0.425	93	82	82
89	1	702	1	1	3	0.0551	0.0500	0	0	1.336	0	82	82
89	1	703	9	1	3	0.0551	0.0500	1	1	0.503	0	0	82
89	1	704	1	1	3	0.0551	0.0500	1	0	0.700	0	82	0
89	1	705	1	2	2	0.0551	0.0500	0	1	0.471	88	82	82
89	1	706	0	1	2	0.0551	0.0500	0	1	0.120	10	0	0
89	1	707	0	1	2	0.0551	0.0500	1	1	0.520	8	0	82
89	1	708	1	1	1	0.0551	0.0500	1	1	0.526	82	82	0
89	1	709	9	1	2	0.0551	0.0500	0	1	0.808	0	82	82
89	1	710	9	1	1	0.0551	0.0500	0	1	0.473	0	82	82
89	1	711	0	2	3	0.0551	0.0500	0	1	0.208	10	0	0
89	1	712	0	1	3	0.0551	0.0500	1	0	0.542	0	0	82
89	1	713	9	2	2	0.0551	0.0500	0	1	0.442	0	82	82
89	1	714	1	2	2	0.0551	0.0500	1	1	0.430	92	0	82
89	1	715	1	1	1	0.0551	0.0500	0	1	0.419	93	82	82
89	1	716	0	1	1	0.0551	0.0500	0	1	0.106	10	0	0
89	1	717	0	2	3	0.0551	0.0500	0	1	0.589	8	0	0
89	1	718	9	1	1	0.0551	0.0500	1	1	0.513	0	0	82
89	1	719	0	2	3	0.0551	0.0500	1	1	0.759	6	82	0
89	1	720	9	2	3	0.0551	0.0500	1	0	0.157	0	82	0
