sub	sess	t	rew	loc	cue	co1	co2	or	resp	rt	rew_tot	left_col	right_col
36	1	1	1	1	3	0.0500	0.1142	0	0	0.576	0	0	0
36	1	2	1	1	2	0.0500	0.1142	1	1	0.726	62	0	82
36	1	3	9	2	2	0.0500	0.1142	1	1	0.431	0	0	82
36	1	4	0	2	3	0.0500	0.1142	1	1	0.462	9	0	82
36	1	5	0	1	1	0.0500	0.1142	1	1	0.425	9	82	0
36	1	6	1	1	3	0.0500	0.1142	0	1	0.454	90	0	0
36	1	7	0	2	3	0.0500	0.1142	0	0	0.416	0	82	82
36	1	8	0	1	1	0.0500	0.1142	0	0	0.373	0	82	82
36	1	9	1	2	2	0.0500	0.1142	0	0	0.558	0	0	0
36	1	10	1	2	3	0.0500	0.1142	1	1	0.395	95	82	0
36	1	11	1	2	2	0.0500	0.1142	1	1	0.469	88	82	0
36	1	12	1	2	1	0.0500	0.1142	1	1	0.350	100	82	0
36	1	13	0	1	1	0.0500	0.1142	0	1	0.410	9	82	82
36	1	14	1	1	1	0.0500	0.1142	0	1	0.452	90	0	0
36	1	15	0	1	1	0.0500	0.1142	1	1	0.443	9	82	0
36	1	16	1	1	1	0.0500	0.1142	1	1	0.308	100	0	82
36	1	17	0	1	3	0.0500	0.1142	1	1	0.391	10	82	0
36	1	18	0	2	2	0.0500	0.1142	0	1	0.394	10	82	82
36	1	19	9	1	3	0.0500	0.1142	1	1	0.409	0	82	0
36	1	20	0	2	2	0.0500	0.1142	0	1	0.474	9	82	82
36	1	21	9	2	1	0.0500	0.1142	1	1	0.441	0	82	0
36	1	22	1	2	3	0.0500	0.1142	1	1	0.442	91	82	0
36	1	23	1	1	3	0.0500	0.1142	1	1	0.344	100	0	82
36	1	24	1	2	2	0.0500	0.1142	1	1	0.414	94	82	0
36	1	25	0	1	1	0.0500	0.1142	0	1	0.383	10	82	82
36	1	26	1	2	3	0.0500	0.1142	0	0	0.480	0	0	0
36	1	27	1	2	3	0.0500	0.1142	0	1	0.502	85	0	0
36	1	28	0	2	2	0.0500	0.1142	1	0	0.397	0	0	82
36	1	29	0	2	1	0.0500	0.1142	1	1	0.425	9	0	82
36	1	30	9	1	3	0.0500	0.1142	1	1	0.540	0	82	0
36	1	31	1	2	1	0.0500	0.1142	1	1	0.394	96	82	0
36	1	32	0	1	3	0.0500	0.1142	1	0	0.488	0	82	0
36	1	33	9	1	3	0.0500	0.1142	0	1	0.348	0	0	0
36	1	34	1	2	2	0.0500	0.1142	1	1	0.341	100	82	0
36	1	35	1	2	3	0.0500	0.1142	1	0	0.377	0	82	0
36	1	36	9	2	2	0.0500	0.1142	1	1	0.400	0	0	82
36	1	37	0	2	2	0.0500	0.1142	1	0	0.365	0	0	82
36	1	38	1	1	3	0.0500	0.1142	0	0	0.364	0	0	0
36	1	39	9	1	1	0.0500	0.1142	0	0	0.414	0	82	82
36	1	40	9	1	1	0.0500	0.1142	1	1	0.356	0	82	0
36	1	41	1	2	2	0.0500	0.1142	0	1	0.385	97	0	0
36	1	42	0	2	2	0.0500	0.1142	0	1	0.387	10	82	82
36	1	43	0	1	1	0.0500	0.1142	1	0	0.540	0	82	0
36	1	44	0	1	1	0.0500	0.1142	0	1	0.356	10	82	82
36	1	45	9	1	3	0.0500	0.1142	0	1	0.355	0	0	0
36	1	46	1	2	2	0.0500	0.1142	0	1	0.469	88	0	0
36	1	47	1	2	2	0.0500	0.1142	1	1	0.371	98	82	0
36	1	48	0	1	2	0.0500	0.1142	1	1	0.370	10	82	0
36	1	49	9	2	1	0.0500	0.1142	0	1	0.385	0	82	82
36	1	50	1	2	3	0.0500	0.1142	0	0	0.475	0	0	0
36	1	51	0	1	3	0.0500	0.1142	0	1	0.479	9	82	82
36	1	52	1	2	3	0.0500	0.1142	1	1	0.423	93	82	0
36	1	53	1	2	2	0.0500	0.1142	0	1	0.369	98	0	0
36	1	54	0	1	3	0.0500	0.1142	1	1	0.359	10	82	0
36	1	55	1	1	1	0.0500	0.1142	1	1	0.373	98	0	82
36	1	56	1	2	1	0.0500	0.1142	0	1	0.338	100	0	0
36	1	57	9	1	3	0.0500	0.1142	1	1	0.338	0	0	82
36	1	58	0	2	2	0.0500	0.1142	1	0	0.422	0	0	82
36	1	59	1	1	1	0.0500	0.1142	1	1	0.360	99	0	82
36	1	60	9	1	3	0.0500	0.1142	1	1	0.369	0	82	0
36	1	61	0	1	3	0.0500	0.1142	1	1	0.445	9	82	0
36	1	62	1	1	3	0.0500	0.1142	1	1	0.382	97	0	82
36	1	63	1	2	2	0.0500	0.1142	1	1	0.391	96	82	0
36	1	64	1	2	3	0.0500	0.1142	0	1	0.375	98	0	0
36	1	65	9	1	2	0.0500	0.1142	0	0	0.393	0	0	0
36	1	66	0	1	1	0.0500	0.1142	0	0	0.526	0	82	82
36	1	67	1	2	2	0.0500	0.1142	1	1	0.404	95	82	0
36	1	68	1	1	3	0.0500	0.1142	1	1	0.341	100	0	82
36	1	69	9	1	2	0.0500	0.1142	1	1	0.380	0	82	0
36	1	70	0	2	2	0.0500	0.1142	0	1	0.444	9	82	82
36	1	71	0	2	3	0.0500	0.1142	1	1	0.321	10	0	82
36	1	72	9	1	3	0.0500	0.1142	0	1	0.387	0	0	0
36	1	73	0	2	3	0.0500	0.1142	0	1	0.477	9	82	82
36	1	74	0	2	1	0.0500	0.1142	0	1	0.375	10	82	82
36	1	75	0	2	3	0.0500	0.1142	1	1	0.428	9	0	82
36	1	76	1	2	1	0.0500	0.1142	1	1	0.408	94	82	0
36	1	77	1	2	2	0.0500	0.1142	1	1	0.335	100	82	0
36	1	78	0	2	3	0.0500	0.1142	0	1	0.361	10	82	82
36	1	79	1	1	2	0.0500	0.1142	0	0	0.387	0	0	0
36	1	80	9	1	1	0.0500	0.1142	0	0	0.379	0	82	82
36	1	81	0	1	3	0.0500	0.1142	1	1	0.383	10	82	0
36	1	82	0	2	3	0.0500	0.1142	0	1	0.349	10	82	82
36	1	83	0	1	2	0.0500	0.1142	1	1	0.362	10	82	0
36	1	84	0	2	2	0.0500	0.1142	1	0	0.524	0	0	82
36	1	85	1	2	3	0.0500	0.1142	0	1	0.382	97	0	0
36	1	86	9	2	3	0.0500	0.1142	0	1	0.339	0	0	0
36	1	87	0	2	3	0.0500	0.1142	1	1	0.351	10	0	82
36	1	88	1	1	1	0.0500	0.1142	0	0	0.384	0	0	0
36	1	89	0	1	2	0.0500	0.1142	0	1	0.453	9	82	82
36	1	90	0	1	3	0.0500	0.1142	1	0	0.432	0	82	0
36	1	91	0	2	2	0.0500	0.1142	1	1	0.449	9	0	82
36	1	92	1	2	1	0.0500	0.1142	0	1	0.419	93	0	0
36	1	93	0	1	1	0.0500	0.1142	0	0	0.352	0	82	82
36	1	94	1	1	3	0.0500	0.1142	1	1	0.632	72	0	82
36	1	95	9	2	3	0.0500	0.1142	0	1	0.357	0	0	0
36	1	96	1	1	1	0.0500	0.1142	0	0	0.353	0	0	0
36	1	97	0	2	2	0.0500	0.1142	0	1	0.376	10	82	82
36	1	98	1	1	1	0.0500	0.1142	0	1	0.401	95	0	0
36	1	99	0	1	1	0.0500	0.1142	0	1	0.384	10	82	82
36	1	100	1	2	3	0.0500	0.1142	1	1	0.475	87	82	0
36	1	101	9	1	1	0.0500	0.1142	1	1	0.515	0	0	82
36	1	102	0	1	3	0.0500	0.1142	1	1	0.404	9	82	0
36	1	103	0	1	1	0.0500	0.1142	1	1	0.407	9	82	0
36	1	104	9	1	2	0.0500	0.1142	1	1	0.368	0	0	82
36	1	105	9	1	1	0.0500	0.1142	0	0	0.361	0	82	82
36	1	106	9	2	3	0.0500	0.1142	1	1	0.436	0	82	0
36	1	107	0	2	2	0.0500	0.1142	0	1	0.363	10	82	82
36	1	108	9	2	3	0.0500	0.1142	1	1	0.478	0	0	82
36	1	109	0	2	3	0.0500	0.1142	1	1	0.412	9	0	82
36	1	110	9	2	2	0.0500	0.1142	1	1	0.366	0	0	82
36	1	111	0	2	2	0.0500	0.1142	0	1	0.418	9	82	82
36	1	112	9	1	1	0.0500	0.1142	0	0	0.381	0	0	0
36	1	113	0	2	1	0.0500	0.1142	0	1	0.359	10	82	82
36	1	114	0	2	2	0.0500	0.1142	1	1	0.324	10	0	82
36	1	115	9	1	1	0.0500	0.1142	0	0	0.355	0	82	82
36	1	116	1	1	3	0.0500	0.1142	1	1	0.340	100	0	82
36	1	117	1	2	3	0.0500	0.1142	1	1	0.345	100	82	0
36	1	118	9	2	3	0.0500	0.1142	1	1	0.437	0	0	82
36	1	119	1	2	2	0.0500	0.1142	0	0	0.379	0	0	0
36	1	120	0	2	2	0.0500	0.1142	1	1	0.369	10	0	82
36	1	121	1	2	3	0.0500	0.1142	1	1	0.395	96	82	0
36	1	122	1	1	1	0.0500	0.1142	0	1	0.506	84	0	0
36	1	123	0	1	3	0.0500	0.1142	0	1	0.503	8	82	82
36	1	124	0	1	1	0.0500	0.1142	1	0	0.531	0	82	0
36	1	125	0	1	1	0.0500	0.1142	1	1	0.436	9	82	0
36	1	126	1	2	3	0.0500	0.1142	0	1	0.462	89	0	0
36	1	127	0	2	3	0.0500	0.1142	1	1	0.490	9	0	82
36	1	128	1	1	1	0.0500	0.1142	1	1	0.364	99	0	82
36	1	129	0	1	3	0.0500	0.1142	1	1	0.442	9	82	0
36	1	130	1	2	3	0.0500	0.1142	1	1	0.365	99	82	0
36	1	131	9	2	1	0.0500	0.1142	1	1	0.436	0	0	82
36	1	132	0	2	1	0.0500	0.1142	0	1	0.362	10	82	82
36	1	133	1	2	3	0.0500	0.1142	1	1	0.339	100	82	0
36	1	134	1	1	3	0.0500	0.1142	1	1	0.324	100	0	82
36	1	135	0	2	2	0.0500	0.1142	0	1	0.309	10	82	82
36	1	136	0	1	1	0.0500	0.1142	1	1	0.322	10	82	0
36	1	137	9	1	3	0.0500	0.1142	0	0	0.355	0	82	82
36	1	138	0	2	1	0.0500	0.1142	1	0	0.435	0	0	82
36	1	139	0	2	3	0.0500	0.1142	1	1	0.409	9	0	82
36	1	140	0	2	2	0.0500	0.1142	1	1	0.434	9	0	82
36	1	141	0	1	2	0.0500	0.1142	1	1	0.426	9	82	0
36	1	142	9	1	1	0.0500	0.1142	1	1	0.349	0	82	0
36	1	143	0	2	2	0.0500	0.1142	1	1	0.408	9	0	82
36	1	144	0	2	3	0.0500	0.1142	1	1	0.416	9	0	82
36	1	145	0	1	3	0.0500	0.1142	0	0	0.364	0	82	82
36	1	146	0	1	1	0.0500	0.1142	1	1	0.476	9	82	0
36	1	147	0	1	3	0.0500	0.1142	0	1	0.357	10	82	82
36	1	148	0	2	2	0.0500	0.1142	1	1	0.305	10	0	82
36	1	149	0	1	3	0.0500	0.1142	0	1	0.431	9	82	82
36	1	150	1	1	1	0.0500	0.1142	1	1	0.299	100	0	82
36	1	151	0	2	2	0.0500	0.1142	0	1	0.374	10	82	82
36	1	152	0	2	2	0.0500	0.1142	0	0	0.394	0	82	82
36	1	153	0	1	3	0.0500	0.1142	1	1	0.370	10	82	0
36	1	154	1	1	3	0.0500	0.1142	0	1	0.426	92	0	0
36	1	155	1	2	2	0.0500	0.1142	1	1	0.355	100	82	0
36	1	156	0	2	3	0.0500	0.1142	0	1	0.385	10	82	82
36	1	157	0	1	3	0.0500	0.1142	0	0	0.362	0	82	82
36	1	158	9	2	3	0.0500	0.1142	0	0	0.442	0	82	82
36	1	159	0	2	3	0.0500	0.1142	0	1	0.444	9	82	82
36	1	160	0	2	3	0.0500	0.1142	1	1	0.360	10	0	82
36	1	161	1	1	1	0.0500	0.1142	1	1	0.488	86	0	82
36	1	162	0	1	3	0.0500	0.1142	1	1	0.418	9	82	0
36	1	163	1	1	3	0.0500	0.1142	0	0	0.366	0	0	0
36	1	164	0	1	3	0.0500	0.1142	0	1	0.412	9	82	82
36	1	165	9	2	3	0.0500	0.1142	0	1	0.352	0	82	82
36	1	166	0	2	3	0.0500	0.1142	0	1	0.365	10	82	82
36	1	167	9	2	3	0.0500	0.1142	0	1	0.313	0	82	82
36	1	168	0	1	1	0.0500	0.1142	1	1	0.466	9	82	0
36	1	169	0	2	2	0.0500	0.1142	0	1	0.372	10	82	82
36	1	170	0	1	3	0.0500	0.1142	0	0	0.398	0	82	82
36	1	171	1	1	1	0.0500	0.1142	0	1	0.426	92	0	0
36	1	172	0	2	3	0.0500	0.1142	0	1	0.338	10	82	82
36	1	173	1	1	3	0.0500	0.1142	0	1	0.396	95	0	0
36	1	174	0	1	2	0.0500	0.1142	0	1	0.397	10	82	82
36	1	175	1	1	1	0.0500	0.1142	0	0	0.333	0	0	0
36	1	176	1	2	2	0.0500	0.1142	0	1	0.389	96	0	0
36	1	177	0	2	3	0.0500	0.1142	1	1	0.472	9	0	82
36	1	178	1	2	2	0.0500	0.1142	1	0	0.524	0	82	0
36	1	179	1	1	1	0.0500	0.1142	0	1	0.523	83	0	0
36	1	180	9	2	3	0.0500	0.1142	1	1	0.471	0	82	0
36	1	181	0	2	2	0.0500	0.1142	0	1	0.367	10	82	82
36	1	182	9	2	2	0.0500	0.1142	1	1	0.390	0	82	0
36	1	183	9	2	2	0.0500	0.1142	1	1	0.471	0	0	82
36	1	184	0	2	3	0.0500	0.1142	0	1	0.335	10	82	82
36	1	185	1	2	3	0.0500	0.1142	1	1	0.431	92	82	0
36	1	186	1	2	2	0.0500	0.1142	1	1	0.324	100	82	0
36	1	187	0	2	3	0.0500	0.1142	0	1	0.360	10	82	82
36	1	188	9	1	1	0.0500	0.1142	1	1	0.359	0	82	0
36	1	189	1	2	2	0.0500	0.1142	1	1	0.406	94	82	0
36	1	190	0	1	1	0.0500	0.1142	1	1	0.336	10	82	0
36	1	191	0	1	1	0.0500	0.1142	0	0	0.341	0	82	82
36	1	192	9	1	1	0.0500	0.1142	1	1	0.483	0	0	82
36	1	193	0	1	3	0.0500	0.1142	0	0	0.393	0	82	82
36	1	194	1	1	3	0.0500	0.1142	0	1	0.392	96	0	0
36	1	195	1	1	3	0.0500	0.1142	0	1	0.427	92	0	0
36	1	196	0	1	3	0.0500	0.1142	0	0	0.363	0	82	82
36	1	197	9	2	2	0.0500	0.1142	0	1	0.384	0	0	0
36	1	198	0	1	1	0.0500	0.1142	0	1	0.404	9	82	82
36	1	199	1	1	3	0.0500	0.1142	0	1	0.412	94	0	0
36	1	200	1	1	3	0.0500	0.1142	0	1	0.343	100	0	0
36	1	201	1	1	3	0.0500	0.1142	1	0	0.498	0	0	82
36	1	202	0	1	1	0.0500	0.1142	0	1	0.362	10	82	82
36	1	203	1	1	1	0.0500	0.1142	1	1	0.373	98	0	82
36	1	204	0	1	1	0.0500	0.1142	1	1	0.486	9	82	0
36	1	205	0	2	3	0.0500	0.1142	1	0	0.410	0	0	82
36	1	206	1	2	1	0.0500	0.1142	0	1	0.374	98	0	0
36	1	207	9	2	2	0.0500	0.1142	0	1	0.406	0	0	0
36	1	208	1	2	2	0.0500	0.1142	0	1	0.317	100	0	0
36	1	209	9	2	2	0.0500	0.1142	1	1	0.370	0	82	0
36	1	210	0	1	1	0.0500	0.1142	0	1	0.368	10	82	82
36	1	211	1	1	2	0.0500	0.1142	1	1	0.345	100	0	82
36	1	212	0	2	1	0.0500	0.1142	1	0	0.376	0	0	82
36	1	213	1	1	3	0.0500	0.1142	1	1	0.392	96	0	82
36	1	214	0	1	1	0.0500	0.1142	1	1	0.334	10	82	0
36	1	215	9	1	3	0.0500	0.1142	0	1	0.416	0	82	82
36	1	216	1	1	2	0.0500	0.1142	1	1	0.365	99	0	82
36	1	217	1	1	1	0.0500	0.1142	1	1	0.347	100	0	82
36	1	218	1	2	3	0.0500	0.1142	0	1	0.348	100	0	0
36	1	219	1	1	3	0.0500	0.1142	1	1	0.365	99	0	82
36	1	220	0	1	1	0.0500	0.1142	1	1	0.393	10	82	0
36	1	221	1	1	1	0.0500	0.1142	0	0	0.338	0	0	0
36	1	222	1	2	2	0.0500	0.1142	1	1	0.332	100	82	0
36	1	223	9	1	3	0.0500	0.1142	1	1	0.381	0	0	82
36	1	224	0	2	3	0.0500	0.1142	0	1	0.369	10	82	82
36	1	225	0	2	2	0.0500	0.1142	1	1	0.343	10	0	82
36	1	226	0	2	3	0.0500	0.1142	1	1	0.388	10	0	82
36	1	227	1	1	1	0.0500	0.1142	1	1	0.371	98	0	82
36	1	228	1	2	2	0.0500	0.1142	1	1	0.371	98	82	0
36	1	229	1	1	1	0.0500	0.1142	0	1	0.432	92	0	0
36	1	230	1	1	1	0.0500	0.1142	1	1	0.335	100	0	82
36	1	231	0	2	3	0.0500	0.1142	0	1	0.368	10	82	82
36	1	232	1	1	3	0.0500	0.1142	0	0	0.396	0	0	0
36	1	233	0	1	1	0.0500	0.1142	0	1	0.408	9	82	82
36	1	234	1	1	1	0.0500	0.1142	1	1	0.401	95	0	82
36	1	235	1	2	3	0.0500	0.1142	0	1	0.329	100	0	0
36	1	236	9	1	1	0.0500	0.1142	1	0	0.484	0	0	82
36	1	237	0	2	3	0.0500	0.1142	1	0	0.504	0	0	82
36	1	238	1	2	2	0.0500	0.1142	0	1	0.347	100	0	0
36	1	239	0	1	3	0.0500	0.1142	1	1	0.341	10	82	0
36	1	240	0	1	1	0.0500	0.1142	0	1	0.399	10	82	82
36	1	241	0	1	3	0.0500	0.1142	1	0	0.671	0	82	0
36	1	242	1	2	3	0.0500	0.1142	0	1	0.384	97	0	0
36	1	243	0	1	1	0.0500	0.1142	1	0	0.551	0	82	0
36	1	244	1	2	3	0.0500	0.1142	0	1	0.329	100	0	0
36	1	245	1	1	1	0.0500	0.1142	0	0	0.354	0	0	0
36	1	246	1	1	2	0.0500	0.1142	0	0	0.379	0	0	0
36	1	247	9	1	3	0.0500	0.1142	1	0	0.506	0	0	82
36	1	248	9	2	2	0.0500	0.1142	0	1	0.360	0	0	0
36	1	249	1	1	3	0.0500	0.1142	0	1	0.411	94	0	0
36	1	250	0	2	3	0.0500	0.1142	0	1	0.355	10	82	82
36	1	251	9	2	3	0.0500	0.1142	1	1	0.392	0	82	0
36	1	252	0	2	1	0.0500	0.1142	0	1	0.343	10	82	82
36	1	253	1	1	1	0.0500	0.1142	0	0	0.396	0	0	0
36	1	254	0	1	1	0.0500	0.1142	0	1	0.454	9	82	82
36	1	255	1	2	3	0.0500	0.1142	1	1	0.368	98	82	0
36	1	256	1	1	3	0.0500	0.1142	1	1	0.398	95	0	82
36	1	257	9	2	2	0.0500	0.1142	1	1	0.388	0	82	0
36	1	258	9	2	3	0.0500	0.1142	0	0	0.408	0	0	0
36	1	259	9	2	2	0.0500	0.1142	0	1	0.390	0	82	82
36	1	260	0	1	2	0.0500	0.1142	1	1	0.380	10	82	0
36	1	261	0	2	2	0.0500	0.1142	0	1	0.379	10	82	82
36	1	262	1	2	2	0.0500	0.1142	0	1	0.343	100	0	0
36	1	263	1	2	3	0.0500	0.1142	0	1	0.376	97	0	0
36	1	264	0	1	3	0.0500	0.1142	0	0	0.350	0	82	82
36	1	265	1	2	3	0.0500	0.1142	0	1	0.332	100	0	0
36	1	266	9	1	1	0.0500	0.1142	1	1	0.395	0	0	82
36	1	267	0	2	2	0.0500	0.1142	1	1	0.435	9	0	82
36	1	268	1	2	2	0.0500	0.1142	0	1	0.362	99	0	0
36	1	269	9	1	3	0.0500	0.1142	0	0	0.431	0	82	82
36	1	270	0	1	3	0.0500	0.1142	0	1	0.505	8	82	82
36	1	271	1	1	3	0.0500	0.1142	1	1	0.398	95	0	82
36	1	272	9	2	2	0.0500	0.1142	0	1	0.342	0	82	82
36	1	273	1	1	3	0.0500	0.1142	1	1	0.363	99	0	82
36	1	274	1	1	3	0.0500	0.1142	1	1	0.375	97	0	82
36	1	275	1	1	1	0.0500	0.1142	0	1	0.410	94	0	0
36	1	276	0	2	2	0.0500	0.1142	1	1	0.479	9	0	82
36	1	277	1	2	1	0.0500	0.1142	0	1	0.331	100	0	0
36	1	278	0	1	3	0.0500	0.1142	0	1	0.419	9	82	82
36	1	279	1	1	1	0.0500	0.1142	0	0	0.352	0	0	0
36	1	280	0	1	3	0.0500	0.1142	1	0	0.511	0	82	0
36	1	281	1	2	2	0.0500	0.1142	0	1	0.367	98	0	0
36	1	282	9	1	1	0.0500	0.1142	1	1	0.411	0	82	0
36	1	283	1	1	1	0.0500	0.1142	0	0	0.352	0	0	0
36	1	284	1	2	3	0.0500	0.1142	0	1	0.371	98	0	0
36	1	285	0	1	1	0.0500	0.1142	1	1	0.550	8	82	0
36	1	286	1	1	1	0.0500	0.1142	0	0	0.387	0	0	0
36	1	287	9	2	3	0.0500	0.1142	1	0	0.439	0	0	82
36	1	288	9	1	1	0.0500	0.1142	0	1	0.380	0	0	0
36	1	289	0	2	3	0.0500	0.1142	1	1	0.496	9	0	82
36	1	290	9	2	3	0.0500	0.1142	0	1	0.395	0	82	82
36	1	291	1	1	1	0.0500	0.1142	1	0	0.392	0	0	82
36	1	292	1	1	3	0.0500	0.1142	1	1	0.392	96	0	82
36	1	293	9	2	1	0.0500	0.1142	0	1	0.402	0	0	0
36	1	294	9	2	2	0.0500	0.1142	1	1	0.376	0	82	0
36	1	295	9	1	3	0.0500	0.1142	1	1	0.356	0	0	82
36	1	296	1	1	3	0.0500	0.1142	0	1	0.347	100	0	0
36	1	297	0	2	3	0.0500	0.1142	0	1	0.429	9	82	82
36	1	298	9	2	3	0.0500	0.1142	0	1	0.530	0	0	0
36	1	299	9	1	2	0.0500	0.1142	0	1	0.446	0	82	82
36	1	300	1	2	1	0.0500	0.1142	1	1	0.310	100	82	0
36	1	301	1	1	2	0.0500	0.1142	1	1	0.439	91	0	82
36	1	302	0	1	2	0.0500	0.1142	0	1	0.403	9	82	82
36	1	303	1	1	1	0.0500	0.1142	1	1	0.310	100	0	82
36	1	304	1	2	3	0.0500	0.1142	1	1	0.313	100	82	0
36	1	305	0	2	3	0.0500	0.1142	1	1	0.338	10	0	82
36	1	306	9	2	2	0.0500	0.1142	0	1	0.328	0	82	82
36	1	307	0	2	2	0.0500	0.1142	0	1	0.303	10	82	82
36	1	308	9	1	3	0.0500	0.1142	1	1	0.456	0	82	0
36	1	309	1	1	2	0.0500	0.1142	0	1	0.436	91	0	0
36	1	310	0	2	2	0.0500	0.1142	0	1	0.358	10	82	82
36	1	311	1	1	3	0.0500	0.1142	0	1	0.351	100	0	0
36	1	312	9	1	3	0.0500	0.1142	0	1	0.318	0	0	0
36	1	313	1	2	3	0.0500	0.1142	1	1	0.380	97	82	0
36	1	314	9	2	3	0.0500	0.1142	1	1	0.421	0	0	82
36	1	315	1	2	3	0.0500	0.1142	0	1	0.338	100	0	0
36	1	316	1	2	2	0.0500	0.1142	0	1	0.357	99	0	0
36	1	317	1	2	3	0.0500	0.1142	1	1	0.343	100	82	0
36	1	318	0	2	3	0.0500	0.1142	0	1	0.350	10	82	82
36	1	319	1	2	2	0.0500	0.1142	0	1	0.330	100	0	0
36	1	320	0	2	2	0.0500	0.1142	1	1	0.398	10	0	82
36	1	321	0	1	3	0.0500	0.1142	0	1	0.489	9	82	82
36	1	322	1	2	2	0.0500	0.1142	1	1	0.353	100	82	0
36	1	323	9	1	1	0.0500	0.1142	0	1	0.439	0	0	0
36	1	324	1	1	3	0.0500	0.1142	1	1	0.357	99	0	82
36	1	325	1	2	2	0.0500	0.1142	1	1	0.329	100	82	0
36	1	326	1	2	3	0.0500	0.1142	1	1	0.307	100	82	0
36	1	327	9	2	2	0.0500	0.1142	0	1	0.309	0	0	0
36	1	328	1	1	3	0.0500	0.1142	0	0	0.380	0	0	0
36	1	329	0	1	3	0.0500	0.1142	1	1	0.381	10	82	0
36	1	330	9	1	3	0.0500	0.1142	0	0	0.380	0	82	82
36	1	331	1	1	1	0.0500	0.1142	1	1	0.476	87	0	82
36	1	332	0	1	3	0.0500	0.1142	0	1	0.357	10	82	82
36	1	333	0	1	1	0.0500	0.1142	0	1	0.343	10	82	82
36	1	334	0	2	3	0.0500	0.1142	1	1	0.448	9	0	82
36	1	335	0	1	1	0.0500	0.1142	0	1	0.404	9	82	82
36	1	336	0	1	3	0.0500	0.1142	1	1	0.397	10	82	0
36	1	337	9	2	3	0.0500	0.1142	1	1	0.346	0	82	0
36	1	338	9	2	2	0.0500	0.1142	0	1	0.497	0	82	82
36	1	339	1	2	3	0.0500	0.1142	0	1	0.414	94	0	0
36	1	340	1	1	1	0.0500	0.1142	1	1	0.373	98	0	82
36	1	341	1	2	2	0.0500	0.1142	0	1	0.290	100	0	0
36	1	342	1	1	2	0.0500	0.1142	0	0	0.455	0	0	0
36	1	343	1	1	1	0.0500	0.1142	1	1	0.359	99	0	82
36	1	344	0	1	1	0.0500	0.1142	1	0	0.520	0	82	0
36	1	345	1	2	3	0.0500	0.1142	1	1	0.406	94	82	0
36	1	346	1	1	3	0.0500	0.1142	0	1	0.426	92	0	0
36	1	347	1	2	2	0.0500	0.1142	0	1	0.375	97	0	0
36	1	348	9	1	1	0.0500	0.1142	0	1	0.456	0	0	0
36	1	349	1	2	3	0.0500	0.1142	0	1	0.408	94	0	0
36	1	350	0	1	3	0.0500	0.1142	0	1	0.448	9	82	82
36	1	351	1	2	2	0.0500	0.1142	0	1	0.300	100	0	0
36	1	352	0	1	2	0.0500	0.1142	0	1	0.392	10	82	82
36	1	353	1	1	3	0.0500	0.1142	1	1	0.352	100	0	82
36	1	354	0	2	3	0.0500	0.1142	0	1	0.354	10	82	82
36	1	355	0	2	2	0.0500	0.1142	1	0	0.395	0	0	82
36	1	356	0	2	2	0.0500	0.1142	0	1	0.301	10	82	82
36	1	357	1	2	2	0.0500	0.1142	1	1	0.314	100	82	0
36	1	358	0	1	3	0.0500	0.1142	1	0	0.538	0	82	0
36	1	359	0	2	1	0.0500	0.1142	1	1	0.475	9	0	82
36	1	360	0	2	2	0.0500	0.1142	1	1	0.405	9	0	82
36	1	361	1	2	3	0.0500	0.1142	0	1	0.390	96	0	0
36	1	362	1	1	1	0.0500	0.1142	0	0	0.339	0	0	0
36	1	363	0	2	1	0.0500	0.1142	0	1	0.391	10	82	82
36	1	364	0	1	1	0.0500	0.1142	1	1	0.453	9	82	0
36	1	365	1	2	3	0.0500	0.1142	1	1	0.397	95	82	0
36	1	366	0	2	2	0.0500	0.1142	0	1	0.338	10	82	82
36	1	367	1	2	3	0.0500	0.1142	1	1	0.366	98	82	0
36	1	368	9	1	3	0.0500	0.1142	0	0	0.411	0	0	0
36	1	369	0	2	1	0.0500	0.1142	1	1	0.488	9	0	82
36	1	370	0	2	2	0.0500	0.1142	1	1	0.365	10	0	82
36	1	371	1	2	3	0.0500	0.1142	1	1	0.318	100	82	0
36	1	372	0	1	1	0.0500	0.1142	0	0	0.390	0	82	82
36	1	373	0	2	2	0.0500	0.1142	1	0	0.411	0	0	82
36	1	374	1	2	3	0.0500	0.1142	0	1	0.409	94	0	0
36	1	375	0	2	2	0.0500	0.1142	0	1	0.385	10	82	82
36	1	376	1	2	2	0.0500	0.1142	1	1	0.321	100	82	0
36	1	377	0	1	3	0.0500	0.1142	0	1	0.409	9	82	82
36	1	378	1	2	2	0.0500	0.1142	1	1	0.330	100	82	0
36	1	379	9	1	1	0.0500	0.1142	1	1	0.541	0	82	0
36	1	380	1	1	2	0.0500	0.1142	0	1	0.437	91	0	0
36	1	381	1	2	1	0.0500	0.1142	0	1	0.346	100	0	0
36	1	382	1	2	2	0.0500	0.1142	0	1	0.354	100	0	0
36	1	383	0	2	2	0.0500	0.1142	0	1	0.347	10	82	82
36	1	384	0	2	2	0.0500	0.1142	0	1	0.364	10	82	82
36	1	385	0	1	3	0.0500	0.1142	0	0	0.398	0	82	82
36	1	386	9	1	1	0.0500	0.1142	0	1	0.416	0	0	0
36	1	387	0	2	3	0.0500	0.1142	0	1	0.314	10	82	82
36	1	388	1	2	3	0.0500	0.1142	0	1	0.320	100	0	0
36	1	389	9	2	3	0.0500	0.1142	1	1	0.417	0	82	0
36	1	390	0	2	3	0.0500	0.1142	0	1	0.371	10	82	82
36	1	391	0	2	3	0.0500	0.1142	1	1	0.504	8	0	82
36	1	392	0	2	2	0.0500	0.1142	0	1	0.388	10	82	82
36	1	393	9	2	2	0.0500	0.1142	1	1	0.385	0	82	0
36	1	394	9	1	3	0.0500	0.1142	1	1	0.448	0	82	0
36	1	395	1	2	2	0.0500	0.1142	0	1	0.345	100	0	0
36	1	396	1	2	2	0.0500	0.1142	1	1	0.354	100	82	0
36	1	397	0	2	2	0.0500	0.1142	0	1	0.427	9	82	82
36	1	398	0	1	1	0.0500	0.1142	0	0	0.359	0	82	82
36	1	399	1	1	3	0.0500	0.1142	1	1	0.401	95	0	82
36	1	400	0	1	1	0.0500	0.1142	0	1	0.326	10	82	82
36	1	401	0	2	3	0.0500	0.1142	0	1	0.343	10	82	82
36	1	402	9	1	3	0.0500	0.1142	1	1	0.363	0	0	82
36	1	403	1	1	3	0.0500	0.1142	0	1	0.404	95	0	0
36	1	404	0	1	2	0.0500	0.1142	0	1	0.382	10	82	82
36	1	405	0	2	2	0.0500	0.1142	1	0	0.456	0	0	82
36	1	406	9	2	2	0.0500	0.1142	1	1	0.438	0	0	82
36	1	407	1	1	1	0.0500	0.1142	1	1	0.376	97	0	82
36	1	408	0	1	3	0.0500	0.1142	1	1	0.393	10	82	0
36	1	409	9	1	3	0.0500	0.1142	0	0	0.361	0	82	82
36	1	410	0	2	2	0.0500	0.1142	1	0	0.429	0	0	82
36	1	411	0	1	3	0.0500	0.1142	1	1	0.374	10	82	0
36	1	412	1	2	2	0.0500	0.1142	1	1	0.321	100	82	0
36	1	413	0	2	3	0.0500	0.1142	0	1	0.447	9	82	82
36	1	414	1	1	3	0.0500	0.1142	0	0	0.349	0	0	0
36	1	415	9	1	2	0.0500	0.1142	1	1	0.356	0	82	0
36	1	416	0	2	3	0.0500	0.1142	1	1	0.402	9	0	82
36	1	417	1	1	3	0.0500	0.1142	1	1	0.392	96	0	82
36	1	418	1	2	3	0.0500	0.1142	0	1	0.394	96	0	0
36	1	419	1	1	1	0.0500	0.1142	1	1	0.354	100	0	82
36	1	420	0	2	3	0.0500	0.1142	1	1	0.402	9	0	82
36	1	421	9	2	3	0.0500	0.1142	0	1	0.334	0	0	0
36	1	422	0	1	3	0.0500	0.1142	0	0	0.378	0	82	82
36	1	423	1	1	1	0.0500	0.1142	1	1	0.410	94	0	82
36	1	424	9	2	3	0.0500	0.1142	1	1	0.403	0	0	82
36	1	425	0	1	2	0.0500	0.1142	0	1	0.514	8	82	82
36	1	426	0	2	2	0.0500	0.1142	1	1	0.380	10	0	82
36	1	427	1	2	2	0.0500	0.1142	0	1	0.336	100	0	0
36	1	428	1	2	2	0.0500	0.1142	0	1	0.340	100	0	0
36	1	429	1	1	3	0.0500	0.1142	1	1	0.396	95	0	82
36	1	430	1	1	3	0.0500	0.1142	1	1	0.402	95	0	82
36	1	431	1	2	3	0.0500	0.1142	0	1	0.362	99	0	0
36	1	432	0	2	1	0.0500	0.1142	0	1	0.348	10	82	82
36	1	433	0	1	3	0.0500	0.1142	1	1	0.505	8	82	0
36	1	434	1	1	2	0.0500	0.1142	1	1	0.413	94	0	82
36	1	435	1	1	3	0.0500	0.1142	0	1	0.420	93	0	0
36	1	436	1	1	3	0.0500	0.1142	0	0	0.401	0	0	0
36	1	437	9	2	3	0.0500	0.1142	0	1	0.338	0	82	82
36	1	438	1	1	1	0.0500	0.1142	0	1	0.422	93	0	0
36	1	439	9	2	3	0.0500	0.1142	1	1	0.342	0	82	0
36	1	440	0	1	1	0.0500	0.1142	1	0	0.555	0	82	0
36	1	441	0	1	3	0.0500	0.1142	1	1	0.370	10	82	0
36	1	442	9	1	3	0.0500	0.1142	1	1	0.340	0	0	82
36	1	443	9	1	3	0.0500	0.1142	1	1	0.388	0	0	82
36	1	444	0	1	1	0.0500	0.1142	0	1	0.371	10	82	82
36	1	445	0	2	2	0.0500	0.1142	0	1	0.422	9	82	82
36	1	446	1	2	2	0.0500	0.1142	1	1	0.368	98	82	0
36	1	447	9	2	2	0.0500	0.1142	0	1	0.358	0	0	0
36	1	448	1	2	3	0.0500	0.1142	1	1	0.340	100	82	0
36	1	449	1	2	3	0.0500	0.1142	0	1	0.311	100	0	0
36	1	450	1	1	1	0.0500	0.1142	0	0	0.395	0	0	0
36	1	451	0	2	3	0.0500	0.1142	0	1	0.399	10	82	82
36	1	452	0	1	2	0.0500	0.1142	1	1	0.408	9	82	0
36	1	453	0	1	1	0.0500	0.1142	0	1	0.419	9	82	82
36	1	454	9	2	2	0.0500	0.1142	0	1	0.416	0	0	0
36	1	455	1	1	3	0.0500	0.1142	0	0	0.363	0	0	0
36	1	456	1	1	1	0.0500	0.1142	0	1	0.431	92	0	0
36	1	457	1	2	3	0.0500	0.1142	0	1	0.371	98	0	0
36	1	458	9	1	2	0.0500	0.1142	1	0	0.433	0	0	82
36	1	459	0	2	2	0.0500	0.1142	0	1	0.340	10	82	82
36	1	460	1	1	1	0.0500	0.1142	1	1	0.377	97	0	82
36	1	461	0	1	3	0.0500	0.1142	0	1	0.393	10	82	82
36	1	462	0	2	2	0.0500	0.1142	1	1	0.446	9	0	82
36	1	463	0	2	3	0.0500	0.1142	1	1	0.369	10	0	82
36	1	464	1	2	2	0.0500	0.1142	0	1	0.320	100	0	0
36	1	465	1	2	2	0.0500	0.1142	0	1	0.328	100	0	0
36	1	466	0	1	1	0.0500	0.1142	1	1	0.366	10	82	0
36	1	467	9	1	3	0.0500	0.1142	0	0	0.479	0	82	82
36	1	468	1	1	1	0.0500	0.1142	1	1	0.370	98	0	82
36	1	469	1	2	2	0.0500	0.1142	0	1	0.307	100	0	0
36	1	470	9	2	2	0.0500	0.1142	1	1	0.455	0	0	82
36	1	471	0	1	1	0.0500	0.1142	1	1	0.605	7	82	0
36	1	472	0	1	1	0.0500	0.1142	1	1	0.341	10	82	0
36	1	473	0	2	3	0.0500	0.1142	1	1	0.357	10	0	82
36	1	474	1	2	3	0.0500	0.1142	0	1	0.392	96	0	0
36	1	475	0	1	2	0.0500	0.1142	0	0	0.354	0	82	82
36	1	476	1	2	3	0.0500	0.1142	1	1	0.348	100	82	0
36	1	477	1	1	1	0.0500	0.1142	0	1	0.375	98	0	0
36	1	478	1	2	2	0.0500	0.1142	0	1	0.361	99	0	0
36	1	479	9	2	3	0.0500	0.1142	0	1	0.397	0	0	0
36	1	480	0	2	2	0.0500	0.1142	0	1	0.377	10	82	82
36	1	481	0	2	3	0.0500	0.1142	0	1	0.380	10	82	82
36	1	482	0	2	3	0.0500	0.1142	1	1	0.373	10	0	82
36	1	483	9	2	3	0.0500	0.1142	1	1	0.310	0	82	0
36	1	484	0	1	3	0.0500	0.1142	1	1	0.358	10	82	0
36	1	485	1	2	2	0.0500	0.1142	0	1	0.287	100	0	0
36	1	486	0	1	1	0.0500	0.1142	0	0	0.403	0	82	82
36	1	487	9	2	3	0.0500	0.1142	1	1	0.403	0	0	82
36	1	488	1	1	1	0.0500	0.1142	1	1	0.368	98	0	82
36	1	489	0	1	1	0.0500	0.1142	1	1	0.336	10	82	0
36	1	490	1	2	3	0.0500	0.1142	1	1	0.353	100	82	0
36	1	491	1	2	3	0.0500	0.1142	1	1	0.409	94	82	0
36	1	492	0	2	3	0.0500	0.1142	0	1	0.461	9	82	82
36	1	493	9	2	1	0.0500	0.1142	1	1	0.291	0	0	82
36	1	494	9	2	3	0.0500	0.1142	1	1	0.403	0	0	82
36	1	495	0	2	2	0.0500	0.1142	1	0	0.389	0	0	82
36	1	496	1	1	2	0.0500	0.1142	1	1	0.441	91	0	82
36	1	497	0	2	3	0.0500	0.1142	0	1	0.386	10	82	82
36	1	498	1	1	1	0.0500	0.1142	0	1	0.351	100	0	0
36	1	499	1	1	3	0.0500	0.1142	0	1	0.396	95	0	0
36	1	500	0	1	3	0.0500	0.1142	1	1	0.383	10	82	0
36	1	501	0	1	3	0.0500	0.1142	0	0	0.425	0	82	82
36	1	502	0	2	3	0.0500	0.1142	1	0	0.412	0	0	82
36	1	503	0	1	3	0.0500	0.1142	1	1	0.369	10	82	0
36	1	504	9	2	3	0.0500	0.1142	0	1	0.364	0	0	0
36	1	505	1	2	2	0.0500	0.1142	1	1	0.454	90	82	0
36	1	506	9	2	2	0.0500	0.1142	0	1	0.342	0	82	82
36	1	507	0	1	3	0.0500	0.1142	0	1	0.428	9	82	82
36	1	508	0	1	1	0.0500	0.1142	0	0	0.380	0	82	82
36	1	509	0	2	2	0.0500	0.1142	1	1	0.498	9	0	82
36	1	510	0	2	2	0.0500	0.1142	0	1	0.387	10	82	82
36	1	511	1	1	3	0.0500	0.1142	0	0	0.371	0	0	0
36	1	512	1	2	3	0.0500	0.1142	1	1	0.399	95	82	0
36	1	513	1	1	3	0.0500	0.1142	1	1	0.352	100	0	82
36	1	514	9	1	1	0.0500	0.1142	0	1	0.478	0	82	82
36	1	515	9	1	1	0.0500	0.1142	0	0	0.400	0	0	0
36	1	516	1	2	2	0.0500	0.1142	1	1	0.392	96	82	0
36	1	517	0	1	3	0.0500	0.1142	0	1	0.593	8	82	82
36	1	518	0	1	3	0.0500	0.1142	0	0	0.507	0	82	82
36	1	519	0	1	1	0.0500	0.1142	0	0	0.499	0	82	82
36	1	520	9	2	3	0.0500	0.1142	1	1	0.466	0	82	0
36	1	521	1	2	2	0.0500	0.1142	1	1	0.360	99	82	0
36	1	522	0	1	1	0.0500	0.1142	1	0	0.540	0	82	0
36	1	523	1	2	1	0.0500	0.1142	1	1	0.389	96	82	0
36	1	524	1	1	3	0.0500	0.1142	0	1	0.525	82	0	0
36	1	525	0	1	3	0.0500	0.1142	0	1	0.399	10	82	82
36	1	526	1	1	2	0.0500	0.1142	1	1	0.369	98	0	82
36	1	527	9	2	2	0.0500	0.1142	1	1	0.417	0	0	82
36	1	528	1	2	3	0.0500	0.1142	0	1	0.364	99	0	0
36	1	529	0	1	1	0.0500	0.1142	0	0	0.360	0	82	82
36	1	530	9	1	1	0.0500	0.1142	0	1	0.521	0	82	82
36	1	531	0	1	3	0.0500	0.1142	0	1	0.335	10	82	82
36	1	532	9	2	2	0.0500	0.1142	0	1	0.310	0	82	82
36	1	533	0	2	2	0.0500	0.1142	0	1	0.321	10	82	82
36	1	534	1	1	3	0.0500	0.1142	1	1	0.346	100	0	82
36	1	535	0	2	3	0.0500	0.1142	0	1	0.369	10	82	82
36	1	536	1	1	1	0.0500	0.1142	1	1	0.339	100	0	82
36	1	537	9	2	3	0.0500	0.1142	0	1	0.446	0	82	82
36	1	538	1	1	3	0.0500	0.1142	1	1	0.352	100	0	82
36	1	539	1	1	1	0.0500	0.1142	0	1	0.385	97	0	0
36	1	540	0	2	2	0.0500	0.1142	1	1	0.401	9	0	82
36	1	541	1	1	1	0.0500	0.1142	0	1	0.329	100	0	0
36	1	542	1	2	3	0.0500	0.1142	0	1	0.358	99	0	0
36	1	543	1	1	3	0.0500	0.1142	0	0	0.352	0	0	0
36	1	544	0	1	1	0.0500	0.1142	0	1	0.406	9	82	82
36	1	545	1	1	1	0.0500	0.1142	1	1	0.404	95	0	82
36	1	546	1	1	1	0.0500	0.1142	1	1	0.373	98	0	82
36	1	547	0	1	3	0.0500	0.1142	1	1	0.427	9	82	0
36	1	548	0	1	3	0.0500	0.1142	0	1	0.375	10	82	82
36	1	549	0	2	2	0.0500	0.1142	1	0	-0.081	0	0	82
36	1	550	9	1	1	0.0500	0.1142	1	1	0.538	0	82	0
36	1	551	0	1	2	0.0500	0.1142	0	1	0.442	9	82	82
36	1	552	9	2	1	0.0500	0.1142	1	1	0.434	0	82	0
36	1	553	1	1	3	0.0500	0.1142	1	1	0.532	82	0	82
36	1	554	0	1	1	0.0500	0.1142	1	1	0.443	9	82	0
36	1	555	9	1	3	0.0500	0.1142	1	1	0.388	0	82	0
36	1	556	9	2	2	0.0500	0.1142	0	1	0.366	0	0	0
36	1	557	1	2	3	0.0500	0.1142	1	1	0.403	95	82	0
36	1	558	1	1	3	0.0500	0.1142	1	1	0.444	91	0	82
36	1	559	0	2	3	0.0500	0.1142	0	1	0.387	10	82	82
36	1	560	0	1	2	0.0500	0.1142	1	1	0.472	9	82	0
36	1	561	0	2	2	0.0500	0.1142	0	1	0.334	10	82	82
36	1	562	9	1	1	0.0500	0.1142	0	0	0.373	0	0	0
36	1	563	1	1	3	0.0500	0.1142	0	1	0.329	100	0	0
36	1	564	0	2	3	0.0500	0.1142	1	1	0.439	9	0	82
36	1	565	9	1	3	0.0500	0.1142	0	0	0.381	0	82	82
36	1	566	9	1	3	0.0500	0.1142	0	1	0.398	0	0	0
36	1	567	0	1	3	0.0500	0.1142	1	1	0.458	9	82	0
36	1	568	9	2	2	0.0500	0.1142	1	1	0.314	0	82	0
36	1	569	9	2	1	0.0500	0.1142	0	1	0.353	0	0	0
36	1	570	0	2	2	0.0500	0.1142	1	1	0.396	10	0	82
36	1	571	1	2	3	0.0500	0.1142	0	1	0.370	98	0	0
36	1	572	0	2	3	0.0500	0.1142	1	1	0.348	10	0	82
36	1	573	1	2	1	0.0500	0.1142	1	1	0.349	100	82	0
36	1	574	1	2	1	0.0500	0.1142	0	1	0.353	100	0	0
36	1	575	1	1	1	0.0500	0.1142	0	0	0.350	0	0	0
36	1	576	9	1	2	0.0500	0.1142	0	0	0.351	0	0	0
36	1	577	0	1	1	0.0500	0.1142	1	1	0.482	9	82	0
36	1	578	1	1	3	0.0500	0.1142	0	0	0.382	0	0	0
36	1	579	1	1	2	0.0500	0.1142	0	0	0.389	0	0	0
36	1	580	1	1	3	0.0500	0.1142	0	1	0.408	94	0	0
36	1	581	1	2	3	0.0500	0.1142	0	1	0.359	99	0	0
36	1	582	1	1	1	0.0500	0.1142	0	0	0.345	0	0	0
36	1	583	1	1	3	0.0500	0.1142	0	1	0.366	98	0	0
36	1	584	9	1	3	0.0500	0.1142	0	1	0.361	0	0	0
36	1	585	0	2	3	0.0500	0.1142	0	1	0.389	10	82	82
36	1	586	1	2	1	0.0500	0.1142	1	1	0.407	94	82	0
36	1	587	1	1	1	0.0500	0.1142	1	1	0.415	93	0	82
36	1	588	9	2	2	0.0500	0.1142	1	1	0.369	0	82	0
36	1	589	9	2	3	0.0500	0.1142	0	1	0.329	0	82	82
36	1	590	0	1	1	0.0500	0.1142	1	1	0.630	7	82	0
36	1	591	0	2	1	0.0500	0.1142	0	1	0.388	10	82	82
36	1	592	9	1	3	0.0500	0.1142	1	0	0.457	0	82	0
36	1	593	0	1	3	0.0500	0.1142	0	0	0.364	0	82	82
36	1	594	0	2	3	0.0500	0.1142	1	1	0.456	9	0	82
36	1	595	1	2	2	0.0500	0.1142	0	1	0.333	100	0	0
36	1	596	0	1	1	0.0500	0.1142	0	0	0.446	0	82	82
36	1	597	1	1	1	0.0500	0.1142	0	1	0.416	93	0	0
36	1	598	1	2	2	0.0500	0.1142	1	1	0.385	97	82	0
36	1	599	1	2	3	0.0500	0.1142	1	1	0.324	100	82	0
36	1	600	0	2	2	0.0500	0.1142	1	1	0.353	10	0	82
36	1	601	1	2	3	0.0500	0.1142	1	1	0.332	100	82	0
36	1	602	1	2	2	0.0500	0.1142	0	1	0.424	93	0	0
36	1	603	1	1	3	0.0500	0.1142	1	1	0.386	96	0	82
36	1	604	9	2	3	0.0500	0.1142	0	1	0.381	0	0	0
36	1	605	9	2	2	0.0500	0.1142	1	1	0.330	0	82	0
36	1	606	1	1	3	0.0500	0.1142	1	0	0.479	0	0	82
36	1	607	1	2	3	0.0500	0.1142	1	1	0.419	93	82	0
36	1	608	0	1	3	0.0500	0.1142	1	1	0.419	9	82	0
36	1	609	0	1	3	0.0500	0.1142	1	1	0.357	10	82	0
36	1	610	1	2	3	0.0500	0.1142	1	1	0.365	98	82	0
36	1	611	9	1	1	0.0500	0.1142	0	0	0.369	0	82	82
36	1	612	9	2	2	0.0500	0.1142	1	1	0.361	0	0	82
36	1	613	0	2	3	0.0500	0.1142	1	0	0.369	0	0	82
36	1	614	9	2	2	0.0500	0.1142	0	1	0.393	0	0	0
36	1	615	9	1	3	0.0500	0.1142	1	0	0.542	0	0	82
36	1	616	0	2	3	0.0500	0.1142	0	1	0.389	10	82	82
36	1	617	1	1	1	0.0500	0.1142	1	1	0.378	97	0	82
36	1	618	0	1	3	0.0500	0.1142	0	1	0.494	9	82	82
36	1	619	1	1	2	0.0500	0.1142	0	0	0.364	0	0	0
36	1	620	9	1	1	0.0500	0.1142	0	1	0.436	0	0	0
36	1	621	1	1	1	0.0500	0.1142	0	1	0.352	100	0	0
36	1	622	1	1	3	0.0500	0.1142	0	1	0.373	98	0	0
36	1	623	0	1	1	0.0500	0.1142	1	0	0.454	0	82	0
36	1	624	1	2	2	0.0500	0.1142	1	1	0.348	100	82	0
36	1	625	1	2	2	0.0500	0.1142	1	1	0.344	100	82	0
36	1	626	1	2	1	0.0500	0.1142	0	1	0.379	97	0	0
36	1	627	9	1	1	0.0500	0.1142	0	1	0.430	0	82	82
36	1	628	0	2	2	0.0500	0.1142	1	1	0.328	10	0	82
36	1	629	0	1	3	0.0500	0.1142	0	1	0.420	9	82	82
36	1	630	9	2	2	0.0500	0.1142	0	1	0.448	0	82	82
36	1	631	1	1	1	0.0500	0.1142	0	0	0.396	0	0	0
36	1	632	1	1	1	0.0500	0.1142	1	1	1.030	50	0	82
36	1	633	0	2	3	0.0500	0.1142	1	1	0.493	9	0	82
36	1	634	0	1	1	0.0500	0.1142	1	1	0.429	9	82	0
36	1	635	1	1	3	0.0500	0.1142	1	0	0.529	0	0	82
36	1	636	1	2	1	0.0500	0.1142	1	1	0.323	100	82	0
36	1	637	0	2	3	0.0500	0.1142	0	1	0.433	9	82	82
36	1	638	9	2	2	0.0500	0.1142	0	1	0.363	0	82	82
36	1	639	0	2	2	0.0500	0.1142	0	1	0.318	10	82	82
36	1	640	1	1	1	0.0500	0.1142	0	1	0.559	79	0	0
36	1	641	1	1	2	0.0500	0.1142	0	1	0.537	81	0	0
36	1	642	9	2	1	0.0500	0.1142	0	1	0.363	0	82	82
36	1	643	0	2	1	0.0500	0.1142	0	1	0.401	9	82	82
36	1	644	1	1	1	0.0500	0.1142	0	1	0.408	94	0	0
36	1	645	0	2	2	0.0500	0.1142	0	1	0.351	10	82	82
36	1	646	1	1	3	0.0500	0.1142	1	1	0.381	97	0	82
36	1	647	1	1	3	0.0500	0.1142	0	1	0.414	94	0	0
36	1	648	1	1	2	0.0500	0.1142	1	0	0.507	0	0	82
36	1	649	0	1	1	0.0500	0.1142	0	1	0.442	9	82	82
36	1	650	9	1	3	0.0500	0.1142	0	1	0.426	0	82	82
36	1	651	0	1	3	0.0500	0.1142	1	1	0.513	8	82	0
36	1	652	0	2	1	0.0500	0.1142	1	1	0.552	8	0	82
36	1	653	0	1	1	0.0500	0.1142	0	1	0.406	9	82	82
36	1	654	0	1	1	0.0500	0.1142	1	1	0.435	9	82	0
36	1	655	1	1	1	0.0500	0.1142	1	1	0.424	93	0	82
36	1	656	1	2	2	0.0500	0.1142	1	1	0.388	96	82	0
36	1	657	1	1	1	0.0500	0.1142	1	1	0.402	95	0	82
36	1	658	1	1	1	0.0500	0.1142	0	1	0.433	92	0	0
36	1	659	9	1	3	0.0500	0.1142	0	1	0.407	0	0	0
36	1	660	1	2	1	0.0500	0.1142	0	1	0.390	96	0	0
36	1	661	1	2	2	0.0500	0.1142	0	1	0.310	100	0	0
36	1	662	0	2	2	0.0500	0.1142	1	1	0.342	10	0	82
36	1	663	0	2	2	0.0500	0.1142	0	1	0.343	10	82	82
36	1	664	1	1	3	0.0500	0.1142	1	0	0.374	0	0	82
36	1	665	9	1	1	0.0500	0.1142	1	1	0.415	0	0	82
36	1	666	0	1	1	0.0500	0.1142	1	1	0.441	9	82	0
36	1	667	0	1	3	0.0500	0.1142	1	1	0.482	9	82	0
36	1	668	1	2	2	0.0500	0.1142	0	1	0.427	92	0	0
36	1	669	9	2	3	0.0500	0.1142	0	1	0.380	0	82	82
36	1	670	1	2	3	0.0500	0.1142	0	1	0.334	100	0	0
36	1	671	9	1	1	0.0500	0.1142	1	1	0.353	0	0	82
36	1	672	0	2	1	0.0500	0.1142	1	0	0.423	0	0	82
36	1	673	0	1	1	0.0500	0.1142	0	1	0.461	9	82	82
36	1	674	9	1	1	0.0500	0.1142	1	1	0.391	0	0	82
36	1	675	0	2	3	0.0500	0.1142	0	1	0.364	10	82	82
36	1	676	1	2	2	0.0500	0.1142	1	1	0.343	100	82	0
36	1	677	1	1	3	0.0500	0.1142	1	1	0.461	89	0	82
36	1	678	0	2	3	0.0500	0.1142	1	1	0.392	10	0	82
36	1	679	0	2	3	0.0500	0.1142	1	1	0.380	10	0	82
36	1	680	0	1	2	0.0500	0.1142	1	1	0.334	10	82	0
36	1	681	1	2	2	0.0500	0.1142	1	1	0.316	100	82	0
36	1	682	0	2	2	0.0500	0.1142	1	1	0.324	10	0	82
36	1	683	1	2	2	0.0500	0.1142	0	0	0.343	0	0	0
36	1	684	1	2	3	0.0500	0.1142	0	1	0.353	100	0	0
36	1	685	0	1	1	0.0500	0.1142	1	1	0.386	10	82	0
36	1	686	0	2	2	0.0500	0.1142	1	1	0.368	10	0	82
36	1	687	9	1	2	0.0500	0.1142	0	0	0.478	0	82	82
36	1	688	0	2	3	0.0500	0.1142	0	0	0.425	0	82	82
36	1	689	0	1	3	0.0500	0.1142	1	1	0.393	10	82	0
36	1	690	0	2	2	0.0500	0.1142	0	1	0.433	9	82	82
36	1	691	0	1	3	0.0500	0.1142	1	1	0.456	9	82	0
36	1	692	0	1	1	0.0500	0.1142	0	1	0.541	8	82	82
36	1	693	0	2	3	0.0500	0.1142	1	1	0.409	9	0	82
36	1	694	1	2	2	0.0500	0.1142	1	1	0.327	100	82	0
36	1	695	0	1	3	0.0500	0.1142	0	1	0.791	6	82	82
36	1	696	1	2	3	0.0500	0.1142	1	1	0.411	94	82	0
36	1	697	0	1	1	0.0500	0.1142	1	0	0.499	0	82	0
36	1	698	1	1	1	0.0500	0.1142	1	1	0.368	98	0	82
36	1	699	9	1	1	0.0500	0.1142	1	1	0.393	0	82	0
36	1	700	1	2	2	0.0500	0.1142	0	1	0.369	98	0	0
36	1	701	1	1	1	0.0500	0.1142	1	1	0.408	94	0	82
36	1	702	0	1	1	0.0500	0.1142	0	1	0.376	10	82	82
36	1	703	9	1	1	0.0500	0.1142	1	1	0.334	0	0	82
36	1	704	1	2	3	0.0500	0.1142	1	1	0.359	99	82	0
36	1	705	9	1	1	0.0500	0.1142	1	1	0.377	0	82	0
36	1	706	1	2	2	0.0500	0.1142	1	1	0.343	100	82	0
36	1	707	0	1	3	0.0500	0.1142	0	0	0.354	0	82	82
36	1	708	1	2	3	0.0500	0.1142	0	1	0.383	97	0	0
36	1	709	0	2	1	0.0500	0.1142	1	0	0.462	0	0	82
36	1	710	9	2	3	0.0500	0.1142	1	1	0.427	0	0	82
36	1	711	1	2	3	0.0500	0.1142	1	1	0.329	100	82	0
36	1	712	1	1	3	0.0500	0.1142	1	1	0.434	92	0	82
36	1	713	9	1	3	0.0500	0.1142	1	1	0.505	0	82	0
36	1	714	0	1	3	0.0500	0.1142	1	1	0.405	9	82	0
36	1	715	1	2	3	0.0500	0.1142	0	1	0.369	98	0	0
36	1	716	0	2	3	0.0500	0.1142	0	1	0.427	9	82	82
36	1	717	1	2	2	0.0500	0.1142	0	1	0.313	100	0	0
36	1	718	1	1	3	0.0500	0.1142	0	1	0.509	84	0	0
36	1	719	0	1	2	0.0500	0.1142	1	1	0.471	9	82	0
36	1	720	0	2	3	0.0500	0.1142	1	1	0.378	10	0	82
