sub	sess	t	rew	loc	cue	co1	co2	or	resp	rt	rew_tot	left_col	right_col
101	1	1	1	2	1	0.1293	0.1109	1	1	1.245	50	0	82
101	1	2	9	1	2	0.1293	0.1109	0	1	0.722	0	82	82
101	1	3	1	1	1	0.1293	0.1109	1	0	2.408	0	82	0
101	1	4	1	2	2	0.1293	0.1109	1	1	0.667	68	0	82
101	1	5	9	1	1	0.1293	0.1109	0	1	0.668	0	0	0
101	1	6	1	2	3	0.1293	0.1109	0	1	0.664	69	82	82
101	1	7	0	2	2	0.1293	0.1109	1	1	0.554	8	82	0
101	1	8	1	1	2	0.1293	0.1109	1	1	0.574	78	82	0
101	1	9	9	1	3	0.1293	0.1109	0	1	0.634	0	82	82
101	1	10	0	1	1	0.1293	0.1109	1	1	0.481	9	0	82
101	1	11	1	1	2	0.1293	0.1109	0	1	0.455	89	82	82
101	1	12	0	2	3	0.1293	0.1109	1	1	0.382	10	82	0
101	1	13	0	2	2	0.1293	0.1109	1	0	0.383	0	82	0
101	1	14	9	2	3	0.1293	0.1109	1	1	0.346	0	0	82
101	1	15	0	1	3	0.1293	0.1109	0	1	0.341	10	0	0
101	1	16	1	2	3	0.1293	0.1109	1	1	0.874	50	0	82
101	1	17	1	2	2	0.1293	0.1109	0	1	0.806	54	82	82
101	1	18	9	1	1	0.1293	0.1109	1	1	0.647	0	0	82
101	1	19	9	2	3	0.1293	0.1109	0	1	0.375	0	82	82
101	1	20	0	1	1	0.1293	0.1109	0	1	0.565	8	0	0
101	1	21	9	1	1	0.1293	0.1109	1	1	0.630	0	82	0
101	1	22	1	2	3	0.1293	0.1109	1	1	0.541	81	0	82
101	1	23	0	2	3	0.1293	0.1109	0	1	0.472	9	0	0
101	1	24	1	1	3	0.1293	0.1109	0	0	0.670	0	82	82
101	1	25	1	2	1	0.1293	0.1109	1	1	0.645	70	0	82
101	1	26	0	2	3	0.1293	0.1109	0	1	0.359	10	0	0
101	1	27	1	1	3	0.1293	0.1109	1	1	0.756	59	82	0
101	1	28	9	1	3	0.1293	0.1109	1	1	0.994	0	0	82
101	1	29	9	1	3	0.1293	0.1109	1	1	0.595	0	82	0
101	1	30	9	1	1	0.1293	0.1109	1	1	0.558	0	0	82
101	1	31	1	1	1	0.1293	0.1109	0	1	0.585	76	82	82
101	1	32	0	2	2	0.1293	0.1109	0	1	0.658	7	0	0
101	1	33	1	2	3	0.1293	0.1109	0	1	0.561	79	82	82
101	1	34	0	1	1	0.1293	0.1109	0	1	0.680	7	0	0
101	1	35	0	1	1	0.1293	0.1109	0	1	0.515	8	0	0
101	1	36	1	2	1	0.1293	0.1109	1	1	0.858	50	0	82
101	1	37	9	2	2	0.1293	0.1109	1	1	0.473	0	0	82
101	1	38	1	1	1	0.1293	0.1109	1	1	0.607	74	82	0
101	1	39	1	2	3	0.1293	0.1109	1	1	0.387	96	0	82
101	1	40	0	2	2	0.1293	0.1109	0	1	0.633	7	0	0
101	1	41	0	2	3	0.1293	0.1109	1	1	0.587	8	82	0
101	1	42	1	1	1	0.1293	0.1109	0	1	0.425	93	82	82
101	1	43	9	1	3	0.1293	0.1109	1	1	0.503	0	0	82
101	1	44	1	2	2	0.1293	0.1109	1	1	0.525	83	0	82
101	1	45	1	1	3	0.1293	0.1109	1	1	0.638	71	82	0
101	1	46	1	1	1	0.1293	0.1109	1	1	0.615	74	82	0
101	1	47	0	1	1	0.1293	0.1109	0	1	0.562	8	0	0
101	1	48	0	2	2	0.1293	0.1109	1	1	0.353	10	82	0
101	1	49	0	1	3	0.1293	0.1109	1	1	0.434	9	0	82
101	1	50	0	1	1	0.1293	0.1109	0	1	0.327	10	0	0
101	1	51	0	1	2	0.1293	0.1109	0	0	0.393	0	0	0
101	1	52	0	1	2	0.1293	0.1109	1	1	0.467	9	0	82
101	1	53	0	1	3	0.1293	0.1109	1	1	0.415	9	0	82
101	1	54	1	1	3	0.1293	0.1109	0	1	0.506	84	82	82
101	1	55	0	1	1	0.1293	0.1109	0	1	0.618	7	0	0
101	1	56	9	2	3	0.1293	0.1109	1	1	0.452	0	82	0
101	1	57	9	1	3	0.1293	0.1109	0	1	0.627	0	0	0
101	1	58	9	1	2	0.1293	0.1109	0	1	0.601	0	0	0
101	1	59	9	2	2	0.1293	0.1109	0	1	0.623	0	0	0
101	1	60	1	2	3	0.1293	0.1109	0	1	0.767	58	82	82
101	1	61	0	2	2	0.1293	0.1109	1	1	1.248	5	82	0
101	1	62	0	2	1	0.1293	0.1109	1	1	0.844	5	82	0
101	1	63	0	1	1	0.1293	0.1109	0	1	0.656	7	0	0
101	1	64	1	2	3	0.1293	0.1109	0	0	1.078	0	82	82
101	1	65	0	2	3	0.1293	0.1109	0	1	0.588	8	0	0
101	1	66	1	2	3	0.1293	0.1109	0	1	0.727	62	82	82
101	1	67	0	2	2	0.1293	0.1109	0	1	0.602	7	0	0
101	1	68	1	1	1	0.1293	0.1109	0	0	0.345	0	82	82
101	1	69	1	2	3	0.1293	0.1109	0	1	0.387	96	82	82
101	1	70	9	2	2	0.1293	0.1109	0	1	0.471	0	0	0
101	1	71	0	2	3	0.1293	0.1109	1	1	0.602	7	82	0
101	1	72	0	1	1	0.1293	0.1109	1	1	0.768	6	0	82
101	1	73	1	2	3	0.1293	0.1109	1	0	0.654	0	0	82
101	1	74	9	2	2	0.1293	0.1109	1	1	0.469	0	0	82
101	1	75	1	2	3	0.1293	0.1109	0	1	0.908	50	82	82
101	1	76	1	1	3	0.1293	0.1109	1	1	0.901	50	82	0
101	1	77	1	2	3	0.1293	0.1109	1	1	0.511	84	0	82
101	1	78	0	2	1	0.1293	0.1109	0	1	0.527	8	0	0
101	1	79	9	2	3	0.1293	0.1109	1	1	0.468	0	82	0
101	1	80	0	2	3	0.1293	0.1109	1	1	0.588	8	82	0
101	1	81	9	1	1	0.1293	0.1109	1	1	0.532	0	82	0
101	1	82	0	1	1	0.1293	0.1109	1	1	0.635	7	0	82
101	1	83	1	2	2	0.1293	0.1109	0	1	0.425	92	82	82
101	1	84	9	1	3	0.1293	0.1109	1	1	0.725	0	82	0
101	1	85	0	2	2	0.1293	0.1109	0	1	0.591	8	0	0
101	1	86	0	2	3	0.1293	0.1109	0	1	0.552	8	0	0
101	1	87	0	1	3	0.1293	0.1109	0	1	0.795	6	0	0
101	1	88	9	2	1	0.1293	0.1109	1	1	0.470	0	82	0
101	1	89	0	1	1	0.1293	0.1109	1	1	0.555	8	0	82
101	1	90	9	1	1	0.1293	0.1109	0	0	0.523	0	0	0
101	1	91	1	1	3	0.1293	0.1109	1	1	0.544	81	82	0
101	1	92	9	1	3	0.1293	0.1109	0	1	0.802	0	82	82
101	1	93	9	2	2	0.1293	0.1109	1	1	0.567	0	82	0
101	1	94	1	1	2	0.1293	0.1109	1	1	0.659	69	82	0
101	1	95	1	1	3	0.1293	0.1109	0	1	0.461	89	82	82
101	1	96	9	1	1	0.1293	0.1109	0	1	0.680	0	0	0
101	1	97	0	1	3	0.1293	0.1109	1	0	0.629	0	0	82
101	1	98	9	2	3	0.1293	0.1109	0	0	1.067	0	82	82
101	1	99	0	2	3	0.1293	0.1109	0	1	1.467	5	0	0
101	1	100	1	1	1	0.1293	0.1109	0	1	0.526	82	82	82
101	1	101	1	1	3	0.1293	0.1109	0	1	0.581	77	82	82
101	1	102	0	2	2	0.1293	0.1109	0	0	0.479	0	0	0
101	1	103	0	2	3	0.1293	0.1109	1	0	0.139	0	82	0
101	1	104	1	1	1	0.1293	0.1109	0	1	0.613	74	82	82
101	1	105	0	2	3	0.1293	0.1109	0	1	0.652	7	0	0
101	1	106	0	2	2	0.1293	0.1109	0	1	0.718	6	0	0
101	1	107	1	2	2	0.1293	0.1109	0	1	0.460	89	82	82
101	1	108	1	2	3	0.1293	0.1109	0	1	0.322	100	82	82
101	1	109	0	1	3	0.1293	0.1109	1	1	0.629	7	0	82
101	1	110	0	2	3	0.1293	0.1109	0	1	0.547	8	0	0
101	1	111	1	2	3	0.1293	0.1109	1	1	0.533	82	0	82
101	1	112	1	1	1	0.1293	0.1109	0	1	0.933	50	82	82
101	1	113	0	1	3	0.1293	0.1109	1	1	0.576	8	0	82
101	1	114	0	2	1	0.1293	0.1109	0	1	0.616	7	0	0
101	1	115	1	1	2	0.1293	0.1109	0	1	0.586	76	82	82
101	1	116	1	2	2	0.1293	0.1109	0	1	0.629	72	82	82
101	1	117	9	2	3	0.1293	0.1109	1	1	0.412	0	0	82
101	1	118	0	1	3	0.1293	0.1109	1	1	0.568	8	0	82
101	1	119	0	1	2	0.1293	0.1109	1	1	0.564	8	0	82
101	1	120	0	1	3	0.1293	0.1109	0	0	0.466	0	0	0
101	1	121	9	2	3	0.1293	0.1109	0	1	0.671	0	0	0
101	1	122	0	2	2	0.1293	0.1109	1	1	0.401	9	82	0
101	1	123	1	1	3	0.1293	0.1109	0	1	0.671	68	82	82
101	1	124	1	1	3	0.1293	0.1109	0	1	0.555	80	82	82
101	1	125	0	1	3	0.1293	0.1109	1	1	0.680	7	0	82
101	1	126	1	2	3	0.1293	0.1109	0	1	0.488	86	82	82
101	1	127	1	2	2	0.1293	0.1109	0	1	0.595	76	82	82
101	1	128	1	2	2	0.1293	0.1109	0	1	0.322	100	82	82
101	1	129	1	2	2	0.1293	0.1109	1	1	0.372	98	0	82
101	1	130	1	2	2	0.1293	0.1109	0	1	0.689	66	82	82
101	1	131	1	2	1	0.1293	0.1109	0	1	0.451	90	82	82
101	1	132	9	1	1	0.1293	0.1109	0	0	0.963	0	82	82
101	1	133	1	1	1	0.1293	0.1109	1	0	0.690	0	82	0
101	1	134	1	1	1	0.1293	0.1109	0	1	0.749	60	82	82
101	1	135	1	2	3	0.1293	0.1109	1	1	0.651	70	0	82
101	1	136	0	1	1	0.1293	0.1109	0	1	0.626	7	0	0
101	1	137	1	2	3	0.1293	0.1109	0	1	0.518	83	82	82
101	1	138	9	2	2	0.1293	0.1109	1	1	0.517	0	0	82
101	1	139	1	2	2	0.1293	0.1109	0	1	0.591	76	82	82
101	1	140	0	2	2	0.1293	0.1109	1	1	0.462	9	82	0
101	1	141	0	2	2	0.1293	0.1109	0	1	0.614	7	0	0
101	1	142	0	2	3	0.1293	0.1109	1	1	0.543	8	82	0
101	1	143	0	1	1	0.1293	0.1109	1	1	0.781	6	0	82
101	1	144	0	1	1	0.1293	0.1109	1	1	0.482	9	0	82
101	1	145	0	2	2	0.1293	0.1109	1	1	0.501	8	82	0
101	1	146	9	1	3	0.1293	0.1109	0	1	0.628	0	0	0
101	1	147	0	2	1	0.1293	0.1109	1	1	0.783	6	82	0
101	1	148	0	2	2	0.1293	0.1109	1	1	0.441	9	82	0
101	1	149	1	2	3	0.1293	0.1109	1	1	0.361	99	0	82
101	1	150	0	2	3	0.1293	0.1109	1	1	0.387	10	82	0
101	1	151	1	2	3	0.1293	0.1109	1	1	0.380	97	0	82
101	1	152	0	1	1	0.1293	0.1109	0	0	0.380	0	0	0
101	1	153	0	2	2	0.1293	0.1109	1	1	0.648	7	82	0
101	1	154	1	1	1	0.1293	0.1109	1	1	0.693	66	82	0
101	1	155	0	1	3	0.1293	0.1109	1	1	1.488	5	0	82
101	1	156	1	1	2	0.1293	0.1109	0	1	0.597	75	82	82
101	1	157	1	2	2	0.1293	0.1109	0	1	0.515	84	82	82
101	1	158	9	1	3	0.1293	0.1109	0	1	0.596	0	82	82
101	1	159	0	2	2	0.1293	0.1109	0	0	0.855	0	0	0
101	1	160	1	1	1	0.1293	0.1109	1	1	0.671	68	82	0
101	1	161	9	2	2	0.1293	0.1109	0	1	0.599	0	0	0
101	1	162	0	1	1	0.1293	0.1109	1	1	1.057	5	0	82
101	1	163	1	2	3	0.1293	0.1109	0	1	0.540	81	82	82
101	1	164	1	2	2	0.1293	0.1109	1	1	0.465	89	0	82
101	1	165	1	1	3	0.1293	0.1109	0	1	0.504	85	82	82
101	1	166	0	2	3	0.1293	0.1109	1	1	0.505	8	82	0
101	1	167	1	2	3	0.1293	0.1109	0	1	0.455	90	82	82
101	1	168	1	2	2	0.1293	0.1109	1	1	0.439	91	0	82
101	1	169	1	1	1	0.1293	0.1109	0	1	0.448	90	82	82
101	1	170	1	1	1	0.1293	0.1109	0	1	0.594	76	82	82
101	1	171	1	2	2	0.1293	0.1109	1	1	0.543	81	0	82
101	1	172	0	1	3	0.1293	0.1109	0	1	0.679	7	0	0
101	1	173	0	1	2	0.1293	0.1109	1	1	0.801	5	0	82
101	1	174	1	1	1	0.1293	0.1109	0	1	0.432	92	82	82
101	1	175	1	2	3	0.1293	0.1109	0	1	0.526	82	82	82
101	1	176	9	2	1	0.1293	0.1109	0	1	0.465	0	82	82
101	1	177	0	1	3	0.1293	0.1109	1	0	0.448	0	0	82
101	1	178	1	1	2	0.1293	0.1109	0	1	0.573	78	82	82
101	1	179	1	1	1	0.1293	0.1109	0	1	0.626	72	82	82
101	1	180	1	2	3	0.1293	0.1109	0	1	0.828	52	82	82
101	1	181	0	1	1	0.1293	0.1109	1	0	0.951	0	0	82
101	1	182	1	2	2	0.1293	0.1109	1	1	0.767	58	0	82
101	1	183	1	1	3	0.1293	0.1109	0	1	0.607	74	82	82
101	1	184	9	2	2	0.1293	0.1109	1	1	0.551	0	0	82
101	1	185	9	2	3	0.1293	0.1109	0	1	0.496	0	0	0
101	1	186	1	1	3	0.1293	0.1109	1	1	0.775	58	82	0
101	1	187	1	1	3	0.1293	0.1109	0	0	0.816	0	82	82
101	1	188	9	2	2	0.1293	0.1109	1	1	0.629	0	82	0
101	1	189	0	2	3	0.1293	0.1109	0	1	0.716	6	0	0
101	1	190	0	1	2	0.1293	0.1109	1	1	0.681	7	0	82
101	1	191	1	2	2	0.1293	0.1109	1	0	0.335	0	0	82
101	1	192	0	2	2	0.1293	0.1109	0	1	0.579	8	0	0
101	1	193	1	1	3	0.1293	0.1109	1	1	0.521	83	82	0
101	1	194	9	1	3	0.1293	0.1109	0	1	0.653	0	0	0
101	1	195	0	2	3	0.1293	0.1109	0	1	0.976	5	0	0
101	1	196	9	2	1	0.1293	0.1109	1	1	0.488	0	0	82
101	1	197	1	1	1	0.1293	0.1109	1	1	0.576	77	82	0
101	1	198	0	1	1	0.1293	0.1109	1	0	0.540	0	0	82
101	1	199	1	1	1	0.1293	0.1109	0	0	0.423	0	82	82
101	1	200	9	2	2	0.1293	0.1109	1	1	0.536	0	82	0
101	1	201	9	2	2	0.1293	0.1109	0	1	0.777	0	0	0
101	1	202	1	1	1	0.1293	0.1109	1	1	0.584	77	82	0
101	1	203	1	1	1	0.1293	0.1109	0	1	0.464	89	82	82
101	1	204	0	1	2	0.1293	0.1109	0	1	0.515	8	0	0
101	1	205	1	1	3	0.1293	0.1109	1	1	0.539	81	82	0
101	1	206	0	1	3	0.1293	0.1109	0	1	0.621	7	0	0
101	1	207	0	2	1	0.1293	0.1109	1	1	0.877	5	82	0
101	1	208	1	2	3	0.1293	0.1109	0	1	0.541	81	82	82
101	1	209	0	1	1	0.1293	0.1109	1	1	0.504	8	0	82
101	1	210	1	2	2	0.1293	0.1109	1	1	0.444	91	0	82
101	1	211	0	2	1	0.1293	0.1109	0	1	0.547	8	0	0
101	1	212	0	2	3	0.1293	0.1109	1	1	0.493	9	82	0
101	1	213	1	1	1	0.1293	0.1109	0	1	0.575	78	82	82
101	1	214	1	1	3	0.1293	0.1109	0	1	0.654	70	82	82
101	1	215	0	2	3	0.1293	0.1109	0	1	0.567	8	0	0
101	1	216	0	1	1	0.1293	0.1109	0	1	0.450	9	0	0
101	1	217	1	1	1	0.1293	0.1109	1	1	0.434	92	82	0
101	1	218	0	2	3	0.1293	0.1109	0	0	0.473	0	0	0
101	1	219	1	1	3	0.1293	0.1109	0	1	0.525	82	82	82
101	1	220	1	2	2	0.1293	0.1109	1	1	0.529	82	0	82
101	1	221	1	2	1	0.1293	0.1109	1	1	0.556	79	0	82
101	1	222	1	2	2	0.1293	0.1109	1	1	0.493	86	0	82
101	1	223	0	2	2	0.1293	0.1109	1	1	0.488	9	82	0
101	1	224	0	2	2	0.1293	0.1109	0	1	0.510	8	0	0
101	1	225	1	1	2	0.1293	0.1109	1	1	0.601	75	82	0
101	1	226	9	1	1	0.1293	0.1109	1	1	0.637	0	82	0
101	1	227	0	2	3	0.1293	0.1109	1	1	0.539	8	82	0
101	1	228	0	1	3	0.1293	0.1109	0	1	0.790	6	0	0
101	1	229	1	2	2	0.1293	0.1109	1	1	0.437	91	0	82
101	1	230	1	2	2	0.1293	0.1109	0	1	0.599	75	82	82
101	1	231	0	1	2	0.1293	0.1109	0	1	0.755	6	0	0
101	1	232	0	2	2	0.1293	0.1109	1	0	0.814	0	82	0
101	1	233	0	2	2	0.1293	0.1109	0	1	0.604	7	0	0
101	1	234	9	1	3	0.1293	0.1109	1	1	0.664	0	0	82
101	1	235	1	1	3	0.1293	0.1109	1	1	0.708	64	82	0
101	1	236	0	1	1	0.1293	0.1109	0	1	0.667	7	0	0
101	1	237	0	1	1	0.1293	0.1109	1	1	0.595	8	0	82
101	1	238	1	2	2	0.1293	0.1109	1	1	0.741	61	0	82
101	1	239	9	2	1	0.1293	0.1109	0	1	0.595	0	0	0
101	1	240	0	1	3	0.1293	0.1109	0	1	0.966	5	0	0
101	1	241	1	2	3	0.1293	0.1109	0	1	0.555	79	82	82
101	1	242	1	1	3	0.1293	0.1109	0	1	0.544	81	82	82
101	1	243	0	1	2	0.1293	0.1109	0	0	0.525	0	0	0
101	1	244	1	1	3	0.1293	0.1109	1	1	0.805	55	82	0
101	1	245	1	1	3	0.1293	0.1109	1	1	1.761	50	82	0
101	1	246	1	1	1	0.1293	0.1109	1	1	0.493	86	82	0
101	1	247	0	2	2	0.1293	0.1109	0	1	0.487	9	0	0
101	1	248	1	1	3	0.1293	0.1109	0	1	0.839	51	82	82
101	1	249	1	2	3	0.1293	0.1109	1	1	0.410	94	0	82
101	1	250	1	1	1	0.1293	0.1109	1	1	0.564	79	82	0
101	1	251	1	2	2	0.1293	0.1109	0	0	0.516	0	82	82
101	1	252	1	1	1	0.1293	0.1109	0	1	0.595	75	82	82
101	1	253	0	1	1	0.1293	0.1109	1	1	0.730	6	0	82
101	1	254	1	2	1	0.1293	0.1109	0	1	0.935	50	82	82
101	1	255	0	1	1	0.1293	0.1109	0	1	0.703	6	0	0
101	1	256	0	1	3	0.1293	0.1109	1	1	0.586	8	0	82
101	1	257	1	1	3	0.1293	0.1109	0	1	0.720	63	82	82
101	1	258	9	2	2	0.1293	0.1109	0	1	0.534	0	82	82
101	1	259	9	1	2	0.1293	0.1109	1	0	1.287	0	82	0
101	1	260	1	1	1	0.1293	0.1109	1	1	0.727	62	82	0
101	1	261	0	1	1	0.1293	0.1109	0	1	0.812	5	0	0
101	1	262	1	1	3	0.1293	0.1109	1	1	3.863	50	82	0
101	1	263	0	2	2	0.1293	0.1109	1	1	0.675	7	82	0
101	1	264	9	2	2	0.1293	0.1109	0	1	0.547	0	82	82
101	1	265	1	2	2	0.1293	0.1109	0	0	0.478	0	82	82
101	1	266	1	2	3	0.1293	0.1109	1	1	0.523	83	0	82
101	1	267	1	1	1	0.1293	0.1109	1	0	0.532	0	82	0
101	1	268	9	2	3	0.1293	0.1109	1	1	0.402	0	0	82
101	1	269	0	1	3	0.1293	0.1109	0	0	0.613	0	0	0
101	1	270	1	2	2	0.1293	0.1109	0	1	0.511	84	82	82
101	1	271	0	2	3	0.1293	0.1109	1	0	1.735	0	82	0
101	1	272	9	1	3	0.1293	0.1109	1	1	0.625	0	82	0
101	1	273	0	2	3	0.1293	0.1109	0	1	0.558	8	0	0
101	1	274	0	1	1	0.1293	0.1109	0	1	0.755	6	0	0
101	1	275	0	1	1	0.1293	0.1109	1	1	0.625	7	0	82
101	1	276	1	1	3	0.1293	0.1109	0	1	0.496	85	82	82
101	1	277	0	2	1	0.1293	0.1109	0	1	0.585	8	0	0
101	1	278	0	2	3	0.1293	0.1109	1	0	0.686	0	82	0
101	1	279	0	2	3	0.1293	0.1109	1	1	0.395	10	82	0
101	1	280	1	1	3	0.1293	0.1109	0	1	1.068	50	82	82
101	1	281	0	1	3	0.1293	0.1109	1	0	0.787	0	0	82
101	1	282	9	1	1	0.1293	0.1109	0	1	0.469	0	82	82
101	1	283	0	2	2	0.1293	0.1109	0	1	0.520	8	0	0
101	1	284	0	1	1	0.1293	0.1109	1	1	0.510	8	0	82
101	1	285	0	1	1	0.1293	0.1109	0	1	0.631	7	0	0
101	1	286	9	1	1	0.1293	0.1109	0	1	0.671	0	0	0
101	1	287	0	1	1	0.1293	0.1109	0	0	0.859	0	0	0
101	1	288	1	2	2	0.1293	0.1109	1	1	0.585	76	0	82
101	1	289	9	2	3	0.1293	0.1109	0	1	0.490	0	82	82
101	1	290	0	2	2	0.1293	0.1109	1	1	0.491	9	82	0
101	1	291	0	1	3	0.1293	0.1109	1	1	0.550	8	0	82
101	1	292	9	2	3	0.1293	0.1109	1	1	0.530	0	82	0
101	1	293	1	2	2	0.1293	0.1109	1	0	0.644	0	0	82
101	1	294	0	2	3	0.1293	0.1109	1	1	0.328	10	82	0
101	1	295	9	1	1	0.1293	0.1109	1	1	0.562	0	0	82
101	1	296	9	1	3	0.1293	0.1109	1	1	1.084	0	0	82
101	1	297	9	1	3	0.1293	0.1109	0	0	0.479	0	0	0
101	1	298	0	2	3	0.1293	0.1109	1	1	0.588	8	82	0
101	1	299	1	1	1	0.1293	0.1109	0	1	0.619	73	82	82
101	1	300	0	1	3	0.1293	0.1109	0	1	0.517	8	0	0
101	1	301	0	1	3	0.1293	0.1109	1	1	0.599	8	0	82
101	1	302	1	2	3	0.1293	0.1109	1	1	0.595	76	0	82
101	1	303	9	1	1	0.1293	0.1109	1	1	0.545	0	82	0
101	1	304	1	2	1	0.1293	0.1109	0	1	0.609	74	82	82
101	1	305	9	1	2	0.1293	0.1109	1	1	0.665	0	0	82
101	1	306	0	2	3	0.1293	0.1109	0	1	0.643	7	0	0
101	1	307	1	1	1	0.1293	0.1109	1	1	0.609	74	82	0
101	1	308	0	1	1	0.1293	0.1109	1	1	0.505	8	0	82
101	1	309	1	2	2	0.1293	0.1109	0	1	0.568	78	82	82
101	1	310	0	1	3	0.1293	0.1109	0	1	0.884	5	0	0
101	1	311	0	2	3	0.1293	0.1109	0	1	0.603	7	0	0
101	1	312	0	1	3	0.1293	0.1109	0	1	0.489	9	0	0
101	1	313	9	1	3	0.1293	0.1109	1	1	0.548	0	82	0
101	1	314	9	2	3	0.1293	0.1109	0	1	1.265	0	0	0
101	1	315	1	1	3	0.1293	0.1109	1	1	0.931	50	82	0
101	1	316	0	1	3	0.1293	0.1109	0	1	0.536	8	0	0
101	1	317	1	2	3	0.1293	0.1109	1	1	0.446	90	0	82
101	1	318	0	2	2	0.1293	0.1109	0	1	0.592	8	0	0
101	1	319	0	1	1	0.1293	0.1109	1	1	0.484	9	0	82
101	1	320	0	2	3	0.1293	0.1109	1	0	1.822	0	82	0
101	1	321	9	1	1	0.1293	0.1109	0	1	0.861	0	82	82
101	1	322	9	2	2	0.1293	0.1109	0	1	0.620	0	82	82
101	1	323	1	2	3	0.1293	0.1109	1	1	0.671	68	0	82
101	1	324	0	1	3	0.1293	0.1109	0	1	0.636	7	0	0
101	1	325	0	2	2	0.1293	0.1109	1	1	0.536	8	82	0
101	1	326	1	2	1	0.1293	0.1109	0	1	0.474	88	82	82
101	1	327	1	1	2	0.1293	0.1109	1	0	0.504	0	82	0
101	1	328	0	2	3	0.1293	0.1109	0	1	0.521	8	0	0
101	1	329	9	2	3	0.1293	0.1109	1	1	0.580	0	82	0
101	1	330	0	2	2	0.1293	0.1109	1	1	0.473	9	82	0
101	1	331	0	2	2	0.1293	0.1109	0	1	0.493	9	0	0
101	1	332	9	1	1	0.1293	0.1109	0	0	0.526	0	82	82
101	1	333	1	2	2	0.1293	0.1109	0	0	0.438	0	82	82
101	1	334	1	1	1	0.1293	0.1109	1	1	0.748	60	82	0
101	1	335	1	2	3	0.1293	0.1109	1	1	0.509	84	0	82
101	1	336	9	2	2	0.1293	0.1109	1	1	0.456	0	82	0
101	1	337	9	2	3	0.1293	0.1109	1	1	0.520	0	0	82
101	1	338	0	2	2	0.1293	0.1109	0	1	0.440	9	0	0
101	1	339	9	2	2	0.1293	0.1109	0	1	0.647	0	82	82
101	1	340	0	1	3	0.1293	0.1109	0	1	0.703	6	0	0
101	1	341	1	2	2	0.1293	0.1109	0	1	0.471	88	82	82
101	1	342	1	2	2	0.1293	0.1109	1	1	0.356	99	0	82
101	1	343	0	2	3	0.1293	0.1109	0	1	0.449	9	0	0
101	1	344	1	1	1	0.1293	0.1109	1	1	0.330	100	82	0
101	1	345	0	1	3	0.1293	0.1109	0	1	0.385	10	0	0
101	1	346	0	2	2	0.1293	0.1109	1	1	0.372	10	82	0
101	1	347	0	1	3	0.1293	0.1109	0	0	0.498	0	0	0
101	1	348	0	2	1	0.1293	0.1109	1	1	0.583	8	82	0
101	1	349	9	2	3	0.1293	0.1109	0	1	0.355	0	0	0
101	1	350	1	1	3	0.1293	0.1109	1	0	0.590	0	82	0
101	1	351	0	1	3	0.1293	0.1109	1	1	0.487	9	0	82
101	1	352	1	2	3	0.1293	0.1109	1	1	0.628	72	0	82
101	1	353	1	1	3	0.1293	0.1109	1	1	0.564	79	82	0
101	1	354	1	1	3	0.1293	0.1109	1	1	1.086	50	82	0
101	1	355	0	1	3	0.1293	0.1109	1	1	0.588	8	0	82
101	1	356	0	1	3	0.1293	0.1109	1	1	0.494	9	0	82
101	1	357	9	2	3	0.1293	0.1109	0	1	0.672	0	82	82
101	1	358	9	1	3	0.1293	0.1109	0	1	0.784	0	82	82
101	1	359	1	1	3	0.1293	0.1109	1	0	1.594	0	82	0
101	1	360	9	1	1	0.1293	0.1109	1	1	0.680	0	0	82
101	1	361	9	1	1	0.1293	0.1109	0	1	0.935	0	0	0
101	1	362	1	2	3	0.1293	0.1109	0	1	0.502	85	82	82
101	1	363	0	2	1	0.1293	0.1109	1	1	0.526	8	82	0
101	1	364	0	1	1	0.1293	0.1109	0	1	0.584	8	0	0
101	1	365	1	2	1	0.1293	0.1109	1	1	0.454	90	0	82
101	1	366	0	2	2	0.1293	0.1109	1	1	0.404	9	82	0
101	1	367	0	1	3	0.1293	0.1109	0	1	0.775	6	0	0
101	1	368	9	2	1	0.1293	0.1109	0	1	0.551	0	0	0
101	1	369	1	2	3	0.1293	0.1109	1	1	0.606	74	0	82
101	1	370	0	2	2	0.1293	0.1109	0	1	1.088	5	0	0
101	1	371	0	2	2	0.1293	0.1109	0	1	0.487	9	0	0
101	1	372	0	2	3	0.1293	0.1109	1	1	0.499	9	82	0
101	1	373	0	2	3	0.1293	0.1109	1	1	0.335	10	82	0
101	1	374	0	1	1	0.1293	0.1109	1	1	0.378	10	0	82
101	1	375	0	1	3	0.1293	0.1109	1	1	0.559	8	0	82
101	1	376	1	1	1	0.1293	0.1109	1	1	0.503	85	82	0
101	1	377	1	2	3	0.1293	0.1109	0	1	0.474	88	82	82
101	1	378	0	1	1	0.1293	0.1109	0	1	0.359	10	0	0
101	1	379	1	2	3	0.1293	0.1109	0	1	0.428	92	82	82
101	1	380	1	2	2	0.1293	0.1109	1	1	0.437	91	0	82
101	1	381	9	2	2	0.1293	0.1109	1	1	0.421	0	0	82
101	1	382	0	1	1	0.1293	0.1109	1	0	0.478	0	0	82
101	1	383	0	2	2	0.1293	0.1109	1	1	0.360	10	82	0
101	1	384	0	2	2	0.1293	0.1109	1	1	0.499	9	82	0
101	1	385	0	2	1	0.1293	0.1109	0	1	0.523	8	0	0
101	1	386	0	1	3	0.1293	0.1109	0	0	2.962	0	0	0
101	1	387	9	1	2	0.1293	0.1109	1	1	0.496	0	0	82
101	1	388	1	2	2	0.1293	0.1109	0	1	0.468	88	82	82
101	1	389	0	2	3	0.1293	0.1109	1	1	0.491	9	82	0
101	1	390	0	2	3	0.1293	0.1109	1	1	0.455	9	82	0
101	1	391	9	1	2	0.1293	0.1109	1	1	0.507	0	82	0
101	1	392	0	2	2	0.1293	0.1109	0	1	0.526	8	0	0
101	1	393	0	2	3	0.1293	0.1109	0	1	0.574	8	0	0
101	1	394	9	2	2	0.1293	0.1109	0	0	0.796	0	82	82
101	1	395	9	2	2	0.1293	0.1109	1	1	1.290	0	82	0
101	1	396	1	2	3	0.1293	0.1109	1	1	0.488	86	0	82
101	1	397	0	1	3	0.1293	0.1109	1	1	0.749	6	0	82
101	1	398	0	1	1	0.1293	0.1109	1	1	0.416	9	0	82
101	1	399	1	1	1	0.1293	0.1109	0	0	2.376	0	82	82
101	1	400	1	1	1	0.1293	0.1109	0	1	0.679	67	82	82
101	1	401	0	2	3	0.1293	0.1109	1	1	1.045	5	82	0
101	1	402	0	1	2	0.1293	0.1109	0	1	0.479	9	0	0
101	1	403	1	2	1	0.1293	0.1109	1	1	0.401	95	0	82
101	1	404	1	1	1	0.1293	0.1109	0	0	0.501	0	82	82
101	1	405	1	1	1	0.1293	0.1109	1	0	0.651	0	82	0
101	1	406	0	1	1	0.1293	0.1109	1	1	0.437	9	0	82
101	1	407	0	1	3	0.1293	0.1109	1	1	0.615	7	0	82
101	1	408	0	1	3	0.1293	0.1109	1	0	0.684	0	0	82
101	1	409	1	1	3	0.1293	0.1109	1	1	0.685	67	82	0
101	1	410	0	1	3	0.1293	0.1109	0	1	0.652	7	0	0
101	1	411	1	2	3	0.1293	0.1109	0	1	0.582	77	82	82
101	1	412	0	1	1	0.1293	0.1109	1	1	0.451	9	0	82
101	1	413	1	2	1	0.1293	0.1109	1	1	0.501	85	0	82
101	1	414	0	1	1	0.1293	0.1109	0	0	0.417	0	0	0
101	1	415	0	1	2	0.1293	0.1109	0	1	0.605	7	0	0
101	1	416	1	1	3	0.1293	0.1109	1	1	0.657	69	82	0
101	1	417	1	1	3	0.1293	0.1109	1	1	0.598	75	82	0
101	1	418	9	2	3	0.1293	0.1109	0	1	0.507	0	0	0
101	1	419	0	2	3	0.1293	0.1109	0	1	0.749	6	0	0
101	1	420	0	2	2	0.1293	0.1109	0	1	0.442	9	0	0
101	1	421	1	2	3	0.1293	0.1109	1	1	0.793	56	0	82
101	1	422	1	2	3	0.1293	0.1109	1	1	0.404	95	0	82
101	1	423	0	2	3	0.1293	0.1109	1	1	0.385	10	82	0
101	1	424	1	2	2	0.1293	0.1109	0	1	0.466	88	82	82
101	1	425	9	2	2	0.1293	0.1109	1	1	0.463	0	82	0
101	1	426	0	1	3	0.1293	0.1109	0	1	0.484	9	0	0
101	1	427	1	2	2	0.1293	0.1109	0	1	0.457	89	82	82
101	1	428	1	1	2	0.1293	0.1109	1	1	0.872	50	82	0
101	1	429	9	1	1	0.1293	0.1109	1	0	0.460	0	0	82
101	1	430	9	1	1	0.1293	0.1109	0	1	0.687	0	0	0
101	1	431	0	2	2	0.1293	0.1109	1	1	0.682	7	82	0
101	1	432	1	1	1	0.1293	0.1109	1	1	0.737	61	82	0
101	1	433	1	2	2	0.1293	0.1109	1	1	1.307	50	0	82
101	1	434	0	2	2	0.1293	0.1109	1	1	0.425	9	82	0
101	1	435	0	2	3	0.1293	0.1109	0	1	0.601	7	0	0
101	1	436	9	2	3	0.1293	0.1109	0	1	0.538	0	82	82
101	1	437	9	2	1	0.1293	0.1109	1	1	0.416	0	0	82
101	1	438	9	1	1	0.1293	0.1109	1	1	0.998	0	0	82
101	1	439	0	2	2	0.1293	0.1109	0	0	0.632	0	0	0
101	1	440	0	2	2	0.1293	0.1109	1	1	0.481	9	82	0
101	1	441	0	1	3	0.1293	0.1109	0	1	0.727	6	0	0
101	1	442	9	2	3	0.1293	0.1109	1	1	0.830	0	82	0
101	1	443	1	2	3	0.1293	0.1109	1	1	0.563	79	0	82
101	1	444	9	2	2	0.1293	0.1109	1	1	0.437	0	82	0
101	1	445	0	2	3	0.1293	0.1109	0	1	0.561	8	0	0
101	1	446	9	2	3	0.1293	0.1109	1	1	0.569	0	82	0
101	1	447	1	2	1	0.1293	0.1109	1	1	0.512	84	0	82
101	1	448	0	2	3	0.1293	0.1109	0	1	0.535	8	0	0
101	1	449	1	2	3	0.1293	0.1109	1	1	0.534	82	0	82
101	1	450	1	2	3	0.1293	0.1109	0	1	0.511	84	82	82
101	1	451	1	1	1	0.1293	0.1109	1	0	0.698	0	82	0
101	1	452	0	1	3	0.1293	0.1109	1	1	0.408	9	0	82
101	1	453	1	1	1	0.1293	0.1109	0	1	0.461	89	82	82
101	1	454	1	1	3	0.1293	0.1109	0	1	1.312	50	82	82
101	1	455	1	2	2	0.1293	0.1109	1	1	0.594	76	0	82
101	1	456	0	1	1	0.1293	0.1109	0	1	0.508	8	0	0
101	1	457	0	2	3	0.1293	0.1109	1	1	0.545	8	82	0
101	1	458	0	1	1	0.1293	0.1109	1	0	0.519	0	0	82
101	1	459	1	2	2	0.1293	0.1109	0	1	0.516	83	82	82
101	1	460	1	2	3	0.1293	0.1109	1	1	0.370	98	0	82
101	1	461	1	1	3	0.1293	0.1109	0	1	0.607	74	82	82
101	1	462	9	1	3	0.1293	0.1109	0	1	0.492	0	82	82
101	1	463	0	2	2	0.1293	0.1109	0	1	0.592	8	0	0
101	1	464	0	2	1	0.1293	0.1109	0	1	0.530	8	0	0
101	1	465	1	1	1	0.1293	0.1109	1	0	0.736	0	82	0
101	1	466	9	1	3	0.1293	0.1109	1	1	0.552	0	0	82
101	1	467	1	2	2	0.1293	0.1109	1	1	0.499	85	0	82
101	1	468	0	1	1	0.1293	0.1109	0	1	0.566	8	0	0
101	1	469	0	2	3	0.1293	0.1109	0	0	0.379	0	0	0
101	1	470	0	2	1	0.1293	0.1109	1	1	0.509	8	82	0
101	1	471	1	2	3	0.1293	0.1109	1	1	0.532	82	0	82
101	1	472	1	1	3	0.1293	0.1109	0	0	0.986	0	82	82
101	1	473	0	1	3	0.1293	0.1109	0	1	0.756	6	0	0
101	1	474	0	2	2	0.1293	0.1109	1	1	0.491	9	82	0
101	1	475	1	1	3	0.1293	0.1109	0	1	0.646	70	82	82
101	1	476	0	1	3	0.1293	0.1109	0	1	0.220	10	0	0
101	1	477	0	1	1	0.1293	0.1109	0	1	0.766	6	0	0
101	1	478	1	2	3	0.1293	0.1109	0	1	0.927	50	82	82
101	1	479	0	1	2	0.1293	0.1109	0	1	0.603	7	0	0
101	1	480	1	2	2	0.1293	0.1109	0	1	0.592	76	82	82
101	1	481	9	1	3	0.1293	0.1109	0	1	0.662	0	0	0
101	1	482	9	2	3	0.1293	0.1109	1	1	0.475	0	82	0
101	1	483	0	2	3	0.1293	0.1109	0	1	0.487	9	0	0
101	1	484	1	2	3	0.1293	0.1109	1	1	0.592	76	0	82
101	1	485	1	1	1	0.1293	0.1109	0	1	0.508	84	82	82
101	1	486	9	1	3	0.1293	0.1109	1	1	0.590	0	0	82
101	1	487	0	1	1	0.1293	0.1109	1	1	0.583	8	0	82
101	1	488	0	2	3	0.1293	0.1109	1	1	0.568	8	82	0
101	1	489	9	2	2	0.1293	0.1109	0	1	0.531	0	82	82
101	1	490	1	1	3	0.1293	0.1109	1	0	0.546	0	82	0
101	1	491	0	1	1	0.1293	0.1109	1	1	0.462	9	0	82
101	1	492	1	1	1	0.1293	0.1109	0	1	1.594	50	82	82
101	1	493	9	1	1	0.1293	0.1109	0	1	0.452	0	0	0
101	1	494	1	1	3	0.1293	0.1109	0	1	0.646	70	82	82
101	1	495	1	2	2	0.1293	0.1109	1	1	0.576	77	0	82
101	1	496	1	2	1	0.1293	0.1109	0	1	0.569	78	82	82
101	1	497	0	2	3	0.1293	0.1109	1	1	0.725	6	82	0
101	1	498	1	2	2	0.1293	0.1109	1	1	0.442	91	0	82
101	1	499	0	1	1	0.1293	0.1109	1	1	0.464	9	0	82
101	1	500	9	1	3	0.1293	0.1109	0	1	0.509	0	82	82
101	1	501	9	1	3	0.1293	0.1109	1	1	0.573	0	82	0
101	1	502	0	1	1	0.1293	0.1109	0	1	0.430	9	0	0
101	1	503	0	1	3	0.1293	0.1109	1	1	0.685	7	0	82
101	1	504	0	2	2	0.1293	0.1109	0	1	0.444	9	0	0
101	1	505	0	2	2	0.1293	0.1109	1	1	0.429	9	82	0
101	1	506	1	1	2	0.1293	0.1109	1	1	0.878	50	82	0
101	1	507	0	2	2	0.1293	0.1109	0	1	0.659	7	0	0
101	1	508	0	1	1	0.1293	0.1109	0	1	0.427	9	0	0
101	1	509	0	2	2	0.1293	0.1109	0	1	0.759	6	0	0
101	1	510	1	1	3	0.1293	0.1109	1	0	2.672	0	82	0
101	1	511	1	1	1	0.1293	0.1109	1	1	0.418	93	82	0
101	1	512	0	2	2	0.1293	0.1109	0	1	0.493	9	0	0
101	1	513	1	1	2	0.1293	0.1109	0	1	0.688	66	82	82
101	1	514	0	1	3	0.1293	0.1109	1	1	0.397	10	0	82
101	1	515	0	1	2	0.1293	0.1109	1	0	0.542	0	0	82
101	1	516	0	2	1	0.1293	0.1109	0	1	0.548	8	0	0
101	1	517	1	1	3	0.1293	0.1109	1	1	0.382	97	82	0
101	1	518	1	1	1	0.1293	0.1109	1	1	0.518	83	82	0
101	1	519	0	2	3	0.1293	0.1109	0	1	0.523	8	0	0
101	1	520	1	1	3	0.1293	0.1109	0	1	0.598	75	82	82
101	1	521	0	1	3	0.1293	0.1109	1	1	0.893	5	0	82
101	1	522	1	1	1	0.1293	0.1109	1	1	0.634	72	82	0
101	1	523	0	2	2	0.1293	0.1109	0	1	0.540	8	0	0
101	1	524	9	1	1	0.1293	0.1109	1	1	0.430	0	82	0
101	1	525	0	1	3	0.1293	0.1109	1	1	0.503	8	0	82
101	1	526	0	1	1	0.1293	0.1109	1	1	0.446	9	0	82
101	1	527	1	2	3	0.1293	0.1109	1	1	0.409	94	0	82
101	1	528	1	2	3	0.1293	0.1109	0	0	0.372	0	82	82
101	1	529	9	2	2	0.1293	0.1109	0	1	0.542	0	0	0
101	1	530	0	1	3	0.1293	0.1109	1	1	0.582	8	0	82
101	1	531	0	2	2	0.1293	0.1109	1	1	0.573	8	82	0
101	1	532	1	2	2	0.1293	0.1109	1	1	0.619	73	0	82
101	1	533	9	2	3	0.1293	0.1109	1	1	0.391	0	0	82
101	1	534	9	2	2	0.1293	0.1109	1	1	0.520	0	0	82
101	1	535	9	2	3	0.1293	0.1109	0	1	0.418	0	82	82
101	1	536	0	1	3	0.1293	0.1109	0	1	0.626	7	0	0
101	1	537	0	1	3	0.1293	0.1109	1	1	0.705	6	0	82
101	1	538	0	1	2	0.1293	0.1109	0	1	0.740	6	0	0
101	1	539	9	2	3	0.1293	0.1109	1	1	0.500	0	0	82
101	1	540	9	1	1	0.1293	0.1109	0	1	1.210	0	82	82
101	1	541	9	2	3	0.1293	0.1109	0	1	0.640	0	0	0
101	1	542	0	2	1	0.1293	0.1109	1	1	0.605	7	82	0
101	1	543	0	1	3	0.1293	0.1109	0	1	0.498	9	0	0
101	1	544	1	2	2	0.1293	0.1109	1	1	0.464	89	0	82
101	1	545	0	2	2	0.1293	0.1109	0	1	0.522	8	0	0
101	1	546	1	2	2	0.1293	0.1109	0	0	0.672	0	82	82
101	1	547	0	1	3	0.1293	0.1109	1	1	0.960	5	0	82
101	1	548	0	1	3	0.1293	0.1109	0	1	0.473	9	0	0
101	1	549	1	1	3	0.1293	0.1109	0	0	1.059	0	82	82
101	1	550	1	1	1	0.1293	0.1109	0	1	0.523	83	82	82
101	1	551	1	1	3	0.1293	0.1109	0	1	0.453	90	82	82
101	1	552	9	2	3	0.1293	0.1109	1	1	0.457	0	0	82
101	1	553	9	2	3	0.1293	0.1109	1	1	0.460	0	82	0
101	1	554	9	1	1	0.1293	0.1109	1	1	0.492	0	82	0
101	1	555	1	1	1	0.1293	0.1109	0	1	0.550	80	82	82
101	1	556	1	2	2	0.1293	0.1109	1	1	0.661	69	0	82
101	1	557	1	1	1	0.1293	0.1109	0	1	0.452	90	82	82
101	1	558	1	1	1	0.1293	0.1109	1	1	0.571	78	82	0
101	1	559	0	2	1	0.1293	0.1109	1	1	0.400	9	82	0
101	1	560	0	1	1	0.1293	0.1109	0	0	1.142	0	0	0
101	1	561	9	1	3	0.1293	0.1109	1	1	0.488	0	82	0
101	1	562	0	2	3	0.1293	0.1109	1	1	0.563	8	82	0
101	1	563	1	2	2	0.1293	0.1109	0	1	0.855	50	82	82
101	1	564	1	2	1	0.1293	0.1109	0	1	0.528	82	82	82
101	1	565	1	1	1	0.1293	0.1109	0	1	0.757	59	82	82
101	1	566	9	1	2	0.1293	0.1109	0	1	0.521	0	0	0
101	1	567	0	2	3	0.1293	0.1109	0	1	0.561	8	0	0
101	1	568	0	1	3	0.1293	0.1109	0	1	0.522	8	0	0
101	1	569	1	2	2	0.1293	0.1109	0	1	0.370	98	82	82
101	1	570	1	2	3	0.1293	0.1109	0	1	0.528	82	82	82
101	1	571	0	2	3	0.1293	0.1109	1	1	0.639	7	82	0
101	1	572	0	2	3	0.1293	0.1109	1	1	0.476	9	82	0
101	1	573	9	2	2	0.1293	0.1109	1	1	0.528	0	82	0
101	1	574	1	1	3	0.1293	0.1109	0	1	0.657	69	82	82
101	1	575	0	1	1	0.1293	0.1109	0	1	0.765	6	0	0
101	1	576	1	2	2	0.1293	0.1109	1	1	0.412	94	0	82
101	1	577	1	2	3	0.1293	0.1109	0	1	0.373	98	82	82
101	1	578	1	1	3	0.1293	0.1109	0	0	0.474	0	82	82
101	1	579	1	1	3	0.1293	0.1109	1	0	2.506	0	82	0
101	1	580	1	2	2	0.1293	0.1109	0	1	0.646	70	82	82
101	1	581	1	1	3	0.1293	0.1109	1	1	0.541	81	82	0
101	1	582	1	1	3	0.1293	0.1109	0	1	0.472	88	82	82
101	1	583	1	2	3	0.1293	0.1109	1	1	0.468	88	0	82
101	1	584	9	2	2	0.1293	0.1109	0	1	0.594	0	0	0
101	1	585	0	2	3	0.1293	0.1109	0	1	0.550	8	0	0
101	1	586	1	2	3	0.1293	0.1109	1	1	0.532	82	0	82
101	1	587	9	2	1	0.1293	0.1109	1	1	0.465	0	82	0
101	1	588	0	1	1	0.1293	0.1109	1	1	0.496	9	0	82
101	1	589	0	2	2	0.1293	0.1109	1	1	0.421	9	82	0
101	1	590	0	1	1	0.1293	0.1109	0	0	1.081	0	0	0
101	1	591	9	2	3	0.1293	0.1109	0	1	0.529	0	82	82
101	1	592	1	2	3	0.1293	0.1109	0	1	0.386	96	82	82
101	1	593	1	1	3	0.1293	0.1109	0	1	0.846	50	82	82
101	1	594	1	1	1	0.1293	0.1109	1	0	0.431	0	82	0
101	1	595	1	1	3	0.1293	0.1109	0	0	0.809	0	82	82
101	1	596	0	1	3	0.1293	0.1109	1	1	0.811	5	0	82
101	1	597	1	1	1	0.1293	0.1109	1	1	0.526	82	82	0
101	1	598	1	2	2	0.1293	0.1109	0	1	0.438	91	82	82
101	1	599	0	2	2	0.1293	0.1109	1	1	0.387	10	82	0
101	1	600	9	2	3	0.1293	0.1109	0	1	0.346	0	82	82
101	1	601	1	2	2	0.1293	0.1109	1	1	0.587	76	0	82
101	1	602	1	1	3	0.1293	0.1109	0	1	0.502	85	82	82
101	1	603	0	2	2	0.1293	0.1109	1	1	0.362	10	82	0
101	1	604	1	1	1	0.1293	0.1109	0	1	0.620	73	82	82
101	1	605	0	2	2	0.1293	0.1109	0	1	0.555	8	0	0
101	1	606	0	1	1	0.1293	0.1109	1	0	0.497	0	0	82
101	1	607	1	1	3	0.1293	0.1109	1	1	0.435	91	82	0
101	1	608	1	1	3	0.1293	0.1109	1	1	0.333	100	82	0
101	1	609	0	2	3	0.1293	0.1109	0	1	0.489	9	0	0
101	1	610	0	2	2	0.1293	0.1109	1	1	0.380	10	82	0
101	1	611	1	2	3	0.1293	0.1109	1	1	0.463	89	0	82
101	1	612	0	1	1	0.1293	0.1109	1	0	0.458	0	0	82
101	1	613	9	1	1	0.1293	0.1109	0	0	0.440	0	0	0
101	1	614	0	2	3	0.1293	0.1109	0	0	0.736	0	0	0
101	1	615	1	1	1	0.1293	0.1109	0	1	0.474	88	82	82
101	1	616	1	1	3	0.1293	0.1109	1	1	0.495	86	82	0
101	1	617	1	1	3	0.1293	0.1109	1	1	0.533	82	82	0
101	1	618	9	1	3	0.1293	0.1109	0	0	0.477	0	82	82
101	1	619	0	2	3	0.1293	0.1109	0	1	0.480	9	0	0
101	1	620	1	2	1	0.1293	0.1109	0	0	0.760	0	82	82
101	1	621	9	2	3	0.1293	0.1109	0	1	0.813	0	0	0
101	1	622	0	2	2	0.1293	0.1109	0	1	0.461	9	0	0
101	1	623	1	1	3	0.1293	0.1109	0	1	0.494	86	82	82
101	1	624	1	2	2	0.1293	0.1109	1	1	0.441	91	0	82
101	1	625	0	2	2	0.1293	0.1109	0	1	0.350	10	0	0
101	1	626	0	1	3	0.1293	0.1109	1	1	0.509	8	0	82
101	1	627	1	2	3	0.1293	0.1109	0	1	0.393	96	82	82
101	1	628	0	1	1	0.1293	0.1109	0	0	0.355	0	0	0
101	1	629	9	1	1	0.1293	0.1109	1	0	0.438	0	82	0
101	1	630	0	1	1	0.1293	0.1109	0	1	0.633	7	0	0
101	1	631	1	1	1	0.1293	0.1109	1	1	0.529	82	82	0
101	1	632	9	2	2	0.1293	0.1109	0	1	0.407	0	82	82
101	1	633	1	2	2	0.1293	0.1109	1	1	0.365	98	0	82
101	1	634	9	2	2	0.1293	0.1109	1	0	0.618	0	0	82
101	1	635	0	1	1	0.1293	0.1109	0	1	0.666	7	0	0
101	1	636	1	1	2	0.1293	0.1109	1	0	0.524	0	82	0
101	1	637	1	1	1	0.1293	0.1109	1	1	0.420	93	82	0
101	1	638	9	1	3	0.1293	0.1109	0	0	0.429	0	82	82
101	1	639	9	1	3	0.1293	0.1109	1	1	0.441	0	0	82
101	1	640	9	1	3	0.1293	0.1109	1	1	0.416	0	0	82
101	1	641	9	1	3	0.1293	0.1109	1	1	0.714	0	82	0
101	1	642	0	1	2	0.1293	0.1109	1	1	0.440	9	0	82
101	1	643	1	1	2	0.1293	0.1109	1	0	0.360	0	82	0
101	1	644	1	1	3	0.1293	0.1109	0	1	0.437	91	82	82
101	1	645	1	1	1	0.1293	0.1109	1	0	0.793	0	82	0
101	1	646	1	2	3	0.1293	0.1109	0	1	0.460	89	82	82
101	1	647	1	2	3	0.1293	0.1109	1	1	0.343	100	0	82
101	1	648	9	1	1	0.1293	0.1109	1	0	0.708	0	0	82
101	1	649	9	1	3	0.1293	0.1109	0	1	0.566	0	0	0
101	1	650	9	2	2	0.1293	0.1109	0	1	0.488	0	82	82
101	1	651	1	1	1	0.1293	0.1109	1	0	0.484	0	82	0
101	1	652	1	1	3	0.1293	0.1109	1	1	0.570	78	82	0
101	1	653	1	1	1	0.1293	0.1109	1	1	0.515	83	82	0
101	1	654	1	1	2	0.1293	0.1109	0	1	0.656	69	82	82
101	1	655	0	1	1	0.1293	0.1109	1	1	0.480	9	0	82
101	1	656	9	1	1	0.1293	0.1109	0	1	0.613	0	82	82
101	1	657	9	1	3	0.1293	0.1109	1	1	0.376	0	82	0
101	1	658	1	1	3	0.1293	0.1109	1	1	0.473	88	82	0
101	1	659	1	1	1	0.1293	0.1109	0	0	0.440	0	82	82
101	1	660	1	1	1	0.1293	0.1109	0	1	0.569	78	82	82
101	1	661	1	2	2	0.1293	0.1109	1	1	0.530	82	0	82
101	1	662	0	2	2	0.1293	0.1109	1	1	1.180	5	82	0
101	1	663	0	1	3	0.1293	0.1109	0	1	0.915	5	0	0
101	1	664	0	1	2	0.1293	0.1109	1	1	2.122	5	0	82
101	1	665	9	2	2	0.1293	0.1109	1	1	0.355	0	0	82
101	1	666	0	1	3	0.1293	0.1109	0	1	0.481	9	0	0
101	1	667	1	2	2	0.1293	0.1109	0	0	0.351	0	82	82
101	1	668	9	1	1	0.1293	0.1109	0	1	0.779	0	82	82
101	1	669	1	2	3	0.1293	0.1109	0	1	0.475	88	82	82
101	1	670	0	2	3	0.1293	0.1109	1	1	0.604	7	82	0
101	1	671	1	2	2	0.1293	0.1109	0	0	0.555	0	82	82
101	1	672	9	2	3	0.1293	0.1109	1	1	0.621	0	0	82
101	1	673	0	2	3	0.1293	0.1109	1	1	0.459	9	82	0
101	1	674	1	2	2	0.1293	0.1109	1	1	0.347	100	0	82
101	1	675	1	2	2	0.1293	0.1109	0	1	0.587	76	82	82
101	1	676	1	1	3	0.1293	0.1109	1	1	0.670	68	82	0
101	1	677	1	2	3	0.1293	0.1109	1	1	0.527	82	0	82
101	1	678	1	2	3	0.1293	0.1109	0	1	0.543	81	82	82
101	1	679	0	1	3	0.1293	0.1109	0	1	0.571	8	0	0
101	1	680	0	2	3	0.1293	0.1109	0	1	0.652	7	0	0
101	1	681	1	1	3	0.1293	0.1109	1	0	0.607	0	82	0
101	1	682	1	2	2	0.1293	0.1109	1	1	0.473	88	0	82
101	1	683	1	1	1	0.1293	0.1109	0	1	0.606	74	82	82
101	1	684	1	1	2	0.1293	0.1109	0	1	0.519	83	82	82
101	1	685	0	1	3	0.1293	0.1109	0	1	0.678	7	0	0
101	1	686	1	2	3	0.1293	0.1109	0	0	0.622	0	82	82
101	1	687	1	2	3	0.1293	0.1109	1	1	0.527	82	0	82
101	1	688	0	1	3	0.1293	0.1109	0	1	0.517	8	0	0
101	1	689	0	2	2	0.1293	0.1109	0	1	0.607	7	0	0
101	1	690	0	2	3	0.1293	0.1109	1	1	0.461	9	82	0
101	1	691	9	1	3	0.1293	0.1109	0	1	0.481	0	0	0
101	1	692	0	1	1	0.1293	0.1109	1	0	0.613	0	0	82
101	1	693	1	1	1	0.1293	0.1109	0	1	0.437	91	82	82
101	1	694	9	1	2	0.1293	0.1109	0	0	0.710	0	82	82
101	1	695	0	1	1	0.1293	0.1109	0	1	0.381	10	0	0
101	1	696	9	1	1	0.1293	0.1109	1	1	0.491	0	82	0
101	1	697	9	1	3	0.1293	0.1109	0	1	0.630	0	0	0
101	1	698	1	2	2	0.1293	0.1109	0	1	0.540	81	82	82
101	1	699	0	2	3	0.1293	0.1109	0	1	0.627	7	0	0
101	1	700	0	2	2	0.1293	0.1109	1	1	0.516	8	82	0
101	1	701	1	2	2	0.1293	0.1109	0	1	1.439	50	82	82
101	1	702	0	1	1	0.1293	0.1109	0	0	0.446	0	0	0
101	1	703	0	2	3	0.1293	0.1109	0	1	0.372	10	0	0
101	1	704	9	2	2	0.1293	0.1109	0	1	0.623	0	0	0
101	1	705	1	1	2	0.1293	0.1109	0	1	0.753	60	82	82
101	1	706	0	1	2	0.1293	0.1109	1	0	0.469	0	0	82
101	1	707	1	2	2	0.1293	0.1109	0	0	0.377	0	82	82
101	1	708	9	2	1	0.1293	0.1109	0	1	0.365	0	82	82
101	1	709	9	2	2	0.1293	0.1109	0	0	0.555	0	0	0
101	1	710	0	1	3	0.1293	0.1109	1	0	0.923	0	0	82
101	1	711	0	1	1	0.1293	0.1109	1	1	0.670	7	0	82
101	1	712	1	2	1	0.1293	0.1109	0	1	0.631	72	82	82
101	1	713	9	2	3	0.1293	0.1109	0	1	0.569	0	0	0
101	1	714	0	1	3	0.1293	0.1109	1	1	0.595	8	0	82
101	1	715	0	2	2	0.1293	0.1109	1	1	0.456	9	82	0
101	1	716	1	2	3	0.1293	0.1109	0	1	0.473	88	82	82
101	1	717	9	1	1	0.1293	0.1109	1	1	0.498	0	0	82
101	1	718	0	2	3	0.1293	0.1109	1	0	0.428	0	82	0
101	1	719	9	1	1	0.1293	0.1109	0	1	0.629	0	82	82
101	1	720	0	2	1	0.1293	0.1109	0	1	0.588	8	0	0
