sub	sess	t	rew	loc	cue	co1	co2	or	resp	rt	rew_tot	left_col	right_col
72	1	1	1	2	2	0.6944	0.8573	1	1	0.518	83	82	0
72	1	2	0	1	1	0.6944	0.8573	0	1	0.634	7	82	82
72	1	3	9	2	2	0.6944	0.8573	0	0	0.643	0	82	82
72	1	4	9	1	1	0.6944	0.8573	1	0	0.540	0	0	82
72	1	5	0	2	3	0.6944	0.8573	0	0	0.592	0	82	82
72	1	6	0	1	1	0.6944	0.8573	1	0	0.542	0	82	0
72	1	7	9	1	1	0.6944	0.8573	0	1	0.688	0	82	82
72	1	8	1	1	1	0.6944	0.8573	1	0	0.817	0	0	82
72	1	9	0	2	3	0.6944	0.8573	1	1	0.486	9	0	82
72	1	10	0	2	2	0.6944	0.8573	0	0	0.621	0	82	82
72	1	11	0	2	2	0.6944	0.8573	1	0	0.719	0	0	82
72	1	12	1	1	3	0.6944	0.8573	0	0	0.548	0	0	0
72	1	13	1	2	2	0.6944	0.8573	0	1	0.410	94	0	0
72	1	14	0	1	3	0.6944	0.8573	0	1	0.702	6	82	82
72	1	15	1	1	1	0.6944	0.8573	0	1	0.794	56	0	0
72	1	16	1	1	1	0.6944	0.8573	1	0	0.491	0	0	82
72	1	17	0	2	2	0.6944	0.8573	0	1	0.704	6	82	82
72	1	18	1	2	3	0.6944	0.8573	0	0	0.702	0	0	0
72	1	19	0	2	1	0.6944	0.8573	0	0	0.989	0	82	82
72	1	20	1	1	3	0.6944	0.8573	1	0	0.744	0	0	82
72	1	21	1	1	1	0.6944	0.8573	0	1	0.462	89	0	0
72	1	22	0	2	3	0.6944	0.8573	1	1	0.596	8	0	82
72	1	23	0	1	3	0.6944	0.8573	1	0	1.372	0	82	0
72	1	24	0	1	1	0.6944	0.8573	1	0	0.855	0	82	0
72	1	25	0	2	2	0.6944	0.8573	1	1	0.923	5	0	82
72	1	26	1	2	2	0.6944	0.8573	0	0	0.798	0	0	0
72	1	27	1	2	3	0.6944	0.8573	1	1	0.900	50	82	0
72	1	28	0	1	2	0.6944	0.8573	0	1	0.781	6	82	82
72	1	29	9	2	2	0.6944	0.8573	0	0	0.693	0	82	82
72	1	30	1	1	3	0.6944	0.8573	0	1	0.615	74	0	0
72	1	31	1	2	3	0.6944	0.8573	1	1	1.092	50	82	0
72	1	32	9	1	3	0.6944	0.8573	1	0	0.623	0	82	0
72	1	33	1	1	3	0.6944	0.8573	0	1	0.886	50	0	0
72	1	34	0	1	3	0.6944	0.8573	0	0	0.658	0	82	82
72	1	35	0	2	1	0.6944	0.8573	0	1	0.209	10	82	82
72	1	36	0	2	3	0.6944	0.8573	0	0	0.756	0	82	82
72	1	37	0	1	3	0.6944	0.8573	1	0	0.566	0	82	0
72	1	38	0	2	3	0.6944	0.8573	0	0	0.558	0	82	82
72	1	39	0	2	2	0.6944	0.8573	1	0	0.548	0	0	82
72	1	40	1	2	2	0.6944	0.8573	0	0	0.558	0	0	0
72	1	41	0	2	3	0.6944	0.8573	1	0	0.498	0	0	82
72	1	42	0	1	3	0.6944	0.8573	1	1	0.464	9	82	0
72	1	43	1	1	2	0.6944	0.8573	1	0	0.569	0	0	82
72	1	44	1	2	3	0.6944	0.8573	0	0	0.463	0	0	0
72	1	45	1	2	2	0.6944	0.8573	0	1	0.493	86	0	0
72	1	46	1	1	1	0.6944	0.8573	1	0	0.614	0	0	82
72	1	47	1	2	1	0.6944	0.8573	1	1	0.472	88	82	0
72	1	48	1	2	2	0.6944	0.8573	1	1	0.598	75	82	0
72	1	49	9	2	2	0.6944	0.8573	1	0	0.436	0	0	82
72	1	50	1	1	3	0.6944	0.8573	0	0	0.494	0	0	0
72	1	51	1	1	1	0.6944	0.8573	0	1	0.417	93	0	0
72	1	52	1	2	1	0.6944	0.8573	1	1	0.700	65	82	0
72	1	53	9	1	3	0.6944	0.8573	1	0	0.471	0	82	0
72	1	54	9	2	1	0.6944	0.8573	1	1	0.329	0	0	82
72	1	55	0	1	1	0.6944	0.8573	0	1	0.305	10	82	82
72	1	56	0	2	2	0.6944	0.8573	1	0	0.708	0	0	82
72	1	57	1	2	2	0.6944	0.8573	0	0	0.848	0	0	0
72	1	58	0	2	3	0.6944	0.8573	0	1	0.433	9	82	82
72	1	59	1	2	2	0.6944	0.8573	0	1	0.433	92	0	0
72	1	60	9	2	2	0.6944	0.8573	0	1	0.400	0	0	0
72	1	61	0	1	2	0.6944	0.8573	1	0	0.507	0	82	0
72	1	62	1	1	3	0.6944	0.8573	0	1	0.655	69	0	0
72	1	63	1	2	3	0.6944	0.8573	1	1	0.579	77	82	0
72	1	64	0	1	3	0.6944	0.8573	1	0	0.473	0	82	0
72	1	65	1	1	1	0.6944	0.8573	1	0	0.634	0	0	82
72	1	66	0	2	1	0.6944	0.8573	1	1	0.437	9	0	82
72	1	67	0	2	3	0.6944	0.8573	0	1	0.634	7	82	82
72	1	68	9	1	2	0.6944	0.8573	1	1	0.584	0	82	0
72	1	69	1	2	3	0.6944	0.8573	0	1	0.467	88	0	0
72	1	70	1	1	3	0.6944	0.8573	0	1	0.525	83	0	0
72	1	71	1	2	3	0.6944	0.8573	1	0	0.544	0	82	0
72	1	72	0	1	3	0.6944	0.8573	0	1	0.559	8	82	82
72	1	73	0	2	2	0.6944	0.8573	0	1	0.792	6	82	82
72	1	74	0	2	3	0.6944	0.8573	0	1	0.491	9	82	82
72	1	75	1	2	3	0.6944	0.8573	1	1	0.601	75	82	0
72	1	76	9	1	1	0.6944	0.8573	1	0	0.779	0	82	0
72	1	77	1	2	1	0.6944	0.8573	1	1	0.905	50	82	0
72	1	78	1	1	3	0.6944	0.8573	1	1	0.866	50	0	82
72	1	79	1	2	3	0.6944	0.8573	0	1	1.175	50	0	0
72	1	80	1	2	2	0.6944	0.8573	1	1	0.864	50	82	0
72	1	81	0	1	2	0.6944	0.8573	1	0	0.587	0	82	0
72	1	82	1	2	3	0.6944	0.8573	0	0	0.453	0	0	0
72	1	83	9	2	3	0.6944	0.8573	1	0	0.783	0	0	82
72	1	84	1	1	1	0.6944	0.8573	1	1	0.375	98	0	82
72	1	85	1	2	2	0.6944	0.8573	1	1	0.517	83	82	0
72	1	86	1	2	3	0.6944	0.8573	0	1	0.726	62	0	0
72	1	87	0	1	2	0.6944	0.8573	0	1	0.611	7	82	82
72	1	88	0	1	3	0.6944	0.8573	1	1	0.639	7	82	0
72	1	89	0	2	3	0.6944	0.8573	0	1	0.464	9	82	82
72	1	90	1	2	2	0.6944	0.8573	0	0	0.860	0	0	0
72	1	91	9	2	3	0.6944	0.8573	0	1	0.389	0	0	0
72	1	92	9	2	1	0.6944	0.8573	0	0	0.636	0	0	0
72	1	93	1	1	1	0.6944	0.8573	0	1	0.655	69	0	0
72	1	94	1	2	2	0.6944	0.8573	0	0	0.756	0	0	0
72	1	95	1	1	3	0.6944	0.8573	1	1	1.115	50	0	82
72	1	96	1	1	2	0.6944	0.8573	0	1	0.527	82	0	0
72	1	97	1	2	3	0.6944	0.8573	0	0	0.637	0	0	0
72	1	98	1	2	3	0.6944	0.8573	1	0	1.162	0	82	0
72	1	99	0	2	2	0.6944	0.8573	0	0	0.546	0	82	82
72	1	100	0	1	3	0.6944	0.8573	0	1	1.164	5	82	82
72	1	101	1	2	3	0.6944	0.8573	1	0	0.672	0	82	0
72	1	102	1	2	3	0.6944	0.8573	1	1	1.189	50	82	0
72	1	103	1	2	2	0.6944	0.8573	0	1	0.756	59	0	0
72	1	104	0	2	2	0.6944	0.8573	0	0	0.575	0	82	82
72	1	105	1	2	3	0.6944	0.8573	0	1	0.502	85	0	0
72	1	106	1	2	2	0.6944	0.8573	1	0	0.574	0	82	0
72	1	107	9	2	3	0.6944	0.8573	0	0	0.413	0	82	82
72	1	108	1	1	3	0.6944	0.8573	0	1	0.512	84	0	0
72	1	109	1	1	2	0.6944	0.8573	1	1	1.476	50	0	82
72	1	110	9	1	3	0.6944	0.8573	1	1	0.754	0	82	0
72	1	111	1	2	3	0.6944	0.8573	0	1	1.157	50	0	0
72	1	112	9	2	2	0.6944	0.8573	0	1	0.510	0	0	0
72	1	113	0	2	3	0.6944	0.8573	1	1	1.102	5	0	82
72	1	114	1	1	2	0.6944	0.8573	0	1	0.849	50	0	0
72	1	115	0	2	3	0.6944	0.8573	1	1	0.573	8	0	82
72	1	116	0	1	1	0.6944	0.8573	0	1	0.507	8	82	82
72	1	117	1	1	1	0.6944	0.8573	0	1	0.557	79	0	0
72	1	118	1	1	3	0.6944	0.8573	1	0	0.551	0	0	82
72	1	119	0	1	3	0.6944	0.8573	1	1	0.667	7	82	0
72	1	120	1	1	1	0.6944	0.8573	1	0	0.489	0	0	82
72	1	121	1	1	3	0.6944	0.8573	1	0	0.552	0	0	82
72	1	122	0	2	2	0.6944	0.8573	0	0	0.451	0	82	82
72	1	123	1	1	1	0.6944	0.8573	1	0	0.469	0	0	82
72	1	124	0	2	3	0.6944	0.8573	1	1	0.463	9	0	82
72	1	125	0	1	1	0.6944	0.8573	0	1	0.647	7	82	82
72	1	126	9	1	3	0.6944	0.8573	0	1	0.626	0	0	0
72	1	127	0	2	3	0.6944	0.8573	0	1	0.482	9	82	82
72	1	128	0	1	1	0.6944	0.8573	1	0	0.611	0	82	0
72	1	129	0	2	3	0.6944	0.8573	0	0	0.474	0	82	82
72	1	130	9	1	2	0.6944	0.8573	0	1	0.458	0	82	82
72	1	131	0	1	1	0.6944	0.8573	1	0	0.476	0	82	0
72	1	132	1	2	3	0.6944	0.8573	0	0	0.408	0	0	0
72	1	133	9	1	1	0.6944	0.8573	0	1	0.535	0	0	0
72	1	134	1	2	2	0.6944	0.8573	0	0	0.564	0	0	0
72	1	135	0	1	1	0.6944	0.8573	0	1	0.541	8	82	82
72	1	136	1	1	3	0.6944	0.8573	1	0	0.596	0	0	82
72	1	137	1	2	2	0.6944	0.8573	0	0	0.597	0	0	0
72	1	138	0	2	2	0.6944	0.8573	0	1	0.494	9	82	82
72	1	139	1	1	3	0.6944	0.8573	1	0	0.890	0	0	82
72	1	140	0	1	3	0.6944	0.8573	0	1	0.867	5	82	82
72	1	141	9	1	3	0.6944	0.8573	0	1	0.578	0	82	82
72	1	142	0	2	2	0.6944	0.8573	0	0	0.574	0	82	82
72	1	143	9	1	1	0.6944	0.8573	1	0	0.719	0	0	82
72	1	144	1	1	1	0.6944	0.8573	0	1	0.584	77	0	0
72	1	145	1	2	2	0.6944	0.8573	1	0	1.629	0	82	0
72	1	146	9	1	3	0.6944	0.8573	0	1	0.776	0	0	0
72	1	147	1	1	1	0.6944	0.8573	1	1	0.717	63	0	82
72	1	148	1	1	3	0.6944	0.8573	0	1	0.704	65	0	0
72	1	149	0	2	3	0.6944	0.8573	0	0	0.763	0	82	82
72	1	150	1	1	3	0.6944	0.8573	0	1	0.534	82	0	0
72	1	151	0	1	3	0.6944	0.8573	1	1	0.980	5	82	0
72	1	152	0	2	2	0.6944	0.8573	1	1	0.564	8	0	82
72	1	153	9	1	3	0.6944	0.8573	0	1	0.533	0	82	82
72	1	154	0	1	1	0.6944	0.8573	0	1	0.538	8	82	82
72	1	155	9	2	2	0.6944	0.8573	0	0	0.446	0	82	82
72	1	156	9	2	2	0.6944	0.8573	0	1	0.430	0	0	0
72	1	157	1	1	3	0.6944	0.8573	1	1	0.516	83	0	82
72	1	158	1	2	3	0.6944	0.8573	1	0	0.458	0	82	0
72	1	159	0	2	3	0.6944	0.8573	0	0	0.420	0	82	82
72	1	160	9	1	3	0.6944	0.8573	1	0	0.482	0	0	82
72	1	161	0	1	1	0.6944	0.8573	1	0	0.448	0	82	0
72	1	162	0	1	1	0.6944	0.8573	0	0	0.584	0	82	82
72	1	163	9	2	3	0.6944	0.8573	1	0	0.482	0	82	0
72	1	164	1	2	3	0.6944	0.8573	0	0	0.600	0	0	0
72	1	165	9	2	3	0.6944	0.8573	0	1	0.426	0	0	0
72	1	166	0	2	2	0.6944	0.8573	1	1	0.501	8	0	82
72	1	167	0	2	2	0.6944	0.8573	1	1	0.421	9	0	82
72	1	168	0	1	3	0.6944	0.8573	1	0	0.512	0	82	0
72	1	169	1	2	1	0.6944	0.8573	0	0	0.414	0	0	0
72	1	170	9	1	1	0.6944	0.8573	1	0	0.525	0	82	0
72	1	171	0	1	1	0.6944	0.8573	1	1	0.395	10	82	0
72	1	172	1	1	1	0.6944	0.8573	1	0	0.600	0	0	82
72	1	173	0	2	3	0.6944	0.8573	1	1	0.570	8	0	82
72	1	174	9	1	3	0.6944	0.8573	1	0	0.764	0	0	82
72	1	175	9	1	3	0.6944	0.8573	0	1	0.753	0	82	82
72	1	176	9	2	3	0.6944	0.8573	0	0	0.532	0	0	0
72	1	177	9	2	3	0.6944	0.8573	0	1	0.463	0	0	0
72	1	178	9	2	2	0.6944	0.8573	1	1	0.386	0	82	0
72	1	179	0	2	2	0.6944	0.8573	1	1	0.681	7	0	82
72	1	180	9	1	1	0.6944	0.8573	0	1	0.572	0	82	82
72	1	181	1	2	1	0.6944	0.8573	0	0	0.347	0	0	0
72	1	182	0	1	1	0.6944	0.8573	1	0	0.596	0	82	0
72	1	183	9	2	3	0.6944	0.8573	1	1	0.921	0	0	82
72	1	184	9	1	1	0.6944	0.8573	1	1	0.743	0	82	0
72	1	185	9	1	1	0.6944	0.8573	0	1	0.567	0	0	0
72	1	186	0	2	2	0.6944	0.8573	1	0	0.497	0	0	82
72	1	187	0	1	1	0.6944	0.8573	1	1	0.908	5	82	0
72	1	188	0	2	2	0.6944	0.8573	0	0	0.980	0	82	82
72	1	189	0	1	1	0.6944	0.8573	1	0	0.632	0	82	0
72	1	190	0	1	3	0.6944	0.8573	1	1	1.244	5	82	0
72	1	191	0	1	3	0.6944	0.8573	0	1	0.670	7	82	82
72	1	192	1	2	2	0.6944	0.8573	0	0	0.573	0	0	0
72	1	193	9	2	3	0.6944	0.8573	1	0	0.961	0	0	82
72	1	194	0	1	3	0.6944	0.8573	0	1	1.179	5	82	82
72	1	195	1	1	1	0.6944	0.8573	0	1	0.555	79	0	0
72	1	196	1	2	2	0.6944	0.8573	0	0	1.006	0	0	0
72	1	197	0	2	3	0.6944	0.8573	0	1	0.893	5	82	82
72	1	198	1	2	2	0.6944	0.8573	1	1	0.928	50	82	0
72	1	199	0	2	3	0.6944	0.8573	0	1	0.712	6	82	82
72	1	200	0	1	1	0.6944	0.8573	0	1	0.795	6	82	82
72	1	201	9	1	3	0.6944	0.8573	1	0	0.583	0	82	0
72	1	202	1	1	1	0.6944	0.8573	1	1	1.000	50	0	82
72	1	203	0	2	3	0.6944	0.8573	1	1	0.716	6	0	82
72	1	204	1	1	3	0.6944	0.8573	1	1	0.666	68	0	82
72	1	205	0	2	2	0.6944	0.8573	1	0	0.735	0	0	82
72	1	206	1	1	3	0.6944	0.8573	1	0	0.820	0	0	82
72	1	207	1	1	3	0.6944	0.8573	1	0	0.967	0	0	82
72	1	208	1	1	1	0.6944	0.8573	0	0	0.615	0	0	0
72	1	209	0	1	2	0.6944	0.8573	1	1	0.746	6	82	0
72	1	210	1	2	3	0.6944	0.8573	1	1	0.989	50	82	0
72	1	211	0	2	3	0.6944	0.8573	1	1	0.818	5	0	82
72	1	212	0	1	3	0.6944	0.8573	1	0	0.775	0	82	0
72	1	213	9	2	2	0.6944	0.8573	1	1	0.607	0	0	82
72	1	214	0	2	2	0.6944	0.8573	0	1	0.667	7	82	82
72	1	215	9	2	3	0.6944	0.8573	1	0	0.490	0	82	0
72	1	216	0	1	1	0.6944	0.8573	0	0	0.444	0	82	82
72	1	217	0	1	3	0.6944	0.8573	1	0	0.568	0	82	0
72	1	218	9	1	1	0.6944	0.8573	1	0	0.888	0	0	82
72	1	219	0	2	3	0.6944	0.8573	1	1	0.561	8	0	82
72	1	220	1	2	3	0.6944	0.8573	1	1	0.600	75	82	0
72	1	221	1	1	1	0.6944	0.8573	0	1	0.573	78	0	0
72	1	222	0	1	1	0.6944	0.8573	1	1	0.690	7	82	0
72	1	223	0	2	3	0.6944	0.8573	1	1	1.003	5	0	82
72	1	224	1	2	2	0.6944	0.8573	1	1	0.742	61	82	0
72	1	225	0	2	3	0.6944	0.8573	1	1	0.646	7	0	82
72	1	226	9	1	3	0.6944	0.8573	0	1	0.811	0	82	82
72	1	227	1	1	2	0.6944	0.8573	1	1	1.031	50	0	82
72	1	228	0	2	2	0.6944	0.8573	0	0	0.759	0	82	82
72	1	229	9	2	2	0.6944	0.8573	1	0	0.602	0	0	82
72	1	230	0	1	1	0.6944	0.8573	0	0	0.589	0	82	82
72	1	231	0	2	2	0.6944	0.8573	1	0	0.757	0	0	82
72	1	232	9	1	2	0.6944	0.8573	0	0	0.737	0	0	0
72	1	233	0	1	1	0.6944	0.8573	0	1	0.540	8	82	82
72	1	234	9	2	3	0.6944	0.8573	1	0	1.194	0	0	82
72	1	235	9	1	1	0.6944	0.8573	0	1	0.878	0	82	82
72	1	236	0	2	2	0.6944	0.8573	1	1	0.550	8	0	82
72	1	237	1	1	1	0.6944	0.8573	1	1	0.833	52	0	82
72	1	238	0	2	1	0.6944	0.8573	1	1	0.492	9	0	82
72	1	239	1	1	1	0.6944	0.8573	0	0	0.656	0	0	0
72	1	240	1	2	1	0.6944	0.8573	0	1	0.451	90	0	0
72	1	241	9	2	1	0.6944	0.8573	1	1	4.695	0	82	0
72	1	242	0	2	3	0.6944	0.8573	1	0	0.441	0	0	82
72	1	243	1	1	1	0.6944	0.8573	1	1	0.331	100	0	82
72	1	244	9	2	3	0.6944	0.8573	0	0	0.632	0	82	82
72	1	245	0	2	2	0.6944	0.8573	0	1	0.423	9	82	82
72	1	246	1	1	1	0.6944	0.8573	0	0	0.395	0	0	0
72	1	247	0	1	3	0.6944	0.8573	1	0	0.451	0	82	0
72	1	248	1	2	2	0.6944	0.8573	1	1	0.430	92	82	0
72	1	249	0	1	1	0.6944	0.8573	1	0	0.504	0	82	0
72	1	250	1	2	3	0.6944	0.8573	0	0	0.415	0	0	0
72	1	251	1	1	3	0.6944	0.8573	1	0	0.434	0	0	82
72	1	252	1	2	2	0.6944	0.8573	1	1	0.496	85	82	0
72	1	253	1	1	3	0.6944	0.8573	0	1	0.554	80	0	0
72	1	254	0	1	1	0.6944	0.8573	1	0	0.592	0	82	0
72	1	255	1	2	3	0.6944	0.8573	1	1	0.404	95	82	0
72	1	256	0	1	2	0.6944	0.8573	0	0	0.611	0	82	82
72	1	257	0	2	2	0.6944	0.8573	0	0	1.672	0	82	82
72	1	258	1	2	3	0.6944	0.8573	0	1	0.485	87	0	0
72	1	259	0	1	3	0.6944	0.8573	0	1	1.821	5	82	82
72	1	260	0	2	2	0.6944	0.8573	1	1	0.961	5	0	82
72	1	261	0	2	1	0.6944	0.8573	1	0	0.458	0	0	82
72	1	262	0	1	3	0.6944	0.8573	0	0	0.542	0	82	82
72	1	263	1	1	2	0.6944	0.8573	0	1	0.443	91	0	0
72	1	264	1	1	1	0.6944	0.8573	0	0	0.374	0	0	0
72	1	265	1	2	2	0.6944	0.8573	0	0	0.377	0	0	0
72	1	266	1	2	3	0.6944	0.8573	1	0	0.418	0	82	0
72	1	267	0	2	1	0.6944	0.8573	0	0	0.540	0	82	82
72	1	268	0	2	1	0.6944	0.8573	0	1	0.416	9	82	82
72	1	269	1	1	3	0.6944	0.8573	0	0	1.241	0	0	0
72	1	270	1	2	2	0.6944	0.8573	0	1	0.510	84	0	0
72	1	271	1	1	3	0.6944	0.8573	0	1	0.466	88	0	0
72	1	272	0	2	3	0.6944	0.8573	0	1	0.419	9	82	82
72	1	273	0	1	3	0.6944	0.8573	1	0	0.357	0	82	0
72	1	274	0	1	1	0.6944	0.8573	0	1	0.477	9	82	82
72	1	275	0	1	2	0.6944	0.8573	0	1	0.397	10	82	82
72	1	276	0	1	3	0.6944	0.8573	0	1	0.532	8	82	82
72	1	277	9	2	3	0.6944	0.8573	0	1	0.516	0	82	82
72	1	278	1	1	1	0.6944	0.8573	1	0	0.380	0	0	82
72	1	279	0	1	3	0.6944	0.8573	0	1	0.712	6	82	82
72	1	280	9	2	2	0.6944	0.8573	0	1	2.671	0	82	82
72	1	281	1	2	3	0.6944	0.8573	1	1	0.654	70	82	0
72	1	282	0	1	1	0.6944	0.8573	0	1	0.568	8	82	82
72	1	283	9	1	2	0.6944	0.8573	1	0	0.756	0	0	82
72	1	284	0	2	3	0.6944	0.8573	1	1	0.595	8	0	82
72	1	285	1	2	2	0.6944	0.8573	1	1	0.586	76	82	0
72	1	286	0	1	1	0.6944	0.8573	1	0	0.530	0	82	0
72	1	287	0	1	1	0.6944	0.8573	0	0	0.569	0	82	82
72	1	288	1	2	3	0.6944	0.8573	0	1	0.639	71	0	0
72	1	289	0	1	3	0.6944	0.8573	0	1	0.550	8	82	82
72	1	290	1	1	3	0.6944	0.8573	1	0	0.493	0	0	82
72	1	291	0	1	1	0.6944	0.8573	1	0	0.456	0	82	0
72	1	292	9	2	3	0.6944	0.8573	1	1	0.580	0	82	0
72	1	293	0	1	3	0.6944	0.8573	1	1	0.683	7	82	0
72	1	294	1	1	1	0.6944	0.8573	0	1	0.685	66	0	0
72	1	295	0	1	3	0.6944	0.8573	0	1	0.611	7	82	82
72	1	296	0	2	3	0.6944	0.8573	1	1	0.511	8	0	82
72	1	297	0	2	3	0.6944	0.8573	0	1	0.495	9	82	82
72	1	298	0	1	3	0.6944	0.8573	0	1	0.639	7	82	82
72	1	299	0	1	2	0.6944	0.8573	1	1	0.479	9	82	0
72	1	300	9	1	1	0.6944	0.8573	1	0	0.446	0	82	0
72	1	301	1	1	3	0.6944	0.8573	1	1	0.446	90	0	82
72	1	302	1	1	1	0.6944	0.8573	1	0	0.391	0	0	82
72	1	303	0	1	3	0.6944	0.8573	1	1	0.395	10	82	0
72	1	304	1	2	3	0.6944	0.8573	1	0	0.477	0	82	0
72	1	305	1	1	1	0.6944	0.8573	0	0	0.432	0	0	0
72	1	306	1	1	1	0.6944	0.8573	1	0	0.429	0	0	82
72	1	307	1	2	1	0.6944	0.8573	1	0	0.305	0	82	0
72	1	308	0	2	2	0.6944	0.8573	0	0	-0.034	0	82	82
72	1	309	9	2	2	0.6944	0.8573	1	0	0.537	0	0	82
72	1	310	0	1	1	0.6944	0.8573	1	1	0.610	7	82	0
72	1	311	1	2	1	0.6944	0.8573	0	0	0.708	0	0	0
72	1	312	0	2	2	0.6944	0.8573	1	0	0.592	0	0	82
72	1	313	1	1	1	0.6944	0.8573	1	1	0.385	96	0	82
72	1	314	1	2	3	0.6944	0.8573	1	0	0.395	0	82	0
72	1	315	9	2	2	0.6944	0.8573	0	0	-0.021	0	0	0
72	1	316	1	1	3	0.6944	0.8573	0	1	0.554	80	0	0
72	1	317	9	1	1	0.6944	0.8573	0	1	0.435	0	0	0
72	1	318	1	2	2	0.6944	0.8573	1	1	0.558	79	82	0
72	1	319	1	2	2	0.6944	0.8573	0	0	0.570	0	0	0
72	1	320	9	2	3	0.6944	0.8573	1	0	0.490	0	82	0
72	1	321	1	2	2	0.6944	0.8573	1	1	0.336	100	82	0
72	1	322	1	2	2	0.6944	0.8573	1	1	0.510	84	82	0
72	1	323	0	2	1	0.6944	0.8573	1	1	0.496	9	0	82
72	1	324	0	1	3	0.6944	0.8573	1	0	0.476	0	82	0
72	1	325	1	2	3	0.6944	0.8573	0	0	0.466	0	0	0
72	1	326	9	1	3	0.6944	0.8573	1	1	0.397	0	0	82
72	1	327	0	1	1	0.6944	0.8573	0	1	0.311	10	82	82
72	1	328	9	2	3	0.6944	0.8573	0	0	0.369	0	82	82
72	1	329	1	2	2	0.6944	0.8573	1	0	0.355	0	82	0
72	1	330	1	1	3	0.6944	0.8573	1	0	0.530	0	0	82
72	1	331	1	1	3	0.6944	0.8573	0	0	0.352	0	0	0
72	1	332	9	2	2	0.6944	0.8573	1	1	0.340	0	82	0
72	1	333	0	2	3	0.6944	0.8573	1	0	0.564	0	0	82
72	1	334	9	1	3	0.6944	0.8573	0	0	0.424	0	0	0
72	1	335	1	2	3	0.6944	0.8573	0	1	0.300	100	0	0
72	1	336	0	1	1	0.6944	0.8573	0	0	1.527	0	82	82
72	1	337	1	1	3	0.6944	0.8573	1	0	0.406	0	0	82
72	1	338	0	1	1	0.6944	0.8573	1	1	0.496	9	82	0
72	1	339	1	1	3	0.6944	0.8573	0	1	0.473	88	0	0
72	1	340	1	1	1	0.6944	0.8573	0	1	0.711	64	0	0
72	1	341	1	1	2	0.6944	0.8573	0	0	0.384	0	0	0
72	1	342	0	1	3	0.6944	0.8573	0	1	0.286	10	82	82
72	1	343	0	2	2	0.6944	0.8573	1	0	0.883	0	0	82
72	1	344	0	2	2	0.6944	0.8573	0	0	0.334	0	82	82
72	1	345	9	1	1	0.6944	0.8573	0	1	0.368	0	82	82
72	1	346	0	2	2	0.6944	0.8573	1	1	0.402	9	0	82
72	1	347	9	2	2	0.6944	0.8573	1	0	0.419	0	82	0
72	1	348	9	2	2	0.6944	0.8573	1	0	0.332	0	82	0
72	1	349	1	2	2	0.6944	0.8573	1	1	0.412	94	82	0
72	1	350	9	1	3	0.6944	0.8573	0	1	0.438	0	0	0
72	1	351	0	2	2	0.6944	0.8573	0	0	0.315	0	82	82
72	1	352	9	1	1	0.6944	0.8573	0	1	0.356	0	0	0
72	1	353	9	1	1	0.6944	0.8573	1	0	0.465	0	0	82
72	1	354	0	1	3	0.6944	0.8573	0	0	0.416	0	82	82
72	1	355	1	1	2	0.6944	0.8573	1	0	0.378	0	0	82
72	1	356	9	1	3	0.6944	0.8573	1	1	0.841	0	0	82
72	1	357	1	1	3	0.6944	0.8573	0	0	0.697	0	0	0
72	1	358	1	1	1	0.6944	0.8573	0	1	0.482	87	0	0
72	1	359	9	2	1	0.6944	0.8573	0	1	0.684	0	82	82
72	1	360	0	2	3	0.6944	0.8573	0	0	0.490	0	82	82
72	1	361	0	1	3	0.6944	0.8573	0	1	0.372	10	82	82
72	1	362	0	1	1	0.6944	0.8573	0	1	0.427	9	82	82
72	1	363	9	1	3	0.6944	0.8573	1	0	0.464	0	0	82
72	1	364	1	1	3	0.6944	0.8573	1	0	0.551	0	0	82
72	1	365	1	2	2	0.6944	0.8573	0	0	0.400	0	0	0
72	1	366	1	1	3	0.6944	0.8573	1	0	0.371	0	0	82
72	1	367	9	2	2	0.6944	0.8573	0	0	0.607	0	0	0
72	1	368	9	1	3	0.6944	0.8573	0	1	0.587	0	0	0
72	1	369	1	2	2	0.6944	0.8573	1	1	0.381	97	82	0
72	1	370	1	2	2	0.6944	0.8573	0	1	0.469	88	0	0
72	1	371	1	2	3	0.6944	0.8573	1	1	0.387	96	82	0
72	1	372	1	2	2	0.6944	0.8573	1	0	0.362	0	82	0
72	1	373	1	2	3	0.6944	0.8573	1	1	0.310	100	82	0
72	1	374	0	1	3	0.6944	0.8573	1	0	0.549	0	82	0
72	1	375	1	2	3	0.6944	0.8573	0	0	0.508	0	0	0
72	1	376	0	2	3	0.6944	0.8573	1	0	0.441	0	0	82
72	1	377	0	2	3	0.6944	0.8573	0	0	0.342	0	82	82
72	1	378	0	2	1	0.6944	0.8573	1	0	0.339	0	0	82
72	1	379	1	1	1	0.6944	0.8573	1	1	0.419	93	0	82
72	1	380	0	2	2	0.6944	0.8573	0	1	0.491	9	82	82
72	1	381	0	1	1	0.6944	0.8573	1	1	0.406	9	82	0
72	1	382	9	1	3	0.6944	0.8573	0	1	0.727	0	0	0
72	1	383	9	1	2	0.6944	0.8573	0	1	0.788	0	82	82
72	1	384	0	1	3	0.6944	0.8573	0	0	0.587	0	82	82
72	1	385	1	2	2	0.6944	0.8573	0	1	1.148	50	0	0
72	1	386	0	1	3	0.6944	0.8573	0	1	0.507	8	82	82
72	1	387	1	1	2	0.6944	0.8573	1	1	0.443	91	0	82
72	1	388	0	2	3	0.6944	0.8573	1	0	0.394	0	0	82
72	1	389	0	2	2	0.6944	0.8573	0	1	0.277	10	82	82
72	1	390	0	2	2	0.6944	0.8573	0	1	0.296	10	82	82
72	1	391	0	2	3	0.6944	0.8573	0	1	0.342	10	82	82
72	1	392	0	1	1	0.6944	0.8573	1	0	0.479	0	82	0
72	1	393	1	1	3	0.6944	0.8573	1	0	4.439	0	0	82
72	1	394	1	1	1	0.6944	0.8573	0	0	0.652	0	0	0
72	1	395	1	1	3	0.6944	0.8573	0	1	0.377	97	0	0
72	1	396	9	2	2	0.6944	0.8573	1	0	0.616	0	0	82
72	1	397	9	1	1	0.6944	0.8573	0	1	0.417	0	82	82
72	1	398	1	2	2	0.6944	0.8573	1	1	0.741	61	82	0
72	1	399	1	2	2	0.6944	0.8573	0	1	0.411	94	0	0
72	1	400	1	2	1	0.6944	0.8573	1	1	0.593	76	82	0
72	1	401	1	2	2	0.6944	0.8573	0	0	0.382	0	0	0
72	1	402	1	1	2	0.6944	0.8573	0	1	0.361	99	0	0
72	1	403	0	2	2	0.6944	0.8573	1	1	0.481	9	0	82
72	1	404	1	2	1	0.6944	0.8573	0	1	0.541	81	0	0
72	1	405	1	2	2	0.6944	0.8573	1	1	0.693	66	82	0
72	1	406	9	2	3	0.6944	0.8573	1	1	0.703	0	0	82
72	1	407	1	1	1	0.6944	0.8573	1	0	0.505	0	0	82
72	1	408	1	1	3	0.6944	0.8573	1	0	0.818	0	0	82
72	1	409	9	2	3	0.6944	0.8573	1	1	0.886	0	82	0
72	1	410	9	2	2	0.6944	0.8573	0	1	0.624	0	82	82
72	1	411	0	1	2	0.6944	0.8573	1	0	0.773	0	82	0
72	1	412	0	2	3	0.6944	0.8573	0	0	0.423	0	82	82
72	1	413	0	1	1	0.6944	0.8573	0	1	0.414	9	82	82
72	1	414	1	2	2	0.6944	0.8573	0	0	0.523	0	0	0
72	1	415	9	2	3	0.6944	0.8573	1	0	0.373	0	0	82
72	1	416	0	2	3	0.6944	0.8573	0	0	0.390	0	82	82
72	1	417	1	2	3	0.6944	0.8573	0	1	0.362	99	0	0
72	1	418	0	2	2	0.6944	0.8573	0	0	0.403	0	82	82
72	1	419	9	1	1	0.6944	0.8573	0	1	0.354	0	82	82
72	1	420	0	1	1	0.6944	0.8573	1	1	0.361	10	82	0
72	1	421	1	1	1	0.6944	0.8573	1	0	0.352	0	0	82
72	1	422	9	2	3	0.6944	0.8573	0	0	0.390	0	82	82
72	1	423	0	1	1	0.6944	0.8573	0	1	0.346	10	82	82
72	1	424	0	2	3	0.6944	0.8573	1	0	0.509	0	0	82
72	1	425	0	1	3	0.6944	0.8573	1	1	0.331	10	82	0
72	1	426	9	2	2	0.6944	0.8573	0	0	0.884	0	0	0
72	1	427	0	2	2	0.6944	0.8573	0	1	0.397	10	82	82
72	1	428	1	2	3	0.6944	0.8573	1	1	0.664	69	82	0
72	1	429	9	2	2	0.6944	0.8573	1	1	0.618	0	0	82
72	1	430	1	2	3	0.6944	0.8573	0	1	0.587	76	0	0
72	1	431	1	1	3	0.6944	0.8573	0	0	0.985	0	0	0
72	1	432	1	2	3	0.6944	0.8573	0	1	0.878	50	0	0
72	1	433	1	1	3	0.6944	0.8573	0	0	0.965	0	0	0
72	1	434	0	2	2	0.6944	0.8573	0	1	0.459	9	82	82
72	1	435	1	2	3	0.6944	0.8573	0	1	0.415	94	0	0
72	1	436	1	1	3	0.6944	0.8573	1	0	0.935	0	0	82
72	1	437	1	1	1	0.6944	0.8573	1	1	0.392	96	0	82
72	1	438	9	2	3	0.6944	0.8573	0	1	0.426	0	0	0
72	1	439	1	1	1	0.6944	0.8573	0	0	0.415	0	0	0
72	1	440	0	1	3	0.6944	0.8573	1	0	0.517	0	82	0
72	1	441	1	2	2	0.6944	0.8573	0	0	0.347	0	0	0
72	1	442	1	2	3	0.6944	0.8573	0	1	0.376	97	0	0
72	1	443	0	1	1	0.6944	0.8573	1	0	0.976	0	82	0
72	1	444	0	1	1	0.6944	0.8573	1	1	0.678	7	82	0
72	1	445	0	2	1	0.6944	0.8573	0	1	0.668	7	82	82
72	1	446	0	1	3	0.6944	0.8573	0	1	0.649	7	82	82
72	1	447	0	2	2	0.6944	0.8573	0	0	0.513	0	82	82
72	1	448	9	1	3	0.6944	0.8573	1	0	0.683	0	82	0
72	1	449	0	1	1	0.6944	0.8573	0	1	0.584	8	82	82
72	1	450	0	2	3	0.6944	0.8573	1	1	0.838	5	0	82
72	1	451	0	1	2	0.6944	0.8573	1	0	0.433	0	82	0
72	1	452	1	1	1	0.6944	0.8573	0	0	0.581	0	0	0
72	1	453	0	1	1	0.6944	0.8573	0	1	0.430	9	82	82
72	1	454	0	1	2	0.6944	0.8573	0	1	0.762	6	82	82
72	1	455	9	2	3	0.6944	0.8573	0	1	0.515	0	82	82
72	1	456	0	1	3	0.6944	0.8573	0	0	0.656	0	82	82
72	1	457	1	2	2	0.6944	0.8573	1	0	0.988	0	82	0
72	1	458	0	1	1	0.6944	0.8573	0	0	0.734	0	82	82
72	1	459	9	1	1	0.6944	0.8573	1	0	0.518	0	82	0
72	1	460	1	1	3	0.6944	0.8573	1	1	0.901	50	0	82
72	1	461	1	2	1	0.6944	0.8573	1	1	0.524	83	82	0
72	1	462	1	2	3	0.6944	0.8573	1	1	0.901	50	82	0
72	1	463	0	2	3	0.6944	0.8573	1	1	0.518	8	0	82
72	1	464	9	1	3	0.6944	0.8573	1	0	0.641	0	82	0
72	1	465	1	1	3	0.6944	0.8573	1	1	1.042	50	0	82
72	1	466	0	2	3	0.6944	0.8573	0	1	0.957	5	82	82
72	1	467	9	2	2	0.6944	0.8573	1	1	0.622	0	0	82
72	1	468	0	1	1	0.6944	0.8573	1	0	0.784	0	82	0
72	1	469	0	1	3	0.6944	0.8573	0	0	0.533	0	82	82
72	1	470	0	1	1	0.6944	0.8573	0	1	0.479	9	82	82
72	1	471	0	1	3	0.6944	0.8573	1	0	0.761	0	82	0
72	1	472	0	2	3	0.6944	0.8573	1	1	0.429	9	0	82
72	1	473	9	2	2	0.6944	0.8573	0	0	0.528	0	82	82
72	1	474	0	2	3	0.6944	0.8573	1	0	0.406	0	0	82
72	1	475	9	2	3	0.6944	0.8573	0	0	0.303	0	0	0
72	1	476	9	2	2	0.6944	0.8573	1	1	0.700	0	0	82
72	1	477	1	2	3	0.6944	0.8573	1	0	0.662	0	82	0
72	1	478	1	2	1	0.6944	0.8573	0	0	0.439	0	0	0
72	1	479	0	2	3	0.6944	0.8573	0	1	0.440	9	82	82
72	1	480	1	1	3	0.6944	0.8573	1	0	0.825	0	0	82
72	1	481	9	1	1	0.6944	0.8573	1	1	0.585	0	82	0
72	1	482	0	2	2	0.6944	0.8573	1	0	0.367	0	0	82
72	1	483	1	1	1	0.6944	0.8573	1	1	0.794	56	0	82
72	1	484	1	1	3	0.6944	0.8573	1	1	0.467	88	0	82
72	1	485	1	1	1	0.6944	0.8573	1	1	0.421	93	0	82
72	1	486	9	1	1	0.6944	0.8573	1	1	0.407	0	0	82
72	1	487	0	1	1	0.6944	0.8573	1	1	0.464	9	82	0
72	1	488	0	1	1	0.6944	0.8573	1	1	0.495	9	82	0
72	1	489	1	1	2	0.6944	0.8573	0	0	0.456	0	0	0
72	1	490	0	2	3	0.6944	0.8573	1	0	0.734	0	0	82
72	1	491	0	2	2	0.6944	0.8573	1	1	0.421	9	0	82
72	1	492	9	2	3	0.6944	0.8573	1	0	0.353	0	0	82
72	1	493	0	1	3	0.6944	0.8573	1	1	0.355	10	82	0
72	1	494	1	2	2	0.6944	0.8573	0	1	0.337	100	0	0
72	1	495	1	2	1	0.6944	0.8573	1	1	0.394	96	82	0
72	1	496	1	1	1	0.6944	0.8573	0	1	0.331	100	0	0
72	1	497	9	2	2	0.6944	0.8573	0	0	0.467	0	0	0
72	1	498	0	1	1	0.6944	0.8573	0	1	0.298	10	82	82
72	1	499	1	1	3	0.6944	0.8573	0	0	0.571	0	0	0
72	1	500	9	1	1	0.6944	0.8573	1	0	0.331	0	0	82
72	1	501	0	2	2	0.6944	0.8573	1	1	0.338	10	0	82
72	1	502	1	1	1	0.6944	0.8573	0	0	0.331	0	0	0
72	1	503	0	2	3	0.6944	0.8573	1	0	0.306	0	0	82
72	1	504	1	2	2	0.6944	0.8573	0	0	0.295	0	0	0
72	1	505	0	1	3	0.6944	0.8573	1	0	0.335	0	82	0
72	1	506	1	2	2	0.6944	0.8573	1	1	0.486	86	82	0
72	1	507	9	1	1	0.6944	0.8573	1	0	0.423	0	82	0
72	1	508	0	2	3	0.6944	0.8573	0	0	0.443	0	82	82
72	1	509	0	2	2	0.6944	0.8573	0	1	0.366	10	82	82
72	1	510	0	1	2	0.6944	0.8573	0	0	0.464	0	82	82
72	1	511	9	2	3	0.6944	0.8573	0	1	0.381	0	82	82
72	1	512	0	2	1	0.6944	0.8573	1	1	0.288	10	0	82
72	1	513	0	1	3	0.6944	0.8573	1	1	0.627	7	82	0
72	1	514	1	2	2	0.6944	0.8573	0	0	0.675	0	0	0
72	1	515	1	1	1	0.6944	0.8573	0	1	0.843	51	0	0
72	1	516	1	2	3	0.6944	0.8573	0	0	0.719	0	0	0
72	1	517	1	1	1	0.6944	0.8573	1	0	0.476	0	0	82
72	1	518	0	2	3	0.6944	0.8573	1	1	0.438	9	0	82
72	1	519	1	2	1	0.6944	0.8573	1	0	0.351	0	82	0
72	1	520	0	1	3	0.6944	0.8573	0	0	0.386	0	82	82
72	1	521	1	1	3	0.6944	0.8573	0	1	0.321	100	0	0
72	1	522	1	2	3	0.6944	0.8573	0	0	0.433	0	0	0
72	1	523	9	1	3	0.6944	0.8573	0	1	0.407	0	0	0
72	1	524	1	2	3	0.6944	0.8573	1	0	0.321	0	82	0
72	1	525	1	1	1	0.6944	0.8573	0	0	0.392	0	0	0
72	1	526	1	1	3	0.6944	0.8573	1	0	0.675	0	0	82
72	1	527	0	1	1	0.6944	0.8573	0	0	0.328	0	82	82
72	1	528	0	2	3	0.6944	0.8573	1	1	0.805	5	0	82
72	1	529	0	2	3	0.6944	0.8573	0	1	0.480	9	82	82
72	1	530	0	1	1	0.6944	0.8573	1	0	0.508	0	82	0
72	1	531	1	1	2	0.6944	0.8573	1	1	0.352	100	0	82
72	1	532	1	1	1	0.6944	0.8573	1	0	0.335	0	0	82
72	1	533	1	2	2	0.6944	0.8573	0	0	0.340	0	0	0
72	1	534	0	1	1	0.6944	0.8573	1	0	0.472	0	82	0
72	1	535	0	2	1	0.6944	0.8573	0	0	0.396	0	82	82
72	1	536	0	2	2	0.6944	0.8573	0	1	0.365	10	82	82
72	1	537	1	1	1	0.6944	0.8573	1	0	0.473	0	0	82
72	1	538	9	2	2	0.6944	0.8573	1	1	0.357	0	82	0
72	1	539	1	1	3	0.6944	0.8573	0	1	0.382	97	0	0
72	1	540	1	1	3	0.6944	0.8573	0	0	0.403	0	0	0
72	1	541	0	2	3	0.6944	0.8573	0	1	0.274	10	82	82
72	1	542	0	2	1	0.6944	0.8573	1	0	0.427	0	0	82
72	1	543	1	1	1	0.6944	0.8573	1	1	0.369	98	0	82
72	1	544	1	2	2	0.6944	0.8573	0	1	0.293	100	0	0
72	1	545	1	1	3	0.6944	0.8573	0	0	0.753	0	0	0
72	1	546	0	2	2	0.6944	0.8573	0	1	0.081	10	82	82
72	1	547	0	2	2	0.6944	0.8573	1	0	0.325	0	0	82
72	1	548	9	1	3	0.6944	0.8573	0	1	0.327	0	82	82
72	1	549	1	2	3	0.6944	0.8573	1	0	0.295	0	82	0
72	1	550	1	2	3	0.6944	0.8573	1	1	0.319	100	82	0
72	1	551	9	2	2	0.6944	0.8573	0	1	0.330	0	82	82
72	1	552	9	1	1	0.6944	0.8573	0	0	0.267	0	0	0
72	1	553	0	1	1	0.6944	0.8573	0	1	0.290	10	82	82
72	1	554	0	1	3	0.6944	0.8573	1	0	0.484	0	82	0
72	1	555	0	1	1	0.6944	0.8573	0	1	0.383	10	82	82
72	1	556	1	2	3	0.6944	0.8573	0	1	0.356	99	0	0
72	1	557	1	2	3	0.6944	0.8573	0	1	4.112	50	0	0
72	1	558	1	2	3	0.6944	0.8573	1	0	2.153	0	82	0
72	1	559	9	1	2	0.6944	0.8573	1	0	0.300	0	0	82
72	1	560	0	2	3	0.6944	0.8573	1	1	0.283	10	0	82
72	1	561	0	1	3	0.6944	0.8573	0	0	0.379	0	82	82
72	1	562	1	2	3	0.6944	0.8573	0	1	0.290	100	0	0
72	1	563	9	2	2	0.6944	0.8573	1	1	0.333	0	82	0
72	1	564	0	2	2	0.6944	0.8573	1	0	0.305	0	0	82
72	1	565	0	1	3	0.6944	0.8573	1	1	0.342	10	82	0
72	1	566	0	2	3	0.6944	0.8573	1	0	0.370	0	0	82
72	1	567	0	2	2	0.6944	0.8573	1	1	0.410	9	0	82
72	1	568	1	1	1	0.6944	0.8573	0	1	0.397	95	0	0
72	1	569	9	1	1	0.6944	0.8573	1	0	0.432	0	0	82
72	1	570	0	1	1	0.6944	0.8573	1	1	0.329	10	82	0
72	1	571	0	1	1	0.6944	0.8573	0	1	0.349	10	82	82
72	1	572	0	2	3	0.6944	0.8573	0	0	0.383	0	82	82
72	1	573	1	2	3	0.6944	0.8573	1	0	0.343	0	82	0
72	1	574	0	1	3	0.6944	0.8573	0	0	0.372	0	82	82
72	1	575	0	2	2	0.6944	0.8573	1	0	0.290	0	0	82
72	1	576	0	2	2	0.6944	0.8573	0	0	0.419	0	82	82
72	1	577	1	1	3	0.6944	0.8573	0	1	0.453	90	0	0
72	1	578	1	2	3	0.6944	0.8573	0	1	0.392	96	0	0
72	1	579	9	2	3	0.6944	0.8573	0	1	0.394	0	0	0
72	1	580	9	1	1	0.6944	0.8573	0	1	0.314	0	0	0
72	1	581	9	1	3	0.6944	0.8573	1	1	0.310	0	0	82
72	1	582	1	2	2	0.6944	0.8573	1	0	0.282	0	82	0
72	1	583	1	1	1	0.6944	0.8573	0	0	0.255	0	0	0
72	1	584	1	2	2	0.6944	0.8573	1	0	0.298	0	82	0
72	1	585	1	2	3	0.6944	0.8573	1	1	0.306	100	82	0
72	1	586	0	2	2	0.6944	0.8573	1	1	0.304	10	0	82
72	1	587	9	1	1	0.6944	0.8573	0	0	0.404	0	0	0
72	1	588	1	2	3	0.6944	0.8573	1	0	0.255	0	82	0
72	1	589	1	2	2	0.6944	0.8573	1	1	0.278	100	82	0
72	1	590	1	1	1	0.6944	0.8573	1	0	1.755	0	0	82
72	1	591	1	1	3	0.6944	0.8573	0	0	0.436	0	0	0
72	1	592	9	1	3	0.6944	0.8573	1	0	0.359	0	0	82
72	1	593	1	2	2	0.6944	0.8573	0	0	0.305	0	0	0
72	1	594	9	2	2	0.6944	0.8573	1	0	0.446	0	82	0
72	1	595	1	2	1	0.6944	0.8573	0	1	0.169	100	0	0
72	1	596	0	1	3	0.6944	0.8573	0	1	1.979	5	82	82
72	1	597	1	2	2	0.6944	0.8573	1	0	0.278	0	82	0
72	1	598	1	2	2	0.6944	0.8573	0	0	0.306	0	0	0
72	1	599	9	1	1	0.6944	0.8573	0	1	0.294	0	82	82
72	1	600	1	1	1	0.6944	0.8573	0	0	0.247	0	0	0
72	1	601	1	1	3	0.6944	0.8573	1	1	0.412	94	0	82
72	1	602	9	2	1	0.6944	0.8573	0	0	0.460	0	82	82
72	1	603	0	1	3	0.6944	0.8573	1	0	0.594	0	82	0
72	1	604	9	1	3	0.6944	0.8573	1	1	0.364	0	82	0
72	1	605	1	2	3	0.6944	0.8573	1	0	0.319	0	82	0
72	1	606	0	2	1	0.6944	0.8573	1	1	0.297	10	0	82
72	1	607	0	1	3	0.6944	0.8573	1	0	0.354	0	82	0
72	1	608	1	2	2	0.6944	0.8573	1	1	0.303	100	82	0
72	1	609	0	1	2	0.6944	0.8573	1	0	0.987	0	82	0
72	1	610	1	1	3	0.6944	0.8573	0	0	0.276	0	0	0
72	1	611	9	1	1	0.6944	0.8573	1	0	0.397	0	0	82
72	1	612	1	2	3	0.6944	0.8573	0	1	0.439	91	0	0
72	1	613	1	1	1	0.6944	0.8573	1	0	0.329	0	0	82
72	1	614	0	1	2	0.6944	0.8573	0	0	0.242	0	82	82
72	1	615	9	1	3	0.6944	0.8573	1	0	0.310	0	0	82
72	1	616	0	1	1	0.6944	0.8573	1	0	0.025	0	82	0
72	1	617	1	1	1	0.6944	0.8573	0	1	0.199	100	0	0
72	1	618	1	2	2	0.6944	0.8573	0	1	0.293	100	0	0
72	1	619	1	1	3	0.6944	0.8573	0	1	0.322	100	0	0
72	1	620	0	2	2	0.6944	0.8573	1	0	0.282	0	0	82
72	1	621	9	1	3	0.6944	0.8573	0	0	0.310	0	82	82
72	1	622	1	2	2	0.6944	0.8573	0	1	0.280	100	0	0
72	1	623	9	2	3	0.6944	0.8573	0	0	0.521	0	0	0
72	1	624	1	2	2	0.6944	0.8573	1	0	0.359	0	82	0
72	1	625	9	2	1	0.6944	0.8573	1	1	0.388	0	0	82
72	1	626	9	2	3	0.6944	0.8573	1	0	0.354	0	0	82
72	1	627	0	1	1	0.6944	0.8573	1	1	0.346	10	82	0
72	1	628	0	1	3	0.6944	0.8573	0	1	0.508	8	82	82
72	1	629	0	1	1	0.6944	0.8573	0	1	0.482	9	82	82
72	1	630	1	2	3	0.6944	0.8573	0	0	0.331	0	0	0
72	1	631	9	1	3	0.6944	0.8573	0	1	0.361	0	82	82
72	1	632	0	1	3	0.6944	0.8573	0	0	0.292	0	82	82
72	1	633	0	2	2	0.6944	0.8573	1	0	0.365	0	0	82
72	1	634	1	2	3	0.6944	0.8573	1	1	0.311	100	82	0
72	1	635	0	2	2	0.6944	0.8573	0	1	0.391	10	82	82
72	1	636	0	2	2	0.6944	0.8573	0	0	0.363	0	82	82
72	1	637	0	1	3	0.6944	0.8573	1	0	0.435	0	82	0
72	1	638	0	2	3	0.6944	0.8573	0	0	0.380	0	82	82
72	1	639	0	2	3	0.6944	0.8573	0	1	0.348	10	82	82
72	1	640	0	2	3	0.6944	0.8573	1	1	0.336	10	0	82
72	1	641	9	1	3	0.6944	0.8573	1	1	0.353	0	82	0
72	1	642	0	1	3	0.6944	0.8573	1	1	0.721	6	82	0
72	1	643	0	1	1	0.6944	0.8573	0	1	0.749	6	82	82
72	1	644	0	2	3	0.6944	0.8573	0	0	0.597	0	82	82
72	1	645	9	1	1	0.6944	0.8573	0	1	0.468	0	82	82
72	1	646	1	1	1	0.6944	0.8573	1	1	0.277	100	0	82
72	1	647	1	1	1	0.6944	0.8573	1	1	0.490	86	0	82
72	1	648	1	2	2	0.6944	0.8573	1	1	0.688	66	82	0
72	1	649	9	2	2	0.6944	0.8573	0	0	0.685	0	82	82
72	1	650	1	1	1	0.6944	0.8573	1	0	0.364	0	0	82
72	1	651	0	2	2	0.6944	0.8573	1	1	0.322	10	0	82
72	1	652	0	1	3	0.6944	0.8573	0	1	0.611	7	82	82
72	1	653	1	1	2	0.6944	0.8573	1	0	0.815	0	0	82
72	1	654	9	2	3	0.6944	0.8573	1	1	0.407	0	82	0
72	1	655	1	2	2	0.6944	0.8573	1	1	0.510	84	82	0
72	1	656	1	2	3	0.6944	0.8573	1	1	0.466	88	82	0
72	1	657	1	1	3	0.6944	0.8573	1	0	0.661	0	0	82
72	1	658	9	2	3	0.6944	0.8573	1	1	0.680	0	82	0
72	1	659	1	1	3	0.6944	0.8573	1	0	0.480	0	0	82
72	1	660	0	1	3	0.6944	0.8573	1	0	0.570	0	82	0
72	1	661	0	1	3	0.6944	0.8573	0	0	0.317	0	82	82
72	1	662	0	2	2	0.6944	0.8573	0	1	0.317	10	82	82
72	1	663	1	1	1	0.6944	0.8573	0	0	0.412	0	0	0
72	1	664	9	2	3	0.6944	0.8573	0	1	0.346	0	82	82
72	1	665	0	1	3	0.6944	0.8573	0	0	0.379	0	82	82
72	1	666	0	2	2	0.6944	0.8573	1	0	0.386	0	0	82
72	1	667	9	1	3	0.6944	0.8573	0	0	0.413	0	0	0
72	1	668	0	1	1	0.6944	0.8573	0	1	0.325	10	82	82
72	1	669	0	2	3	0.6944	0.8573	1	1	0.363	10	0	82
72	1	670	0	1	3	0.6944	0.8573	1	0	0.300	0	82	0
72	1	671	1	1	1	0.6944	0.8573	0	0	0.261	0	0	0
72	1	672	1	1	1	0.6944	0.8573	0	1	0.323	100	0	0
72	1	673	0	2	3	0.6944	0.8573	0	0	0.592	0	82	82
72	1	674	0	1	1	0.6944	0.8573	1	0	0.320	0	82	0
72	1	675	1	1	2	0.6944	0.8573	0	0	0.411	0	0	0
72	1	676	0	2	1	0.6944	0.8573	0	1	0.306	10	82	82
72	1	677	1	1	3	0.6944	0.8573	0	1	0.451	90	0	0
72	1	678	0	2	2	0.6944	0.8573	1	0	0.332	0	0	82
72	1	679	0	2	2	0.6944	0.8573	1	1	0.337	10	0	82
72	1	680	9	2	3	0.6944	0.8573	1	1	0.398	0	82	0
72	1	681	9	2	1	0.6944	0.8573	0	1	0.339	0	0	0
72	1	682	1	1	2	0.6944	0.8573	1	1	0.375	98	0	82
72	1	683	1	1	1	0.6944	0.8573	1	0	0.387	0	0	82
72	1	684	0	2	2	0.6944	0.8573	1	1	0.296	10	0	82
72	1	685	0	2	1	0.6944	0.8573	0	1	0.278	10	82	82
72	1	686	9	1	2	0.6944	0.8573	1	1	0.297	0	82	0
72	1	687	0	1	2	0.6944	0.8573	0	0	2.698	0	82	82
72	1	688	1	1	3	0.6944	0.8573	0	1	0.290	100	0	0
72	1	689	0	1	1	0.6944	0.8573	0	1	0.325	10	82	82
72	1	690	9	1	1	0.6944	0.8573	0	0	0.342	0	0	0
72	1	691	1	1	1	0.6944	0.8573	0	1	0.324	100	0	0
72	1	692	9	1	2	0.6944	0.8573	0	1	0.288	0	0	0
72	1	693	9	2	1	0.6944	0.8573	1	1	0.341	0	82	0
72	1	694	0	2	3	0.6944	0.8573	0	1	0.335	10	82	82
72	1	695	1	1	3	0.6944	0.8573	0	1	0.530	82	0	0
72	1	696	9	2	2	0.6944	0.8573	0	1	0.495	0	0	0
72	1	697	0	1	3	0.6944	0.8573	1	1	0.329	10	82	0
72	1	698	0	2	2	0.6944	0.8573	0	0	0.389	0	82	82
72	1	699	1	1	2	0.6944	0.8573	0	1	0.316	100	0	0
72	1	700	0	2	2	0.6944	0.8573	0	0	0.326	0	82	82
72	1	701	1	2	2	0.6944	0.8573	1	0	0.487	0	82	0
72	1	702	1	1	1	0.6944	0.8573	0	0	0.348	0	0	0
72	1	703	9	1	3	0.6944	0.8573	0	1	0.583	0	82	82
72	1	704	9	1	1	0.6944	0.8573	1	1	0.675	0	82	0
72	1	705	1	2	2	0.6944	0.8573	1	0	0.485	0	82	0
72	1	706	0	2	3	0.6944	0.8573	1	1	0.433	9	0	82
72	1	707	1	1	3	0.6944	0.8573	0	1	0.416	93	0	0
72	1	708	1	1	3	0.6944	0.8573	1	1	0.368	98	0	82
72	1	709	1	1	3	0.6944	0.8573	1	0	0.268	0	0	82
72	1	710	0	1	3	0.6944	0.8573	0	0	0.446	0	82	82
72	1	711	1	2	1	0.6944	0.8573	0	1	0.394	96	0	0
72	1	712	0	1	1	0.6944	0.8573	1	1	0.387	10	82	0
72	1	713	1	1	3	0.6944	0.8573	1	0	0.420	0	0	82
72	1	714	0	2	3	0.6944	0.8573	0	0	0.430	0	82	82
72	1	715	1	2	3	0.6944	0.8573	1	0	0.337	0	82	0
72	1	716	1	2	3	0.6944	0.8573	0	0	0.476	0	0	0
72	1	717	1	2	3	0.6944	0.8573	0	1	0.393	96	0	0
72	1	718	9	2	2	0.6944	0.8573	1	0	0.371	0	82	0
72	1	719	0	1	2	0.6944	0.8573	1	1	0.290	10	82	0
72	1	720	0	1	1	0.6944	0.8573	1	0	0.471	0	82	0
