sub	sess	t	rew	loc	cue	co1	co2	or	resp	rt	rew_tot	left_col	right_col
108	1	1	0	1	3	0.0635	0.1803	0	1	0.984	5	82	82
108	1	2	1	2	2	0.0635	0.1803	1	1	0.577	77	82	0
108	1	3	1	2	1	0.0635	0.1803	0	1	0.572	78	0	0
108	1	4	1	2	3	0.0635	0.1803	0	1	0.527	82	0	0
108	1	5	9	2	1	0.0635	0.1803	0	1	0.516	0	82	82
108	1	6	0	2	2	0.0635	0.1803	1	1	0.513	8	0	82
108	1	7	9	2	2	0.0635	0.1803	0	1	0.471	0	0	0
108	1	8	1	1	1	0.0635	0.1803	1	1	0.493	86	0	82
108	1	9	1	1	1	0.0635	0.1803	1	1	0.729	62	0	82
108	1	10	0	1	1	0.0635	0.1803	1	1	1.150	5	82	0
108	1	11	1	2	2	0.0635	0.1803	1	1	0.458	89	82	0
108	1	12	0	2	2	0.0635	0.1803	1	1	0.499	9	0	82
108	1	13	1	1	3	0.0635	0.1803	0	1	0.786	56	0	0
108	1	14	0	2	3	0.0635	0.1803	0	1	0.619	7	82	82
108	1	15	9	1	1	0.0635	0.1803	1	0	0.589	0	0	82
108	1	16	9	2	3	0.0635	0.1803	1	0	0.581	0	0	82
108	1	17	9	2	2	0.0635	0.1803	0	0	1.240	0	82	82
108	1	18	1	2	3	0.0635	0.1803	1	1	0.638	71	82	0
108	1	19	1	2	1	0.0635	0.1803	1	1	0.712	64	82	0
108	1	20	1	2	3	0.0635	0.1803	0	1	0.604	75	0	0
108	1	21	9	1	3	0.0635	0.1803	1	1	0.815	0	0	82
108	1	22	0	2	2	0.0635	0.1803	0	1	0.432	9	82	82
108	1	23	1	1	1	0.0635	0.1803	0	1	0.808	54	0	0
108	1	24	0	1	1	0.0635	0.1803	1	1	1.247	5	82	0
108	1	25	9	1	2	0.0635	0.1803	0	1	0.629	0	0	0
108	1	26	0	1	3	0.0635	0.1803	1	1	0.798	6	82	0
108	1	27	1	1	3	0.0635	0.1803	0	1	0.669	68	0	0
108	1	28	1	2	2	0.0635	0.1803	0	1	0.684	67	0	0
108	1	29	0	1	1	0.0635	0.1803	0	1	0.657	7	82	82
108	1	30	0	2	2	0.0635	0.1803	1	1	0.634	7	0	82
108	1	31	9	1	1	0.0635	0.1803	1	0	0.562	0	82	0
108	1	32	9	1	3	0.0635	0.1803	0	1	0.603	0	82	82
108	1	33	0	1	3	0.0635	0.1803	0	1	0.546	8	82	82
108	1	34	0	2	3	0.0635	0.1803	0	1	0.566	8	82	82
108	1	35	9	1	2	0.0635	0.1803	0	1	0.729	0	82	82
108	1	36	0	2	3	0.0635	0.1803	1	1	0.935	5	0	82
108	1	37	1	1	1	0.0635	0.1803	0	1	0.497	85	0	0
108	1	38	9	2	1	0.0635	0.1803	1	1	0.710	0	0	82
108	1	39	1	1	1	0.0635	0.1803	1	1	0.626	72	0	82
108	1	40	0	1	3	0.0635	0.1803	1	0	1.083	0	82	0
108	1	41	1	1	1	0.0635	0.1803	0	1	0.839	51	0	0
108	1	42	0	2	1	0.0635	0.1803	1	0	1.399	0	0	82
108	1	43	0	2	2	0.0635	0.1803	1	1	0.583	8	0	82
108	1	44	1	1	3	0.0635	0.1803	1	0	0.761	0	0	82
108	1	45	0	2	2	0.0635	0.1803	1	1	0.531	8	0	82
108	1	46	1	1	1	0.0635	0.1803	1	1	0.729	62	0	82
108	1	47	1	2	3	0.0635	0.1803	0	1	0.559	79	0	0
108	1	48	0	1	3	0.0635	0.1803	0	1	0.585	8	82	82
108	1	49	1	1	3	0.0635	0.1803	0	1	0.571	78	0	0
108	1	50	1	1	2	0.0635	0.1803	1	1	0.781	57	0	82
108	1	51	9	1	3	0.0635	0.1803	0	1	1.022	0	82	82
108	1	52	1	2	3	0.0635	0.1803	1	1	0.624	73	82	0
108	1	53	1	2	3	0.0635	0.1803	1	1	0.562	79	82	0
108	1	54	0	2	1	0.0635	0.1803	0	1	0.891	5	82	82
108	1	55	9	2	3	0.0635	0.1803	1	1	0.511	0	82	0
108	1	56	1	1	3	0.0635	0.1803	0	1	0.604	75	0	0
108	1	57	0	2	3	0.0635	0.1803	0	1	0.581	8	82	82
108	1	58	1	2	1	0.0635	0.1803	0	1	0.496	85	0	0
108	1	59	9	2	2	0.0635	0.1803	0	1	0.406	0	0	0
108	1	60	0	1	3	0.0635	0.1803	1	1	1.029	5	82	0
108	1	61	1	1	1	0.0635	0.1803	0	1	0.597	75	0	0
108	1	62	9	2	3	0.0635	0.1803	1	1	0.533	0	82	0
108	1	63	1	1	3	0.0635	0.1803	0	1	0.527	82	0	0
108	1	64	0	1	1	0.0635	0.1803	1	1	0.796	6	82	0
108	1	65	0	2	3	0.0635	0.1803	1	1	0.519	8	0	82
108	1	66	9	2	3	0.0635	0.1803	0	1	0.492	0	0	0
108	1	67	0	1	3	0.0635	0.1803	0	0	0.585	0	82	82
108	1	68	9	2	2	0.0635	0.1803	0	1	0.409	0	82	82
108	1	69	1	2	2	0.0635	0.1803	0	1	0.851	50	0	0
108	1	70	0	2	3	0.0635	0.1803	1	1	0.587	8	0	82
108	1	71	0	1	2	0.0635	0.1803	0	1	0.821	5	82	82
108	1	72	1	1	2	0.0635	0.1803	1	1	0.685	66	0	82
108	1	73	9	1	2	0.0635	0.1803	1	1	0.602	0	0	82
108	1	74	0	2	2	0.0635	0.1803	0	1	0.445	9	82	82
108	1	75	0	1	1	0.0635	0.1803	0	1	0.781	6	82	82
108	1	76	1	2	2	0.0635	0.1803	0	1	0.423	93	0	0
108	1	77	1	1	3	0.0635	0.1803	0	0	0.471	0	0	0
108	1	78	0	1	3	0.0635	0.1803	0	1	0.565	8	82	82
108	1	79	1	2	3	0.0635	0.1803	1	1	0.609	74	82	0
108	1	80	9	1	1	0.0635	0.1803	0	1	0.587	0	82	82
108	1	81	0	1	3	0.0635	0.1803	1	1	0.863	5	82	0
108	1	82	1	2	2	0.0635	0.1803	1	1	0.535	82	82	0
108	1	83	0	2	2	0.0635	0.1803	1	1	1.394	5	0	82
108	1	84	9	1	3	0.0635	0.1803	0	1	1.019	0	0	0
108	1	85	0	1	1	0.0635	0.1803	1	1	1.204	5	82	0
108	1	86	1	1	3	0.0635	0.1803	0	1	0.623	73	0	0
108	1	87	9	2	2	0.0635	0.1803	1	1	0.470	0	82	0
108	1	88	0	2	2	0.0635	0.1803	0	1	0.606	7	82	82
108	1	89	9	2	3	0.0635	0.1803	0	1	0.550	0	0	0
108	1	90	1	1	1	0.0635	0.1803	0	1	0.554	80	0	0
108	1	91	1	1	3	0.0635	0.1803	1	1	0.703	65	0	82
108	1	92	9	1	1	0.0635	0.1803	1	1	1.027	0	82	0
108	1	93	9	1	1	0.0635	0.1803	0	1	0.627	0	0	0
108	1	94	0	2	2	0.0635	0.1803	1	1	0.690	7	0	82
108	1	95	1	2	3	0.0635	0.1803	0	1	0.478	87	0	0
108	1	96	1	2	2	0.0635	0.1803	1	1	0.454	90	82	0
108	1	97	0	1	1	0.0635	0.1803	0	1	1.245	5	82	82
108	1	98	0	1	2	0.0635	0.1803	1	1	0.755	6	82	0
108	1	99	9	1	3	0.0635	0.1803	1	1	0.967	0	82	0
108	1	100	0	2	2	0.0635	0.1803	1	1	0.656	7	0	82
108	1	101	1	1	2	0.0635	0.1803	0	1	0.580	77	0	0
108	1	102	9	1	3	0.0635	0.1803	1	1	0.990	0	82	0
108	1	103	1	2	2	0.0635	0.1803	0	1	0.569	78	0	0
108	1	104	0	1	1	0.0635	0.1803	1	1	0.707	6	82	0
108	1	105	1	1	3	0.0635	0.1803	1	1	0.623	73	0	82
108	1	106	0	2	1	0.0635	0.1803	0	1	0.466	9	82	82
108	1	107	1	2	3	0.0635	0.1803	0	1	0.520	83	0	0
108	1	108	9	2	2	0.0635	0.1803	1	1	0.491	0	82	0
108	1	109	0	1	2	0.0635	0.1803	0	1	0.704	6	82	82
108	1	110	0	1	1	0.0635	0.1803	0	1	0.486	9	82	82
108	1	111	1	1	3	0.0635	0.1803	1	0	0.710	0	0	82
108	1	112	1	1	3	0.0635	0.1803	1	1	0.505	84	0	82
108	1	113	1	1	1	0.0635	0.1803	0	1	0.519	83	0	0
108	1	114	1	2	1	0.0635	0.1803	0	1	0.810	54	0	0
108	1	115	1	2	2	0.0635	0.1803	1	1	0.468	88	82	0
108	1	116	0	2	1	0.0635	0.1803	1	1	1.170	5	0	82
108	1	117	9	1	3	0.0635	0.1803	1	1	0.556	0	82	0
108	1	118	1	1	1	0.0635	0.1803	0	1	0.522	83	0	0
108	1	119	0	1	1	0.0635	0.1803	1	1	0.814	5	82	0
108	1	120	0	1	1	0.0635	0.1803	0	1	0.479	9	82	82
108	1	121	1	2	2	0.0635	0.1803	0	1	0.519	83	0	0
108	1	122	9	2	2	0.0635	0.1803	1	1	1.003	0	0	82
108	1	123	1	2	2	0.0635	0.1803	1	1	0.483	87	82	0
108	1	124	1	2	3	0.0635	0.1803	1	1	0.496	85	82	0
108	1	125	0	2	3	0.0635	0.1803	1	1	0.539	8	0	82
108	1	126	9	2	2	0.0635	0.1803	1	1	0.512	0	0	82
108	1	127	1	2	3	0.0635	0.1803	0	1	0.403	95	0	0
108	1	128	1	2	3	0.0635	0.1803	0	1	0.396	95	0	0
108	1	129	1	1	1	0.0635	0.1803	0	1	0.542	81	0	0
108	1	130	1	2	3	0.0635	0.1803	0	1	0.377	97	0	0
108	1	131	0	1	2	0.0635	0.1803	1	0	0.331	0	82	0
108	1	132	1	1	2	0.0635	0.1803	1	1	0.863	50	0	82
108	1	133	0	2	3	0.0635	0.1803	1	1	1.070	5	0	82
108	1	134	9	2	2	0.0635	0.1803	1	1	0.492	0	0	82
108	1	135	9	2	3	0.0635	0.1803	0	1	0.504	0	82	82
108	1	136	9	2	1	0.0635	0.1803	0	1	0.469	0	0	0
108	1	137	1	1	3	0.0635	0.1803	0	1	0.717	63	0	0
108	1	138	1	2	3	0.0635	0.1803	1	1	0.497	85	82	0
108	1	139	0	1	3	0.0635	0.1803	0	1	0.607	7	82	82
108	1	140	1	2	3	0.0635	0.1803	0	1	0.505	84	0	0
108	1	141	9	2	3	0.0635	0.1803	0	1	0.726	0	82	82
108	1	142	1	2	3	0.0635	0.1803	1	1	0.818	53	82	0
108	1	143	0	1	1	0.0635	0.1803	0	1	1.130	5	82	82
108	1	144	1	1	3	0.0635	0.1803	0	1	0.918	50	0	0
108	1	145	1	1	1	0.0635	0.1803	0	1	0.468	88	0	0
108	1	146	1	1	1	0.0635	0.1803	1	1	0.545	81	0	82
108	1	147	9	1	1	0.0635	0.1803	1	1	0.907	0	82	0
108	1	148	1	2	2	0.0635	0.1803	1	0	0.399	0	82	0
108	1	149	1	2	1	0.0635	0.1803	1	0	0.833	0	82	0
108	1	150	0	2	3	0.0635	0.1803	1	1	0.624	7	0	82
108	1	151	9	1	1	0.0635	0.1803	1	1	0.568	0	0	82
108	1	152	1	1	1	0.0635	0.1803	1	1	0.466	88	0	82
108	1	153	0	2	2	0.0635	0.1803	0	1	0.768	6	82	82
108	1	154	0	1	1	0.0635	0.1803	1	1	0.820	5	82	0
108	1	155	9	1	3	0.0635	0.1803	0	1	0.603	0	0	0
108	1	156	0	1	2	0.0635	0.1803	0	1	0.677	7	82	82
108	1	157	9	1	1	0.0635	0.1803	0	1	0.603	0	0	0
108	1	158	0	1	3	0.0635	0.1803	0	0	0.738	0	82	82
108	1	159	1	1	3	0.0635	0.1803	1	1	0.516	83	0	82
108	1	160	1	1	2	0.0635	0.1803	1	1	0.657	69	0	82
108	1	161	1	1	1	0.0635	0.1803	1	0	0.521	0	0	82
108	1	162	0	2	3	0.0635	0.1803	1	1	1.119	5	0	82
108	1	163	1	2	2	0.0635	0.1803	0	1	0.483	87	0	0
108	1	164	1	1	3	0.0635	0.1803	0	1	0.482	87	0	0
108	1	165	1	2	3	0.0635	0.1803	1	1	0.578	77	82	0
108	1	166	1	1	3	0.0635	0.1803	0	1	0.570	78	0	0
108	1	167	0	2	3	0.0635	0.1803	1	1	0.574	8	0	82
108	1	168	9	2	3	0.0635	0.1803	0	1	0.545	0	82	82
108	1	169	1	2	2	0.0635	0.1803	0	1	0.420	93	0	0
108	1	170	1	1	3	0.0635	0.1803	1	1	1.507	50	0	82
108	1	171	0	1	1	0.0635	0.1803	0	1	0.513	8	82	82
108	1	172	1	2	3	0.0635	0.1803	1	1	0.501	85	82	0
108	1	173	0	2	3	0.0635	0.1803	1	1	0.684	7	0	82
108	1	174	1	1	3	0.0635	0.1803	1	1	0.538	81	0	82
108	1	175	0	1	1	0.0635	0.1803	1	1	0.670	7	82	0
108	1	176	0	1	3	0.0635	0.1803	0	1	0.796	6	82	82
108	1	177	1	1	1	0.0635	0.1803	0	1	0.429	92	0	0
108	1	178	9	1	1	0.0635	0.1803	1	1	0.859	0	82	0
108	1	179	1	2	3	0.0635	0.1803	1	1	0.611	74	82	0
108	1	180	9	1	3	0.0635	0.1803	1	1	0.467	0	0	82
108	1	181	1	1	1	0.0635	0.1803	0	1	0.495	85	0	0
108	1	182	1	1	1	0.0635	0.1803	0	1	0.372	98	0	0
108	1	183	1	2	2	0.0635	0.1803	0	1	0.392	96	0	0
108	1	184	9	1	2	0.0635	0.1803	1	1	0.459	0	82	0
108	1	185	0	2	3	0.0635	0.1803	0	1	0.464	9	82	82
108	1	186	9	1	3	0.0635	0.1803	0	1	0.455	0	82	82
108	1	187	0	1	3	0.0635	0.1803	0	1	0.486	9	82	82
108	1	188	0	2	2	0.0635	0.1803	1	1	0.885	5	0	82
108	1	189	9	1	3	0.0635	0.1803	1	1	1.090	0	82	0
108	1	190	0	2	2	0.0635	0.1803	1	1	0.624	7	0	82
108	1	191	1	1	3	0.0635	0.1803	0	1	0.600	75	0	0
108	1	192	1	1	1	0.0635	0.1803	0	1	0.451	90	0	0
108	1	193	1	2	3	0.0635	0.1803	1	1	0.483	87	82	0
108	1	194	9	2	3	0.0635	0.1803	0	1	0.383	0	0	0
108	1	195	1	1	1	0.0635	0.1803	1	1	0.570	78	0	82
108	1	196	0	2	2	0.0635	0.1803	0	1	0.374	10	82	82
108	1	197	1	2	2	0.0635	0.1803	1	1	0.458	89	82	0
108	1	198	0	2	2	0.0635	0.1803	0	1	0.418	9	82	82
108	1	199	0	1	1	0.0635	0.1803	1	1	0.812	5	82	0
108	1	200	1	2	3	0.0635	0.1803	0	1	0.444	91	0	0
108	1	201	0	1	1	0.0635	0.1803	1	1	1.384	5	82	0
108	1	202	0	1	3	0.0635	0.1803	0	1	1.051	5	82	82
108	1	203	9	1	1	0.0635	0.1803	0	1	0.465	0	82	82
108	1	204	0	2	3	0.0635	0.1803	0	0	0.719	0	82	82
108	1	205	0	1	3	0.0635	0.1803	1	1	1.044	5	82	0
108	1	206	1	1	3	0.0635	0.1803	1	1	0.644	71	0	82
108	1	207	0	1	1	0.0635	0.1803	0	1	0.580	8	82	82
108	1	208	9	1	1	0.0635	0.1803	0	1	0.757	0	0	0
108	1	209	0	1	3	0.0635	0.1803	1	0	0.969	0	82	0
108	1	210	0	2	3	0.0635	0.1803	1	1	0.739	6	0	82
108	1	211	9	2	3	0.0635	0.1803	1	1	0.993	0	0	82
108	1	212	0	2	2	0.0635	0.1803	0	1	0.873	5	82	82
108	1	213	9	2	2	0.0635	0.1803	0	1	0.432	0	82	82
108	1	214	1	2	2	0.0635	0.1803	0	1	0.377	97	0	0
108	1	215	0	1	3	0.0635	0.1803	1	1	1.428	5	82	0
108	1	216	1	2	1	0.0635	0.1803	0	1	0.452	90	0	0
108	1	217	1	2	3	0.0635	0.1803	0	1	0.453	90	0	0
108	1	218	0	2	3	0.0635	0.1803	0	1	0.414	9	82	82
108	1	219	0	1	1	0.0635	0.1803	0	1	0.656	7	82	82
108	1	220	1	1	1	0.0635	0.1803	0	1	0.503	85	0	0
108	1	221	1	2	2	0.0635	0.1803	1	1	0.638	71	82	0
108	1	222	0	2	2	0.0635	0.1803	1	1	0.508	8	0	82
108	1	223	0	2	3	0.0635	0.1803	0	1	0.456	9	82	82
108	1	224	1	2	2	0.0635	0.1803	1	1	0.497	85	82	0
108	1	225	9	1	3	0.0635	0.1803	1	1	0.784	0	0	82
108	1	226	9	2	2	0.0635	0.1803	1	1	0.450	0	82	0
108	1	227	1	2	2	0.0635	0.1803	1	1	0.345	100	82	0
108	1	228	0	2	2	0.0635	0.1803	0	0	0.557	0	82	82
108	1	229	1	1	2	0.0635	0.1803	0	1	0.865	50	0	0
108	1	230	0	1	2	0.0635	0.1803	0	1	0.809	5	82	82
108	1	231	9	2	3	0.0635	0.1803	1	1	0.674	0	0	82
108	1	232	0	1	1	0.0635	0.1803	1	1	0.702	6	82	0
108	1	233	1	2	2	0.0635	0.1803	1	1	0.443	91	82	0
108	1	234	0	1	3	0.0635	0.1803	0	1	0.650	7	82	82
108	1	235	1	1	3	0.0635	0.1803	1	1	0.512	84	0	82
108	1	236	9	2	2	0.0635	0.1803	1	1	0.443	0	82	0
108	1	237	0	1	3	0.0635	0.1803	0	1	0.579	8	82	82
108	1	238	0	2	2	0.0635	0.1803	1	1	0.765	6	0	82
108	1	239	0	2	2	0.0635	0.1803	0	0	0.590	0	82	82
108	1	240	9	1	1	0.0635	0.1803	0	1	0.456	0	82	82
108	1	241	0	2	2	0.0635	0.1803	1	1	0.503	8	0	82
108	1	242	0	2	2	0.0635	0.1803	0	1	0.347	10	82	82
108	1	243	0	1	1	0.0635	0.1803	0	1	0.422	9	82	82
108	1	244	0	2	1	0.0635	0.1803	1	1	0.551	8	0	82
108	1	245	9	2	2	0.0635	0.1803	0	1	0.594	0	0	0
108	1	246	1	2	2	0.0635	0.1803	1	1	0.442	91	82	0
108	1	247	0	2	2	0.0635	0.1803	1	1	0.544	8	0	82
108	1	248	1	1	3	0.0635	0.1803	0	1	0.525	83	0	0
108	1	249	0	1	3	0.0635	0.1803	1	1	1.130	5	82	0
108	1	250	9	2	2	0.0635	0.1803	0	1	0.432	0	82	82
108	1	251	0	2	2	0.0635	0.1803	0	1	0.358	10	82	82
108	1	252	0	2	3	0.0635	0.1803	1	1	0.762	6	0	82
108	1	253	1	2	3	0.0635	0.1803	0	1	0.438	91	0	0
108	1	254	0	1	1	0.0635	0.1803	1	1	0.717	6	82	0
108	1	255	1	1	3	0.0635	0.1803	0	1	0.688	66	0	0
108	1	256	0	2	3	0.0635	0.1803	1	0	0.528	0	0	82
108	1	257	1	2	3	0.0635	0.1803	0	1	0.578	77	0	0
108	1	258	0	1	1	0.0635	0.1803	0	0	0.362	0	82	82
108	1	259	1	2	2	0.0635	0.1803	0	1	0.430	92	0	0
108	1	260	9	1	3	0.0635	0.1803	0	1	0.648	0	82	82
108	1	261	9	2	3	0.0635	0.1803	0	1	0.681	0	82	82
108	1	262	0	1	3	0.0635	0.1803	1	1	0.576	8	82	0
108	1	263	0	2	2	0.0635	0.1803	0	1	0.524	8	82	82
108	1	264	1	1	3	0.0635	0.1803	0	1	0.722	63	0	0
108	1	265	0	2	2	0.0635	0.1803	0	1	0.494	9	82	82
108	1	266	9	1	3	0.0635	0.1803	1	1	0.531	0	0	82
108	1	267	0	1	2	0.0635	0.1803	1	1	0.935	5	82	0
108	1	268	0	1	1	0.0635	0.1803	0	1	0.531	8	82	82
108	1	269	1	1	2	0.0635	0.1803	0	1	0.632	72	0	0
108	1	270	1	1	1	0.0635	0.1803	1	1	0.535	82	0	82
108	1	271	0	2	3	0.0635	0.1803	0	1	0.508	8	82	82
108	1	272	0	1	1	0.0635	0.1803	1	1	0.802	5	82	0
108	1	273	0	1	3	0.0635	0.1803	1	1	0.676	7	82	0
108	1	274	1	2	3	0.0635	0.1803	0	1	0.395	95	0	0
108	1	275	0	2	2	0.0635	0.1803	0	1	0.373	10	82	82
108	1	276	9	1	1	0.0635	0.1803	1	0	0.383	0	0	82
108	1	277	9	2	2	0.0635	0.1803	1	0	0.467	0	0	82
108	1	278	0	2	2	0.0635	0.1803	1	1	1.235	5	0	82
108	1	279	0	1	1	0.0635	0.1803	0	1	0.532	8	82	82
108	1	280	1	1	3	0.0635	0.1803	1	1	0.638	71	0	82
108	1	281	1	1	1	0.0635	0.1803	1	1	0.530	82	0	82
108	1	282	1	1	1	0.0635	0.1803	1	1	0.392	96	0	82
108	1	283	1	2	3	0.0635	0.1803	1	1	0.360	99	82	0
108	1	284	1	2	2	0.0635	0.1803	0	1	0.417	93	0	0
108	1	285	1	1	1	0.0635	0.1803	1	1	0.530	82	0	82
108	1	286	9	2	3	0.0635	0.1803	1	1	0.455	0	82	0
108	1	287	1	2	3	0.0635	0.1803	1	1	0.368	98	82	0
108	1	288	1	1	3	0.0635	0.1803	1	1	0.549	80	0	82
108	1	289	0	1	1	0.0635	0.1803	0	0	0.345	0	82	82
108	1	290	0	1	3	0.0635	0.1803	1	1	1.099	5	82	0
108	1	291	0	2	3	0.0635	0.1803	0	1	0.432	9	82	82
108	1	292	0	2	1	0.0635	0.1803	0	1	0.416	9	82	82
108	1	293	0	2	2	0.0635	0.1803	0	1	0.360	10	82	82
108	1	294	1	1	3	0.0635	0.1803	1	1	0.595	76	0	82
108	1	295	1	1	2	0.0635	0.1803	0	1	0.789	56	0	0
108	1	296	0	2	3	0.0635	0.1803	0	1	0.487	9	82	82
108	1	297	1	2	2	0.0635	0.1803	0	1	0.284	100	0	0
108	1	298	0	2	3	0.0635	0.1803	1	1	0.675	7	0	82
108	1	299	1	1	3	0.0635	0.1803	1	1	0.817	53	0	82
108	1	300	0	1	1	0.0635	0.1803	0	1	0.552	8	82	82
108	1	301	0	1	3	0.0635	0.1803	0	1	0.584	8	82	82
108	1	302	0	1	3	0.0635	0.1803	0	1	0.465	9	82	82
108	1	303	1	2	1	0.0635	0.1803	1	1	0.528	82	82	0
108	1	304	1	2	2	0.0635	0.1803	0	1	0.397	95	0	0
108	1	305	1	1	1	0.0635	0.1803	0	1	0.613	74	0	0
108	1	306	1	1	1	0.0635	0.1803	1	1	0.541	81	0	82
108	1	307	1	1	3	0.0635	0.1803	0	1	0.479	87	0	0
108	1	308	0	2	3	0.0635	0.1803	1	1	0.511	8	0	82
108	1	309	0	1	3	0.0635	0.1803	1	0	0.685	0	82	0
108	1	310	1	2	2	0.0635	0.1803	1	1	0.557	79	82	0
108	1	311	9	1	3	0.0635	0.1803	0	1	0.497	0	0	0
108	1	312	0	2	2	0.0635	0.1803	1	1	0.632	7	0	82
108	1	313	9	1	1	0.0635	0.1803	0	1	0.550	0	82	82
108	1	314	0	1	3	0.0635	0.1803	1	1	0.945	5	82	0
108	1	315	0	1	3	0.0635	0.1803	1	1	0.875	5	82	0
108	1	316	9	2	1	0.0635	0.1803	1	0	0.577	0	82	0
108	1	317	0	1	1	0.0635	0.1803	1	1	0.933	5	82	0
108	1	318	0	2	3	0.0635	0.1803	0	1	0.512	8	82	82
108	1	319	1	1	3	0.0635	0.1803	1	1	0.631	72	0	82
108	1	320	0	1	3	0.0635	0.1803	0	0	0.815	0	82	82
108	1	321	1	2	2	0.0635	0.1803	1	1	0.461	89	82	0
108	1	322	0	2	2	0.0635	0.1803	0	1	0.532	8	82	82
108	1	323	1	2	3	0.0635	0.1803	1	1	0.624	73	82	0
108	1	324	1	2	1	0.0635	0.1803	1	1	0.463	89	82	0
108	1	325	0	1	3	0.0635	0.1803	1	1	0.471	9	82	0
108	1	326	0	2	3	0.0635	0.1803	0	1	0.510	8	82	82
108	1	327	0	2	3	0.0635	0.1803	0	1	0.516	8	82	82
108	1	328	1	2	2	0.0635	0.1803	0	1	0.370	98	0	0
108	1	329	9	2	2	0.0635	0.1803	0	0	0.486	0	0	0
108	1	330	0	1	3	0.0635	0.1803	0	1	0.542	8	82	82
108	1	331	0	2	3	0.0635	0.1803	0	1	0.529	8	82	82
108	1	332	9	1	1	0.0635	0.1803	0	1	0.599	0	0	0
108	1	333	1	1	1	0.0635	0.1803	1	1	0.503	85	0	82
108	1	334	0	1	1	0.0635	0.1803	0	1	0.653	7	82	82
108	1	335	1	2	2	0.0635	0.1803	0	1	0.422	93	0	0
108	1	336	0	1	1	0.0635	0.1803	1	1	0.605	7	82	0
108	1	337	1	1	1	0.0635	0.1803	0	1	0.366	98	0	0
108	1	338	9	1	3	0.0635	0.1803	0	1	0.410	0	0	0
108	1	339	0	2	1	0.0635	0.1803	0	1	0.616	7	82	82
108	1	340	1	1	3	0.0635	0.1803	1	1	0.537	81	0	82
108	1	341	9	2	3	0.0635	0.1803	1	1	0.512	0	0	82
108	1	342	0	2	3	0.0635	0.1803	1	1	0.526	8	0	82
108	1	343	0	2	3	0.0635	0.1803	0	1	0.448	9	82	82
108	1	344	0	1	3	0.0635	0.1803	1	1	0.654	7	82	0
108	1	345	1	2	2	0.0635	0.1803	0	1	0.381	97	0	0
108	1	346	1	2	3	0.0635	0.1803	0	1	0.408	94	0	0
108	1	347	0	1	1	0.0635	0.1803	1	1	0.602	7	82	0
108	1	348	1	2	3	0.0635	0.1803	0	1	0.396	95	0	0
108	1	349	9	2	3	0.0635	0.1803	1	1	0.632	0	82	0
108	1	350	1	1	1	0.0635	0.1803	1	1	0.390	96	0	82
108	1	351	1	1	1	0.0635	0.1803	1	1	0.415	94	0	82
108	1	352	0	1	2	0.0635	0.1803	1	1	0.593	8	82	0
108	1	353	1	2	2	0.0635	0.1803	1	1	0.577	77	82	0
108	1	354	0	2	1	0.0635	0.1803	1	1	0.541	8	0	82
108	1	355	0	2	3	0.0635	0.1803	0	1	0.504	8	82	82
108	1	356	9	2	3	0.0635	0.1803	0	1	0.486	0	0	0
108	1	357	1	2	3	0.0635	0.1803	1	1	0.477	87	82	0
108	1	358	9	1	1	0.0635	0.1803	1	1	0.460	0	0	82
108	1	359	1	2	3	0.0635	0.1803	1	1	0.441	91	82	0
108	1	360	0	2	3	0.0635	0.1803	1	1	0.483	9	0	82
108	1	361	9	2	2	0.0635	0.1803	1	1	0.420	0	0	82
108	1	362	0	2	2	0.0635	0.1803	1	1	0.300	10	0	82
108	1	363	1	2	1	0.0635	0.1803	0	1	0.385	97	0	0
108	1	364	0	1	1	0.0635	0.1803	1	0	0.387	0	82	0
108	1	365	1	2	3	0.0635	0.1803	1	1	0.444	91	82	0
108	1	366	9	1	3	0.0635	0.1803	0	0	0.411	0	0	0
108	1	367	1	2	2	0.0635	0.1803	1	1	0.501	85	82	0
108	1	368	0	2	3	0.0635	0.1803	0	1	0.556	8	82	82
108	1	369	1	2	3	0.0635	0.1803	0	0	0.509	0	0	0
108	1	370	0	1	3	0.0635	0.1803	1	1	0.538	8	82	0
108	1	371	9	2	2	0.0635	0.1803	1	1	0.461	0	0	82
108	1	372	9	2	3	0.0635	0.1803	0	1	0.485	0	82	82
108	1	373	0	2	3	0.0635	0.1803	1	1	0.570	8	0	82
108	1	374	1	1	3	0.0635	0.1803	1	1	0.717	63	0	82
108	1	375	9	2	3	0.0635	0.1803	0	0	0.655	0	82	82
108	1	376	0	2	3	0.0635	0.1803	0	1	0.390	10	82	82
108	1	377	1	2	3	0.0635	0.1803	1	1	0.455	90	82	0
108	1	378	1	1	1	0.0635	0.1803	0	1	0.600	75	0	0
108	1	379	1	1	3	0.0635	0.1803	0	1	0.577	77	0	0
108	1	380	9	2	3	0.0635	0.1803	1	1	0.539	0	0	82
108	1	381	1	1	1	0.0635	0.1803	0	1	0.557	79	0	0
108	1	382	0	1	1	0.0635	0.1803	0	1	0.449	9	82	82
108	1	383	1	2	3	0.0635	0.1803	0	1	0.567	78	0	0
108	1	384	0	1	3	0.0635	0.1803	1	1	0.914	5	82	0
108	1	385	9	1	1	0.0635	0.1803	1	1	0.701	0	0	82
108	1	386	1	1	3	0.0635	0.1803	0	1	0.730	62	0	0
108	1	387	9	2	1	0.0635	0.1803	0	1	0.478	0	0	0
108	1	388	9	1	3	0.0635	0.1803	0	1	0.492	0	0	0
108	1	389	1	1	3	0.0635	0.1803	0	1	0.393	96	0	0
108	1	390	0	1	3	0.0635	0.1803	0	1	0.420	9	82	82
108	1	391	1	1	3	0.0635	0.1803	0	1	0.468	88	0	0
108	1	392	0	1	1	0.0635	0.1803	1	0	0.509	0	82	0
108	1	393	1	2	2	0.0635	0.1803	1	1	0.639	71	82	0
108	1	394	0	2	2	0.0635	0.1803	0	1	0.511	8	82	82
108	1	395	1	2	3	0.0635	0.1803	1	0	0.539	0	82	0
108	1	396	0	2	3	0.0635	0.1803	1	1	0.593	8	0	82
108	1	397	1	1	1	0.0635	0.1803	1	1	0.683	67	0	82
108	1	398	0	2	2	0.0635	0.1803	1	1	0.745	6	0	82
108	1	399	0	2	3	0.0635	0.1803	0	1	0.502	8	82	82
108	1	400	0	1	3	0.0635	0.1803	1	1	0.741	6	82	0
108	1	401	1	1	1	0.0635	0.1803	1	1	0.421	93	0	82
108	1	402	1	1	1	0.0635	0.1803	1	1	0.487	86	0	82
108	1	403	0	2	3	0.0635	0.1803	0	1	0.605	7	82	82
108	1	404	0	2	3	0.0635	0.1803	0	1	0.445	9	82	82
108	1	405	0	1	1	0.0635	0.1803	1	1	0.660	7	82	0
108	1	406	1	2	2	0.0635	0.1803	1	1	0.617	73	82	0
108	1	407	1	1	3	0.0635	0.1803	0	1	0.489	86	0	0
108	1	408	0	1	3	0.0635	0.1803	1	1	0.551	8	82	0
108	1	409	9	1	1	0.0635	0.1803	0	0	0.092	0	82	82
108	1	410	1	1	3	0.0635	0.1803	1	0	0.606	0	0	82
108	1	411	0	2	3	0.0635	0.1803	1	1	0.694	7	0	82
108	1	412	1	1	1	0.0635	0.1803	0	1	0.572	78	0	0
108	1	413	0	2	3	0.0635	0.1803	1	1	0.600	8	0	82
108	1	414	0	2	3	0.0635	0.1803	1	1	0.537	8	0	82
108	1	415	0	1	3	0.0635	0.1803	1	1	0.773	6	82	0
108	1	416	1	1	3	0.0635	0.1803	1	1	0.465	88	0	82
108	1	417	1	1	1	0.0635	0.1803	1	1	0.447	90	0	82
108	1	418	0	2	1	0.0635	0.1803	0	1	0.471	9	82	82
108	1	419	1	1	3	0.0635	0.1803	0	1	0.542	81	0	0
108	1	420	0	1	3	0.0635	0.1803	0	1	0.608	7	82	82
108	1	421	9	1	1	0.0635	0.1803	0	1	0.538	0	0	0
108	1	422	9	2	2	0.0635	0.1803	0	1	0.456	0	82	82
108	1	423	9	2	3	0.0635	0.1803	1	1	0.640	0	0	82
108	1	424	1	2	3	0.0635	0.1803	1	1	0.473	88	82	0
108	1	425	1	2	2	0.0635	0.1803	0	1	0.439	91	0	0
108	1	426	0	2	3	0.0635	0.1803	0	1	0.487	9	82	82
108	1	427	9	2	2	0.0635	0.1803	1	1	0.507	0	82	0
108	1	428	0	2	2	0.0635	0.1803	0	1	0.391	10	82	82
108	1	429	0	2	3	0.0635	0.1803	0	1	0.382	10	82	82
108	1	430	1	1	1	0.0635	0.1803	1	0	0.512	0	0	82
108	1	431	1	2	2	0.0635	0.1803	1	1	0.502	85	82	0
108	1	432	1	2	3	0.0635	0.1803	1	1	0.546	80	82	0
108	1	433	1	1	1	0.0635	0.1803	0	1	1.028	50	0	0
108	1	434	0	2	3	0.0635	0.1803	1	1	0.621	7	0	82
108	1	435	0	1	1	0.0635	0.1803	0	1	0.461	9	82	82
108	1	436	0	2	3	0.0635	0.1803	0	1	0.532	8	82	82
108	1	437	1	1	1	0.0635	0.1803	0	1	0.521	83	0	0
108	1	438	0	1	1	0.0635	0.1803	0	1	0.461	9	82	82
108	1	439	0	1	3	0.0635	0.1803	1	1	1.060	5	82	0
108	1	440	0	1	3	0.0635	0.1803	0	1	0.626	7	82	82
108	1	441	0	2	3	0.0635	0.1803	1	1	0.775	6	0	82
108	1	442	9	2	1	0.0635	0.1803	0	1	0.553	0	82	82
108	1	443	1	1	1	0.0635	0.1803	1	1	0.613	74	0	82
108	1	444	0	1	3	0.0635	0.1803	0	1	0.573	8	82	82
108	1	445	0	2	3	0.0635	0.1803	0	1	0.470	9	82	82
108	1	446	1	1	2	0.0635	0.1803	0	0	0.494	0	0	0
108	1	447	0	1	1	0.0635	0.1803	0	1	0.788	6	82	82
108	1	448	0	2	1	0.0635	0.1803	0	1	0.615	7	82	82
108	1	449	9	2	3	0.0635	0.1803	1	1	0.569	0	82	0
108	1	450	9	2	2	0.0635	0.1803	1	1	0.499	0	82	0
108	1	451	9	2	3	0.0635	0.1803	0	1	0.546	0	0	0
108	1	452	9	2	1	0.0635	0.1803	1	0	0.982	0	0	82
108	1	453	0	2	3	0.0635	0.1803	0	1	0.438	9	82	82
108	1	454	1	1	3	0.0635	0.1803	0	1	0.615	74	0	0
108	1	455	9	1	1	0.0635	0.1803	0	1	2.560	0	82	82
108	1	456	0	1	1	0.0635	0.1803	1	1	1.244	5	82	0
108	1	457	0	2	1	0.0635	0.1803	1	1	0.690	7	0	82
108	1	458	9	1	3	0.0635	0.1803	1	1	2.240	0	0	82
108	1	459	0	2	2	0.0635	0.1803	0	0	0.698	0	82	82
108	1	460	0	2	2	0.0635	0.1803	1	1	0.521	8	0	82
108	1	461	0	2	2	0.0635	0.1803	1	1	0.552	8	0	82
108	1	462	0	1	1	0.0635	0.1803	1	1	0.716	6	82	0
108	1	463	0	2	3	0.0635	0.1803	1	1	0.538	8	0	82
108	1	464	1	2	2	0.0635	0.1803	0	1	0.372	98	0	0
108	1	465	1	1	1	0.0635	0.1803	1	1	0.479	87	0	82
108	1	466	9	1	1	0.0635	0.1803	1	1	0.639	0	82	0
108	1	467	1	2	1	0.0635	0.1803	0	1	0.615	74	0	0
108	1	468	1	1	2	0.0635	0.1803	1	1	0.754	60	0	82
108	1	469	9	2	1	0.0635	0.1803	1	1	0.547	0	82	0
108	1	470	1	2	3	0.0635	0.1803	1	1	0.485	86	82	0
108	1	471	1	2	2	0.0635	0.1803	0	1	0.427	92	0	0
108	1	472	9	2	2	0.0635	0.1803	0	1	0.349	0	82	82
108	1	473	1	2	2	0.0635	0.1803	1	1	0.488	86	82	0
108	1	474	1	2	3	0.0635	0.1803	1	1	0.431	92	82	0
108	1	475	0	1	2	0.0635	0.1803	1	1	0.912	5	82	0
108	1	476	0	1	3	0.0635	0.1803	0	1	0.621	7	82	82
108	1	477	9	1	2	0.0635	0.1803	0	0	0.421	0	82	82
108	1	478	0	2	2	0.0635	0.1803	0	1	0.396	10	82	82
108	1	479	9	2	2	0.0635	0.1803	0	1	0.463	0	82	82
108	1	480	9	2	2	0.0635	0.1803	0	1	0.341	0	0	0
108	1	481	0	1	3	0.0635	0.1803	1	0	0.560	0	82	0
108	1	482	0	1	1	0.0635	0.1803	0	1	0.673	7	82	82
108	1	483	0	1	3	0.0635	0.1803	0	1	0.599	8	82	82
108	1	484	1	2	2	0.0635	0.1803	0	1	0.545	80	0	0
108	1	485	0	2	2	0.0635	0.1803	0	1	0.492	9	82	82
108	1	486	1	2	3	0.0635	0.1803	0	1	0.396	95	0	0
108	1	487	9	1	1	0.0635	0.1803	1	1	0.846	0	0	82
108	1	488	1	1	1	0.0635	0.1803	1	1	0.445	91	0	82
108	1	489	0	1	1	0.0635	0.1803	0	1	0.564	8	82	82
108	1	490	1	1	1	0.0635	0.1803	1	0	0.541	0	0	82
108	1	491	0	2	2	0.0635	0.1803	0	1	0.498	9	82	82
108	1	492	0	2	3	0.0635	0.1803	1	1	1.855	5	0	82
108	1	493	1	2	3	0.0635	0.1803	1	1	0.646	70	82	0
108	1	494	1	1	1	0.0635	0.1803	1	1	0.734	62	0	82
108	1	495	9	2	2	0.0635	0.1803	1	1	0.585	0	82	0
108	1	496	0	1	2	0.0635	0.1803	0	0	0.594	0	82	82
108	1	497	0	1	3	0.0635	0.1803	0	1	0.963	5	82	82
108	1	498	0	2	2	0.0635	0.1803	0	1	0.447	9	82	82
108	1	499	0	1	1	0.0635	0.1803	1	1	2.457	5	82	0
108	1	500	1	2	2	0.0635	0.1803	0	1	0.440	91	0	0
108	1	501	1	1	1	0.0635	0.1803	0	1	0.541	81	0	0
108	1	502	1	2	3	0.0635	0.1803	0	1	0.465	89	0	0
108	1	503	1	1	3	0.0635	0.1803	1	1	0.510	84	0	82
108	1	504	0	1	3	0.0635	0.1803	0	1	0.533	8	82	82
108	1	505	9	1	3	0.0635	0.1803	0	1	0.553	0	82	82
108	1	506	0	1	2	0.0635	0.1803	1	1	0.950	5	82	0
108	1	507	1	2	3	0.0635	0.1803	0	1	0.520	83	0	0
108	1	508	1	2	3	0.0635	0.1803	0	1	0.444	91	0	0
108	1	509	0	1	1	0.0635	0.1803	0	1	0.546	8	82	82
108	1	510	0	1	3	0.0635	0.1803	0	1	0.492	9	82	82
108	1	511	1	2	1	0.0635	0.1803	1	1	0.562	79	82	0
108	1	512	1	1	3	0.0635	0.1803	0	1	0.557	79	0	0
108	1	513	1	2	2	0.0635	0.1803	0	1	0.448	90	0	0
108	1	514	0	2	2	0.0635	0.1803	1	1	0.496	9	0	82
108	1	515	9	1	3	0.0635	0.1803	0	1	0.478	0	0	0
108	1	516	1	1	1	0.0635	0.1803	1	1	0.612	74	0	82
108	1	517	1	1	3	0.0635	0.1803	0	1	0.575	78	0	0
108	1	518	1	2	3	0.0635	0.1803	0	1	0.392	96	0	0
108	1	519	9	1	1	0.0635	0.1803	1	1	0.579	0	0	82
108	1	520	1	1	1	0.0635	0.1803	0	1	0.501	85	0	0
108	1	521	0	2	2	0.0635	0.1803	1	1	1.050	5	0	82
108	1	522	0	2	2	0.0635	0.1803	0	1	0.786	6	82	82
108	1	523	1	1	3	0.0635	0.1803	1	0	0.546	0	0	82
108	1	524	9	2	3	0.0635	0.1803	0	1	0.479	0	0	0
108	1	525	1	1	1	0.0635	0.1803	0	1	0.711	64	0	0
108	1	526	0	1	3	0.0635	0.1803	0	1	0.490	9	82	82
108	1	527	0	1	1	0.0635	0.1803	1	1	0.903	5	82	0
108	1	528	1	1	1	0.0635	0.1803	0	1	0.582	77	0	0
108	1	529	1	2	1	0.0635	0.1803	0	1	0.537	81	0	0
108	1	530	1	2	3	0.0635	0.1803	0	1	0.388	96	0	0
108	1	531	0	2	2	0.0635	0.1803	0	1	0.351	10	82	82
108	1	532	1	1	1	0.0635	0.1803	1	1	0.522	83	0	82
108	1	533	1	1	2	0.0635	0.1803	1	1	0.637	71	0	82
108	1	534	0	1	1	0.0635	0.1803	0	1	0.550	8	82	82
108	1	535	1	2	3	0.0635	0.1803	0	1	0.466	88	0	0
108	1	536	0	2	2	0.0635	0.1803	0	1	0.319	10	82	82
108	1	537	0	1	1	0.0635	0.1803	1	1	0.475	9	82	0
108	1	538	9	1	1	0.0635	0.1803	1	1	0.520	0	82	0
108	1	539	9	1	1	0.0635	0.1803	1	1	0.590	0	82	0
108	1	540	1	2	3	0.0635	0.1803	0	1	0.433	92	0	0
108	1	541	1	1	3	0.0635	0.1803	0	1	0.508	84	0	0
108	1	542	0	2	3	0.0635	0.1803	1	0	0.448	0	0	82
108	1	543	0	1	3	0.0635	0.1803	0	1	0.520	8	82	82
108	1	544	1	2	3	0.0635	0.1803	1	1	0.446	90	82	0
108	1	545	1	1	3	0.0635	0.1803	1	1	0.588	76	0	82
108	1	546	0	1	1	0.0635	0.1803	0	1	0.655	7	82	82
108	1	547	1	2	3	0.0635	0.1803	1	1	0.549	80	82	0
108	1	548	1	2	2	0.0635	0.1803	1	1	0.426	92	82	0
108	1	549	0	1	2	0.0635	0.1803	1	1	0.880	5	82	0
108	1	550	0	1	2	0.0635	0.1803	1	1	0.678	7	82	0
108	1	551	1	2	2	0.0635	0.1803	0	1	0.404	95	0	0
108	1	552	9	1	1	0.0635	0.1803	0	1	0.511	0	0	0
108	1	553	0	1	1	0.0635	0.1803	0	1	0.531	8	82	82
108	1	554	0	2	2	0.0635	0.1803	0	1	0.479	9	82	82
108	1	555	0	2	3	0.0635	0.1803	1	1	0.531	8	0	82
108	1	556	1	2	3	0.0635	0.1803	1	1	0.461	89	82	0
108	1	557	9	1	3	0.0635	0.1803	1	1	0.731	0	82	0
108	1	558	1	1	1	0.0635	0.1803	0	1	0.593	76	0	0
108	1	559	9	2	3	0.0635	0.1803	0	1	0.434	0	0	0
108	1	560	0	1	1	0.0635	0.1803	1	1	0.492	9	82	0
108	1	561	1	1	1	0.0635	0.1803	1	1	0.614	74	0	82
108	1	562	0	1	3	0.0635	0.1803	1	1	0.422	9	82	0
108	1	563	1	2	3	0.0635	0.1803	0	1	0.413	94	0	0
108	1	564	1	1	3	0.0635	0.1803	0	0	0.428	0	0	0
108	1	565	9	1	3	0.0635	0.1803	0	1	0.518	0	0	0
108	1	566	0	2	2	0.0635	0.1803	1	1	0.682	7	0	82
108	1	567	9	2	3	0.0635	0.1803	1	1	0.528	0	82	0
108	1	568	9	1	2	0.0635	0.1803	1	0	0.485	0	0	82
108	1	569	9	2	2	0.0635	0.1803	0	1	0.539	0	0	0
108	1	570	1	1	1	0.0635	0.1803	0	1	0.560	79	0	0
108	1	571	0	1	1	0.0635	0.1803	1	1	1.484	5	82	0
108	1	572	1	2	3	0.0635	0.1803	0	1	0.402	95	0	0
108	1	573	1	2	3	0.0635	0.1803	0	1	0.354	100	0	0
108	1	574	1	1	1	0.0635	0.1803	0	1	0.805	54	0	0
108	1	575	0	1	1	0.0635	0.1803	0	1	0.489	9	82	82
108	1	576	9	1	3	0.0635	0.1803	1	1	0.885	0	82	0
108	1	577	9	2	3	0.0635	0.1803	1	1	0.603	0	82	0
108	1	578	1	1	3	0.0635	0.1803	1	1	0.580	77	0	82
108	1	579	9	1	3	0.0635	0.1803	1	1	0.447	0	0	82
108	1	580	9	1	2	0.0635	0.1803	1	1	0.607	0	82	0
108	1	581	1	2	2	0.0635	0.1803	1	1	0.516	83	82	0
108	1	582	0	2	3	0.0635	0.1803	1	1	0.496	9	0	82
108	1	583	0	2	3	0.0635	0.1803	1	1	0.421	9	0	82
108	1	584	0	1	3	0.0635	0.1803	0	0	0.452	0	82	82
108	1	585	0	2	2	0.0635	0.1803	1	1	0.420	9	0	82
108	1	586	1	2	3	0.0635	0.1803	1	1	0.436	91	82	0
108	1	587	9	1	3	0.0635	0.1803	0	0	0.713	0	82	82
108	1	588	0	1	1	0.0635	0.1803	0	1	0.645	7	82	82
108	1	589	1	2	2	0.0635	0.1803	1	1	0.459	89	82	0
108	1	590	1	2	1	0.0635	0.1803	1	1	0.538	81	82	0
108	1	591	0	1	1	0.0635	0.1803	1	1	1.118	5	82	0
108	1	592	0	2	2	0.0635	0.1803	1	1	0.394	10	0	82
108	1	593	1	1	3	0.0635	0.1803	1	1	0.602	75	0	82
108	1	594	0	2	2	0.0635	0.1803	1	1	0.370	10	0	82
108	1	595	0	1	1	0.0635	0.1803	1	1	0.652	7	82	0
108	1	596	0	1	3	0.0635	0.1803	0	1	0.619	7	82	82
108	1	597	0	2	2	0.0635	0.1803	1	1	0.566	8	0	82
108	1	598	1	1	2	0.0635	0.1803	0	1	0.615	73	0	0
108	1	599	1	1	2	0.0635	0.1803	0	1	0.728	62	0	0
108	1	600	0	1	3	0.0635	0.1803	1	1	0.578	8	82	0
108	1	601	0	2	2	0.0635	0.1803	1	0	2.511	0	0	82
108	1	602	9	2	3	0.0635	0.1803	0	1	0.425	0	0	0
108	1	603	1	2	3	0.0635	0.1803	0	1	0.376	97	0	0
108	1	604	9	2	2	0.0635	0.1803	1	1	0.498	0	0	82
108	1	605	0	2	2	0.0635	0.1803	1	1	0.414	9	0	82
108	1	606	9	2	2	0.0635	0.1803	0	1	0.495	0	0	0
108	1	607	0	1	1	0.0635	0.1803	1	1	0.427	9	82	0
108	1	608	0	2	2	0.0635	0.1803	0	1	0.404	9	82	82
108	1	609	1	2	2	0.0635	0.1803	1	1	0.463	89	82	0
108	1	610	9	1	1	0.0635	0.1803	1	1	0.454	0	0	82
108	1	611	9	2	2	0.0635	0.1803	0	1	0.405	0	0	0
108	1	612	1	1	3	0.0635	0.1803	1	1	0.422	93	0	82
108	1	613	1	1	3	0.0635	0.1803	1	1	0.479	87	0	82
108	1	614	1	1	3	0.0635	0.1803	1	1	0.427	92	0	82
108	1	615	0	1	3	0.0635	0.1803	1	1	0.554	8	82	0
108	1	616	1	2	2	0.0635	0.1803	1	1	0.405	94	82	0
108	1	617	1	1	3	0.0635	0.1803	0	1	0.487	86	0	0
108	1	618	0	1	1	0.0635	0.1803	0	1	0.452	9	82	82
108	1	619	9	2	3	0.0635	0.1803	0	1	0.411	0	82	82
108	1	620	0	2	2	0.0635	0.1803	0	1	0.435	9	82	82
108	1	621	0	1	1	0.0635	0.1803	0	1	0.525	8	82	82
108	1	622	9	1	1	0.0635	0.1803	0	1	0.419	0	82	82
108	1	623	1	2	2	0.0635	0.1803	1	1	0.452	90	82	0
108	1	624	9	2	2	0.0635	0.1803	0	1	0.708	0	82	82
108	1	625	1	1	3	0.0635	0.1803	0	1	0.540	81	0	0
108	1	626	1	1	2	0.0635	0.1803	1	0	0.465	0	0	82
108	1	627	9	1	3	0.0635	0.1803	1	1	0.823	0	82	0
108	1	628	9	1	1	0.0635	0.1803	0	1	0.535	0	0	0
108	1	629	0	2	1	0.0635	0.1803	0	1	0.705	6	82	82
108	1	630	0	1	3	0.0635	0.1803	1	1	0.943	5	82	0
108	1	631	0	1	3	0.0635	0.1803	0	1	0.612	7	82	82
108	1	632	1	1	3	0.0635	0.1803	1	1	0.582	77	0	82
108	1	633	1	2	2	0.0635	0.1803	0	1	0.470	88	0	0
108	1	634	0	2	3	0.0635	0.1803	0	1	0.508	8	82	82
108	1	635	9	2	3	0.0635	0.1803	1	0	1.289	0	0	82
108	1	636	0	2	3	0.0635	0.1803	0	1	0.414	9	82	82
108	1	637	1	2	3	0.0635	0.1803	0	1	0.389	96	0	0
108	1	638	0	1	2	0.0635	0.1803	0	1	0.551	8	82	82
108	1	639	1	2	3	0.0635	0.1803	1	1	0.442	91	82	0
108	1	640	0	2	3	0.0635	0.1803	1	1	0.611	7	0	82
108	1	641	0	2	3	0.0635	0.1803	0	1	0.393	10	82	82
108	1	642	1	2	1	0.0635	0.1803	1	1	0.556	79	82	0
108	1	643	9	1	1	0.0635	0.1803	0	1	0.694	0	82	82
108	1	644	1	2	2	0.0635	0.1803	0	1	0.436	91	0	0
108	1	645	0	2	1	0.0635	0.1803	1	1	0.652	7	0	82
108	1	646	9	1	1	0.0635	0.1803	0	1	0.450	0	0	0
108	1	647	0	2	1	0.0635	0.1803	0	1	0.440	9	82	82
108	1	648	9	1	2	0.0635	0.1803	0	1	0.598	0	0	0
108	1	649	1	1	1	0.0635	0.1803	1	0	0.569	0	0	82
108	1	650	9	2	3	0.0635	0.1803	0	1	0.453	0	82	82
108	1	651	1	2	2	0.0635	0.1803	1	1	0.541	81	82	0
108	1	652	0	1	1	0.0635	0.1803	1	1	0.598	8	82	0
108	1	653	0	1	3	0.0635	0.1803	1	1	1.018	5	82	0
108	1	654	0	1	3	0.0635	0.1803	1	1	0.650	7	82	0
108	1	655	0	2	3	0.0635	0.1803	1	1	0.770	6	0	82
108	1	656	0	2	2	0.0635	0.1803	0	1	0.364	10	82	82
108	1	657	1	1	3	0.0635	0.1803	1	1	0.535	82	0	82
108	1	658	0	2	3	0.0635	0.1803	0	1	0.433	9	82	82
108	1	659	0	1	1	0.0635	0.1803	0	1	0.497	9	82	82
108	1	660	0	1	2	0.0635	0.1803	0	1	0.470	9	82	82
108	1	661	9	2	3	0.0635	0.1803	1	1	0.476	0	82	0
108	1	662	1	2	2	0.0635	0.1803	0	1	0.451	90	0	0
108	1	663	1	2	2	0.0635	0.1803	1	1	0.628	72	82	0
108	1	664	0	2	1	0.0635	0.1803	1	1	0.493	9	0	82
108	1	665	1	2	2	0.0635	0.1803	0	1	0.412	94	0	0
108	1	666	9	1	3	0.0635	0.1803	0	0	0.451	0	82	82
108	1	667	0	2	2	0.0635	0.1803	0	1	0.434	9	82	82
108	1	668	9	1	1	0.0635	0.1803	1	1	0.763	0	82	0
108	1	669	1	1	1	0.0635	0.1803	1	1	0.525	83	0	82
108	1	670	9	1	3	0.0635	0.1803	1	1	0.610	0	82	0
108	1	671	0	1	1	0.0635	0.1803	0	1	0.675	7	82	82
108	1	672	1	2	2	0.0635	0.1803	1	1	0.488	86	82	0
108	1	673	1	2	3	0.0635	0.1803	1	1	0.628	72	82	0
108	1	674	9	2	2	0.0635	0.1803	1	1	0.419	0	82	0
108	1	675	0	1	3	0.0635	0.1803	1	1	1.259	5	82	0
108	1	676	0	2	1	0.0635	0.1803	1	1	0.651	7	0	82
108	1	677	1	1	3	0.0635	0.1803	1	0	1.882	0	0	82
108	1	678	1	2	2	0.0635	0.1803	0	1	0.442	91	0	0
108	1	679	1	1	1	0.0635	0.1803	0	1	0.681	67	0	0
108	1	680	1	1	2	0.0635	0.1803	0	1	0.479	87	0	0
108	1	681	1	2	3	0.0635	0.1803	1	1	0.604	75	82	0
108	1	682	0	1	3	0.0635	0.1803	1	1	0.703	6	82	0
108	1	683	0	1	1	0.0635	0.1803	1	1	0.461	9	82	0
108	1	684	0	1	2	0.0635	0.1803	0	0	0.413	0	82	82
108	1	685	1	1	3	0.0635	0.1803	1	1	0.526	82	0	82
108	1	686	0	2	2	0.0635	0.1803	1	1	0.666	7	0	82
108	1	687	0	2	3	0.0635	0.1803	0	1	0.528	8	82	82
108	1	688	0	2	2	0.0635	0.1803	1	1	0.493	9	0	82
108	1	689	1	2	1	0.0635	0.1803	1	1	0.513	84	82	0
108	1	690	1	2	1	0.0635	0.1803	0	1	0.438	91	0	0
108	1	691	1	2	3	0.0635	0.1803	1	1	0.477	87	82	0
108	1	692	0	2	3	0.0635	0.1803	0	1	0.507	8	82	82
108	1	693	9	1	3	0.0635	0.1803	0	1	0.640	0	82	82
108	1	694	0	1	3	0.0635	0.1803	1	1	0.690	7	82	0
108	1	695	1	1	1	0.0635	0.1803	1	1	0.536	81	0	82
108	1	696	9	2	3	0.0635	0.1803	1	1	0.500	0	0	82
108	1	697	1	1	1	0.0635	0.1803	0	1	0.498	85	0	0
108	1	698	0	2	2	0.0635	0.1803	0	1	0.487	9	82	82
108	1	699	0	2	3	0.0635	0.1803	1	1	0.526	8	0	82
108	1	700	1	2	2	0.0635	0.1803	1	1	0.393	96	82	0
108	1	701	1	1	1	0.0635	0.1803	0	1	0.495	86	0	0
108	1	702	1	1	2	0.0635	0.1803	1	1	0.475	87	0	82
108	1	703	0	2	2	0.0635	0.1803	1	1	0.466	9	0	82
108	1	704	1	2	3	0.0635	0.1803	0	1	0.483	87	0	0
108	1	705	1	1	3	0.0635	0.1803	0	0	0.455	0	0	0
108	1	706	0	1	3	0.0635	0.1803	0	1	0.453	9	82	82
108	1	707	1	2	2	0.0635	0.1803	1	1	0.429	92	82	0
108	1	708	1	1	3	0.0635	0.1803	1	1	0.476	87	0	82
108	1	709	1	2	2	0.0635	0.1803	0	1	0.378	97	0	0
108	1	710	0	1	3	0.0635	0.1803	0	1	0.523	8	82	82
108	1	711	1	2	2	0.0635	0.1803	0	1	0.399	95	0	0
108	1	712	9	2	2	0.0635	0.1803	1	1	0.617	0	0	82
108	1	713	1	2	2	0.0635	0.1803	0	1	0.553	80	0	0
108	1	714	9	1	3	0.0635	0.1803	1	1	0.612	0	0	82
108	1	715	1	2	2	0.0635	0.1803	0	1	0.413	94	0	0
108	1	716	0	1	1	0.0635	0.1803	1	1	0.672	7	82	0
108	1	717	1	1	3	0.0635	0.1803	0	1	0.469	88	0	0
108	1	718	9	1	3	0.0635	0.1803	1	1	0.565	0	0	82
108	1	719	1	1	3	0.0635	0.1803	0	1	0.518	83	0	0
108	1	720	1	1	1	0.0635	0.1803	0	1	0.413	94	0	0
