sub	sess	t	rew	loc	cue	co1	co2	or	resp	rt	rew_tot	left_col	right_col
135	1	1	0	2	3	0.0500	0.0500	0	1	1.537	5	0	0
135	1	2	9	2	1	0.0500	0.0500	0	1	0.551	0	0	0
135	1	3	0	2	2	0.0500	0.0500	0	1	0.595	8	0	0
135	1	4	0	2	2	0.0500	0.0500	1	0	0.667	0	82	0
135	1	5	9	1	3	0.0500	0.0500	1	1	0.857	0	0	82
135	1	6	9	2	2	0.0500	0.0500	1	1	0.672	0	82	0
135	1	7	1	2	2	0.0500	0.0500	1	1	0.494	86	0	82
135	1	8	0	1	3	0.0500	0.0500	1	1	0.715	6	0	82
135	1	9	0	1	1	0.0500	0.0500	0	1	0.623	7	0	0
135	1	10	1	2	2	0.0500	0.0500	1	1	0.478	87	0	82
135	1	11	1	1	3	0.0500	0.0500	1	1	0.628	72	82	0
135	1	12	1	2	2	0.0500	0.0500	1	0	0.493	0	0	82
135	1	13	1	2	2	0.0500	0.0500	1	1	0.457	89	0	82
135	1	14	0	1	2	0.0500	0.0500	0	1	0.641	7	0	0
135	1	15	1	2	3	0.0500	0.0500	0	1	0.800	55	82	82
135	1	16	0	1	3	0.0500	0.0500	0	1	0.578	8	0	0
135	1	17	0	1	1	0.0500	0.0500	0	1	0.514	8	0	0
135	1	18	1	2	2	0.0500	0.0500	0	1	0.509	84	82	82
135	1	19	1	2	3	0.0500	0.0500	1	1	0.610	74	0	82
135	1	20	9	2	1	0.0500	0.0500	0	1	0.467	0	82	82
135	1	21	1	1	1	0.0500	0.0500	1	0	0.866	0	82	0
135	1	22	1	2	3	0.0500	0.0500	0	0	0.817	0	82	82
135	1	23	0	1	3	0.0500	0.0500	0	1	0.795	6	0	0
135	1	24	9	1	2	0.0500	0.0500	0	1	0.572	0	0	0
135	1	25	0	2	3	0.0500	0.0500	1	1	0.630	7	82	0
135	1	26	1	2	2	0.0500	0.0500	0	1	0.725	62	82	82
135	1	27	0	2	3	0.0500	0.0500	1	1	0.611	7	82	0
135	1	28	1	2	3	0.0500	0.0500	1	1	0.666	68	0	82
135	1	29	1	2	3	0.0500	0.0500	1	1	0.523	83	0	82
135	1	30	9	2	3	0.0500	0.0500	0	1	0.950	0	82	82
135	1	31	0	1	3	0.0500	0.0500	0	1	0.680	7	0	0
135	1	32	1	2	2	0.0500	0.0500	0	1	0.478	87	82	82
135	1	33	0	2	2	0.0500	0.0500	1	1	0.507	8	82	0
135	1	34	9	2	2	0.0500	0.0500	0	1	0.440	0	0	0
135	1	35	0	2	3	0.0500	0.0500	1	1	0.503	8	82	0
135	1	36	0	2	3	0.0500	0.0500	1	1	0.540	8	82	0
135	1	37	0	2	1	0.0500	0.0500	1	1	0.481	9	82	0
135	1	38	0	1	2	0.0500	0.0500	1	0	0.710	0	0	82
135	1	39	9	2	2	0.0500	0.0500	0	1	1.001	0	82	82
135	1	40	0	2	2	0.0500	0.0500	1	1	0.522	8	82	0
135	1	41	1	1	1	0.0500	0.0500	0	1	0.792	56	82	82
135	1	42	1	1	3	0.0500	0.0500	0	1	0.696	65	82	82
135	1	43	1	2	2	0.0500	0.0500	1	1	0.485	87	0	82
135	1	44	1	2	3	0.0500	0.0500	0	1	0.626	72	82	82
135	1	45	0	2	3	0.0500	0.0500	1	1	0.522	8	82	0
135	1	46	1	1	3	0.0500	0.0500	0	1	0.656	69	82	82
135	1	47	0	1	1	0.0500	0.0500	0	1	0.629	7	0	0
135	1	48	9	1	1	0.0500	0.0500	0	1	0.542	0	0	0
135	1	49	1	1	1	0.0500	0.0500	0	1	0.530	82	82	82
135	1	50	0	1	3	0.0500	0.0500	0	1	0.551	8	0	0
135	1	51	0	2	3	0.0500	0.0500	0	1	0.466	9	0	0
135	1	52	0	2	3	0.0500	0.0500	1	1	0.480	9	82	0
135	1	53	1	1	1	0.0500	0.0500	0	1	0.525	83	82	82
135	1	54	1	2	1	0.0500	0.0500	0	1	0.529	82	82	82
135	1	55	9	1	1	0.0500	0.0500	0	1	0.451	0	0	0
135	1	56	0	2	2	0.0500	0.0500	1	1	0.589	8	82	0
135	1	57	9	1	3	0.0500	0.0500	1	1	0.519	0	0	82
135	1	58	0	1	2	0.0500	0.0500	0	0	0.547	0	0	0
135	1	59	9	2	2	0.0500	0.0500	1	1	0.663	0	82	0
135	1	60	0	1	3	0.0500	0.0500	0	1	0.583	8	0	0
135	1	61	0	1	3	0.0500	0.0500	1	1	1.110	5	0	82
135	1	62	1	2	2	0.0500	0.0500	0	1	0.467	88	82	82
135	1	63	0	2	1	0.0500	0.0500	1	1	0.500	9	82	0
135	1	64	1	1	1	0.0500	0.0500	1	1	0.562	79	82	0
135	1	65	1	1	3	0.0500	0.0500	1	1	0.815	54	82	0
135	1	66	9	2	3	0.0500	0.0500	0	1	0.609	0	0	0
135	1	67	0	2	2	0.0500	0.0500	1	1	0.442	9	82	0
135	1	68	1	2	2	0.0500	0.0500	0	1	0.378	97	82	82
135	1	69	1	2	3	0.0500	0.0500	1	1	0.396	95	0	82
135	1	70	0	1	3	0.0500	0.0500	0	1	0.454	9	0	0
135	1	71	0	2	2	0.0500	0.0500	0	1	0.559	8	0	0
135	1	72	1	1	1	0.0500	0.0500	1	1	0.425	93	82	0
135	1	73	0	2	3	0.0500	0.0500	0	1	0.433	9	0	0
135	1	74	0	1	1	0.0500	0.0500	1	1	0.416	9	0	82
135	1	75	1	1	3	0.0500	0.0500	0	1	0.434	92	82	82
135	1	76	1	2	2	0.0500	0.0500	0	1	0.531	82	82	82
135	1	77	0	2	1	0.0500	0.0500	0	1	0.430	9	0	0
135	1	78	9	2	2	0.0500	0.0500	1	1	0.574	0	0	82
135	1	79	1	2	3	0.0500	0.0500	0	1	0.512	84	82	82
135	1	80	9	2	3	0.0500	0.0500	0	1	0.493	0	0	0
135	1	81	0	1	1	0.0500	0.0500	0	1	0.675	7	0	0
135	1	82	0	1	2	0.0500	0.0500	0	1	0.440	9	0	0
135	1	83	1	1	1	0.0500	0.0500	0	1	0.392	96	82	82
135	1	84	1	1	2	0.0500	0.0500	0	1	0.481	87	82	82
135	1	85	1	1	3	0.0500	0.0500	0	1	0.477	87	82	82
135	1	86	1	2	3	0.0500	0.0500	1	1	0.620	73	0	82
135	1	87	9	1	3	0.0500	0.0500	1	1	0.499	0	82	0
135	1	88	9	2	2	0.0500	0.0500	0	1	0.490	0	0	0
135	1	89	1	1	3	0.0500	0.0500	1	1	0.439	91	82	0
135	1	90	1	1	1	0.0500	0.0500	1	1	0.449	90	82	0
135	1	91	1	2	1	0.0500	0.0500	0	1	0.498	85	82	82
135	1	92	0	1	3	0.0500	0.0500	1	1	0.671	7	0	82
135	1	93	0	1	3	0.0500	0.0500	1	1	0.512	8	0	82
135	1	94	0	2	2	0.0500	0.0500	1	1	0.515	8	82	0
135	1	95	9	2	3	0.0500	0.0500	1	1	0.509	0	82	0
135	1	96	0	1	3	0.0500	0.0500	0	0	0.481	0	0	0
135	1	97	1	2	2	0.0500	0.0500	0	1	0.552	80	82	82
135	1	98	1	1	1	0.0500	0.0500	1	1	0.507	84	82	0
135	1	99	0	1	3	0.0500	0.0500	0	0	0.577	0	0	0
135	1	100	1	1	1	0.0500	0.0500	0	1	0.500	85	82	82
135	1	101	1	2	2	0.0500	0.0500	1	1	0.685	66	0	82
135	1	102	9	1	3	0.0500	0.0500	0	0	0.675	0	82	82
135	1	103	1	2	2	0.0500	0.0500	1	1	0.627	72	0	82
135	1	104	1	1	2	0.0500	0.0500	1	1	0.473	88	82	0
135	1	105	1	1	3	0.0500	0.0500	0	1	0.664	69	82	82
135	1	106	0	2	2	0.0500	0.0500	0	1	0.623	7	0	0
135	1	107	1	1	3	0.0500	0.0500	0	0	0.511	0	82	82
135	1	108	0	1	3	0.0500	0.0500	1	1	0.835	5	0	82
135	1	109	1	1	1	0.0500	0.0500	1	1	0.499	85	82	0
135	1	110	1	1	2	0.0500	0.0500	0	0	0.423	0	82	82
135	1	111	0	1	1	0.0500	0.0500	0	1	0.513	8	0	0
135	1	112	1	1	3	0.0500	0.0500	1	1	0.605	74	82	0
135	1	113	0	2	2	0.0500	0.0500	1	1	0.646	7	82	0
135	1	114	0	2	2	0.0500	0.0500	1	1	0.527	8	82	0
135	1	115	1	2	3	0.0500	0.0500	1	1	0.483	87	0	82
135	1	116	1	2	3	0.0500	0.0500	0	1	0.504	85	82	82
135	1	117	9	1	1	0.0500	0.0500	1	1	0.509	0	0	82
135	1	118	1	1	3	0.0500	0.0500	1	1	0.548	80	82	0
135	1	119	0	2	2	0.0500	0.0500	0	1	0.496	9	0	0
135	1	120	9	1	1	0.0500	0.0500	0	1	0.540	0	82	82
135	1	121	1	1	1	0.0500	0.0500	0	1	0.681	67	82	82
135	1	122	9	1	3	0.0500	0.0500	0	1	0.521	0	0	0
135	1	123	0	1	1	0.0500	0.0500	0	1	0.485	9	0	0
135	1	124	1	1	3	0.0500	0.0500	0	1	0.379	97	82	82
135	1	125	9	2	3	0.0500	0.0500	1	1	0.452	0	82	0
135	1	126	1	1	1	0.0500	0.0500	1	1	0.524	83	82	0
135	1	127	0	1	3	0.0500	0.0500	1	1	0.594	8	0	82
135	1	128	1	2	3	0.0500	0.0500	0	0	0.531	0	82	82
135	1	129	1	2	2	0.0500	0.0500	1	1	0.505	85	0	82
135	1	130	0	2	3	0.0500	0.0500	1	1	0.484	9	82	0
135	1	131	0	1	3	0.0500	0.0500	0	1	0.747	6	0	0
135	1	132	0	1	3	0.0500	0.0500	1	1	0.509	8	0	82
135	1	133	1	2	2	0.0500	0.0500	0	1	0.499	85	82	82
135	1	134	9	2	2	0.0500	0.0500	1	1	0.648	0	82	0
135	1	135	1	1	3	0.0500	0.0500	0	0	0.649	0	82	82
135	1	136	0	2	3	0.0500	0.0500	1	1	0.634	7	82	0
135	1	137	0	2	2	0.0500	0.0500	0	1	0.497	9	0	0
135	1	138	1	1	3	0.0500	0.0500	1	1	0.727	62	82	0
135	1	139	9	2	1	0.0500	0.0500	1	1	0.537	0	82	0
135	1	140	1	1	2	0.0500	0.0500	0	1	0.660	69	82	82
135	1	141	0	2	2	0.0500	0.0500	1	1	0.487	9	82	0
135	1	142	9	2	1	0.0500	0.0500	1	1	0.523	0	0	82
135	1	143	0	2	2	0.0500	0.0500	0	1	0.415	9	0	0
135	1	144	0	1	2	0.0500	0.0500	1	1	0.551	8	0	82
135	1	145	1	1	2	0.0500	0.0500	1	0	0.417	0	82	0
135	1	146	1	2	1	0.0500	0.0500	1	1	0.609	74	0	82
135	1	147	0	2	2	0.0500	0.0500	1	1	0.602	7	82	0
135	1	148	1	1	1	0.0500	0.0500	1	1	0.595	76	82	0
135	1	149	9	1	1	0.0500	0.0500	1	1	0.574	0	82	0
135	1	150	9	1	1	0.0500	0.0500	1	1	0.497	0	82	0
135	1	151	1	1	3	0.0500	0.0500	1	0	0.772	0	82	0
135	1	152	0	2	3	0.0500	0.0500	1	1	0.638	7	82	0
135	1	153	1	1	2	0.0500	0.0500	0	1	0.517	83	82	82
135	1	154	0	2	3	0.0500	0.0500	0	1	0.512	8	0	0
135	1	155	0	1	2	0.0500	0.0500	1	1	0.594	8	0	82
135	1	156	1	2	3	0.0500	0.0500	1	1	0.994	50	0	82
135	1	157	1	1	1	0.0500	0.0500	0	1	0.797	55	82	82
135	1	158	9	2	3	0.0500	0.0500	0	1	0.558	0	82	82
135	1	159	1	2	3	0.0500	0.0500	1	1	0.561	79	0	82
135	1	160	1	2	3	0.0500	0.0500	0	1	0.565	79	82	82
135	1	161	1	2	1	0.0500	0.0500	1	1	0.897	50	0	82
135	1	162	0	1	2	0.0500	0.0500	0	1	0.542	8	0	0
135	1	163	1	2	3	0.0500	0.0500	0	0	0.527	0	82	82
135	1	164	1	1	1	0.0500	0.0500	0	1	0.451	90	82	82
135	1	165	0	1	1	0.0500	0.0500	1	1	0.557	8	0	82
135	1	166	9	1	3	0.0500	0.0500	1	1	0.506	0	82	0
135	1	167	0	1	1	0.0500	0.0500	1	1	0.489	9	0	82
135	1	168	1	1	3	0.0500	0.0500	1	1	0.537	81	82	0
135	1	169	0	1	3	0.0500	0.0500	0	1	0.493	9	0	0
135	1	170	0	2	3	0.0500	0.0500	1	1	0.515	8	82	0
135	1	171	0	1	3	0.0500	0.0500	1	1	0.543	8	0	82
135	1	172	1	2	3	0.0500	0.0500	1	1	0.501	85	0	82
135	1	173	1	2	3	0.0500	0.0500	1	1	0.441	91	0	82
135	1	174	0	1	1	0.0500	0.0500	1	1	0.715	6	0	82
135	1	175	0	1	3	0.0500	0.0500	0	0	0.494	0	0	0
135	1	176	9	2	3	0.0500	0.0500	1	1	0.578	0	82	0
135	1	177	0	1	3	0.0500	0.0500	1	0	0.755	0	0	82
135	1	178	1	2	3	0.0500	0.0500	1	1	0.758	59	0	82
135	1	179	9	1	1	0.0500	0.0500	1	0	0.831	0	0	82
135	1	180	0	1	2	0.0500	0.0500	1	1	0.518	8	0	82
135	1	181	9	2	3	0.0500	0.0500	1	1	1.102	0	0	82
135	1	182	1	1	1	0.0500	0.0500	1	0	0.451	0	82	0
135	1	183	9	1	3	0.0500	0.0500	1	0	0.681	0	82	0
135	1	184	1	2	2	0.0500	0.0500	0	1	0.593	76	82	82
135	1	185	1	1	3	0.0500	0.0500	0	1	0.588	76	82	82
135	1	186	0	1	3	0.0500	0.0500	0	1	0.496	9	0	0
135	1	187	0	2	3	0.0500	0.0500	1	1	0.447	9	82	0
135	1	188	0	2	3	0.0500	0.0500	0	0	0.501	0	0	0
135	1	189	1	2	3	0.0500	0.0500	1	1	0.545	81	0	82
135	1	190	0	2	2	0.0500	0.0500	0	1	0.443	9	0	0
135	1	191	1	2	1	0.0500	0.0500	0	1	0.505	85	82	82
135	1	192	0	1	3	0.0500	0.0500	1	1	0.663	7	0	82
135	1	193	9	1	3	0.0500	0.0500	1	1	0.638	0	82	0
135	1	194	9	1	3	0.0500	0.0500	0	1	0.838	0	82	82
135	1	195	0	1	3	0.0500	0.0500	0	1	0.620	7	0	0
135	1	196	0	2	1	0.0500	0.0500	0	1	0.740	6	0	0
135	1	197	9	2	2	0.0500	0.0500	1	1	0.655	0	0	82
135	1	198	9	1	1	0.0500	0.0500	0	0	0.935	0	82	82
135	1	199	0	2	1	0.0500	0.0500	0	1	0.531	8	0	0
135	1	200	9	1	1	0.0500	0.0500	0	1	0.678	0	0	0
135	1	201	0	1	3	0.0500	0.0500	1	1	0.782	6	0	82
135	1	202	1	2	2	0.0500	0.0500	1	1	0.513	84	0	82
135	1	203	9	1	1	0.0500	0.0500	0	0	0.606	0	82	82
135	1	204	0	2	3	0.0500	0.0500	1	1	0.560	8	82	0
135	1	205	0	2	3	0.0500	0.0500	1	1	0.691	7	82	0
135	1	206	9	2	2	0.0500	0.0500	0	1	0.616	0	82	82
135	1	207	0	2	3	0.0500	0.0500	1	1	0.520	8	82	0
135	1	208	0	1	1	0.0500	0.0500	0	1	0.542	8	0	0
135	1	209	9	2	2	0.0500	0.0500	1	1	0.499	0	82	0
135	1	210	1	1	3	0.0500	0.0500	1	0	0.687	0	82	0
135	1	211	9	1	3	0.0500	0.0500	1	1	0.724	0	0	82
135	1	212	1	1	1	0.0500	0.0500	0	1	0.503	85	82	82
135	1	213	0	2	3	0.0500	0.0500	0	1	0.540	8	0	0
135	1	214	0	2	3	0.0500	0.0500	0	1	0.472	9	0	0
135	1	215	0	2	2	0.0500	0.0500	0	1	0.477	9	0	0
135	1	216	9	2	3	0.0500	0.0500	1	1	0.604	0	82	0
135	1	217	1	2	3	0.0500	0.0500	0	1	0.405	95	82	82
135	1	218	9	2	2	0.0500	0.0500	1	1	0.463	0	0	82
135	1	219	0	1	1	0.0500	0.0500	1	0	0.492	0	0	82
135	1	220	1	2	3	0.0500	0.0500	0	1	0.993	50	82	82
135	1	221	1	1	3	0.0500	0.0500	1	1	0.720	63	82	0
135	1	222	0	2	2	0.0500	0.0500	0	1	0.767	6	0	0
135	1	223	0	1	1	0.0500	0.0500	0	0	0.600	0	0	0
135	1	224	9	2	2	0.0500	0.0500	0	1	0.530	0	82	82
135	1	225	0	1	1	0.0500	0.0500	1	1	0.488	9	0	82
135	1	226	1	1	1	0.0500	0.0500	0	1	0.510	84	82	82
135	1	227	9	2	3	0.0500	0.0500	0	1	0.483	0	0	0
135	1	228	0	2	2	0.0500	0.0500	1	1	0.497	9	82	0
135	1	229	0	1	3	0.0500	0.0500	0	1	0.591	8	0	0
135	1	230	0	1	3	0.0500	0.0500	1	0	0.760	0	0	82
135	1	231	1	1	3	0.0500	0.0500	0	1	0.594	76	82	82
135	1	232	0	2	2	0.0500	0.0500	1	1	0.486	9	82	0
135	1	233	0	1	1	0.0500	0.0500	1	1	0.515	8	0	82
135	1	234	1	1	3	0.0500	0.0500	1	1	0.566	78	82	0
135	1	235	9	1	2	0.0500	0.0500	1	1	0.642	0	82	0
135	1	236	9	2	2	0.0500	0.0500	0	1	0.571	0	0	0
135	1	237	9	2	3	0.0500	0.0500	0	1	0.491	0	82	82
135	1	238	0	1	3	0.0500	0.0500	0	1	0.624	7	0	0
135	1	239	9	1	1	0.0500	0.0500	1	1	0.602	0	82	0
135	1	240	1	2	2	0.0500	0.0500	0	1	0.813	54	82	82
135	1	241	1	1	1	0.0500	0.0500	0	1	0.963	50	82	82
135	1	242	9	2	2	0.0500	0.0500	1	1	0.432	0	0	82
135	1	243	1	2	3	0.0500	0.0500	1	1	0.494	86	0	82
135	1	244	0	1	1	0.0500	0.0500	1	1	0.499	9	0	82
135	1	245	9	1	1	0.0500	0.0500	0	1	0.616	0	82	82
135	1	246	0	1	1	0.0500	0.0500	1	1	0.491	9	0	82
135	1	247	9	1	3	0.0500	0.0500	0	1	0.639	0	0	0
135	1	248	9	2	3	0.0500	0.0500	0	1	0.495	0	82	82
135	1	249	0	2	1	0.0500	0.0500	1	1	0.643	7	82	0
135	1	250	1	1	3	0.0500	0.0500	1	1	0.601	75	82	0
135	1	251	9	1	2	0.0500	0.0500	0	1	0.634	0	82	82
135	1	252	9	2	3	0.0500	0.0500	0	1	0.724	0	0	0
135	1	253	1	2	3	0.0500	0.0500	0	1	0.488	86	82	82
135	1	254	1	2	3	0.0500	0.0500	0	1	0.502	85	82	82
135	1	255	0	1	3	0.0500	0.0500	1	0	0.380	0	0	82
135	1	256	0	2	2	0.0500	0.0500	0	1	0.485	9	0	0
135	1	257	1	2	2	0.0500	0.0500	1	1	0.402	95	0	82
135	1	258	1	1	3	0.0500	0.0500	0	1	0.635	71	82	82
135	1	259	1	1	3	0.0500	0.0500	1	1	0.452	90	82	0
135	1	260	0	2	2	0.0500	0.0500	0	1	0.442	9	0	0
135	1	261	0	2	3	0.0500	0.0500	0	1	0.579	8	0	0
135	1	262	0	2	2	0.0500	0.0500	0	1	0.476	9	0	0
135	1	263	0	1	1	0.0500	0.0500	1	1	0.442	9	0	82
135	1	264	0	1	1	0.0500	0.0500	1	1	0.583	8	0	82
135	1	265	1	2	2	0.0500	0.0500	1	1	0.658	69	0	82
135	1	266	0	1	1	0.0500	0.0500	0	1	0.466	9	0	0
135	1	267	0	2	2	0.0500	0.0500	1	1	0.472	9	82	0
135	1	268	9	1	1	0.0500	0.0500	1	1	0.599	0	0	82
135	1	269	0	1	1	0.0500	0.0500	0	1	0.407	9	0	0
135	1	270	1	1	1	0.0500	0.0500	1	1	0.431	92	82	0
135	1	271	1	2	1	0.0500	0.0500	0	0	0.584	0	82	82
135	1	272	0	2	3	0.0500	0.0500	0	1	0.571	8	0	0
135	1	273	0	2	2	0.0500	0.0500	1	1	0.492	9	82	0
135	1	274	9	1	3	0.0500	0.0500	0	1	0.651	0	0	0
135	1	275	1	1	1	0.0500	0.0500	1	1	0.514	84	82	0
135	1	276	1	2	2	0.0500	0.0500	0	1	0.461	89	82	82
135	1	277	0	2	3	0.0500	0.0500	0	1	0.574	8	0	0
135	1	278	9	1	1	0.0500	0.0500	0	1	0.409	0	0	0
135	1	279	1	1	1	0.0500	0.0500	1	1	0.497	85	82	0
135	1	280	0	2	2	0.0500	0.0500	1	1	0.454	9	82	0
135	1	281	9	2	3	0.0500	0.0500	1	1	0.613	0	0	82
135	1	282	0	1	1	0.0500	0.0500	1	0	0.527	0	0	82
135	1	283	9	2	2	0.0500	0.0500	0	1	0.603	0	0	0
135	1	284	0	2	2	0.0500	0.0500	0	1	0.486	9	0	0
135	1	285	0	1	1	0.0500	0.0500	0	1	0.477	9	0	0
135	1	286	9	2	2	0.0500	0.0500	0	1	0.411	0	82	82
135	1	287	0	1	1	0.0500	0.0500	1	1	0.523	8	0	82
135	1	288	9	1	1	0.0500	0.0500	1	1	0.554	0	82	0
135	1	289	1	1	2	0.0500	0.0500	1	1	0.423	93	82	0
135	1	290	1	1	1	0.0500	0.0500	0	1	0.464	89	82	82
135	1	291	0	1	1	0.0500	0.0500	0	1	0.432	9	0	0
135	1	292	1	2	1	0.0500	0.0500	1	1	0.417	93	0	82
135	1	293	1	2	2	0.0500	0.0500	0	1	0.507	84	82	82
135	1	294	9	1	3	0.0500	0.0500	1	1	0.448	0	0	82
135	1	295	1	1	1	0.0500	0.0500	1	1	0.609	74	82	0
135	1	296	0	1	3	0.0500	0.0500	1	1	0.521	8	0	82
135	1	297	1	2	2	0.0500	0.0500	0	1	0.462	89	82	82
135	1	298	1	2	3	0.0500	0.0500	1	1	0.405	94	0	82
135	1	299	1	1	1	0.0500	0.0500	1	1	0.429	92	82	0
135	1	300	1	1	3	0.0500	0.0500	0	1	0.486	86	82	82
135	1	301	0	1	1	0.0500	0.0500	0	1	0.466	9	0	0
135	1	302	0	1	3	0.0500	0.0500	1	1	0.423	9	0	82
135	1	303	1	1	3	0.0500	0.0500	0	1	0.497	85	82	82
135	1	304	1	1	1	0.0500	0.0500	0	1	0.413	94	82	82
135	1	305	1	1	1	0.0500	0.0500	1	1	0.437	91	82	0
135	1	306	0	1	1	0.0500	0.0500	1	1	0.508	8	0	82
135	1	307	1	1	2	0.0500	0.0500	1	1	0.489	86	82	0
135	1	308	9	2	3	0.0500	0.0500	1	1	0.504	0	0	82
135	1	309	0	2	3	0.0500	0.0500	0	1	0.557	8	0	0
135	1	310	1	1	3	0.0500	0.0500	1	1	0.576	77	82	0
135	1	311	0	2	2	0.0500	0.0500	0	1	0.506	8	0	0
135	1	312	0	2	2	0.0500	0.0500	0	1	0.561	8	0	0
135	1	313	9	1	3	0.0500	0.0500	0	0	0.595	0	0	0
135	1	314	1	1	3	0.0500	0.0500	1	1	0.653	70	82	0
135	1	315	0	2	3	0.0500	0.0500	1	1	0.574	8	82	0
135	1	316	1	1	3	0.0500	0.0500	0	1	0.755	60	82	82
135	1	317	9	1	3	0.0500	0.0500	0	1	0.600	0	82	82
135	1	318	1	2	2	0.0500	0.0500	0	1	0.697	65	82	82
135	1	319	0	2	1	0.0500	0.0500	0	1	0.453	9	0	0
135	1	320	1	1	3	0.0500	0.0500	0	0	0.533	0	82	82
135	1	321	1	2	3	0.0500	0.0500	0	1	0.603	75	82	82
135	1	322	0	2	3	0.0500	0.0500	1	0	0.405	0	82	0
135	1	323	0	2	3	0.0500	0.0500	0	1	0.536	8	0	0
135	1	324	0	1	1	0.0500	0.0500	0	1	0.542	8	0	0
135	1	325	0	2	2	0.0500	0.0500	1	1	0.458	9	82	0
135	1	326	1	2	3	0.0500	0.0500	1	1	0.535	81	0	82
135	1	327	0	2	3	0.0500	0.0500	0	1	0.515	8	0	0
135	1	328	0	1	3	0.0500	0.0500	1	1	0.543	8	0	82
135	1	329	9	1	1	0.0500	0.0500	1	1	0.546	0	0	82
135	1	330	0	2	3	0.0500	0.0500	0	1	0.486	9	0	0
135	1	331	0	2	1	0.0500	0.0500	1	1	0.426	9	82	0
135	1	332	1	2	2	0.0500	0.0500	1	1	0.417	93	0	82
135	1	333	1	2	3	0.0500	0.0500	0	1	0.474	88	82	82
135	1	334	0	1	1	0.0500	0.0500	1	1	0.417	9	0	82
135	1	335	1	1	1	0.0500	0.0500	1	1	0.459	89	82	0
135	1	336	1	1	1	0.0500	0.0500	0	1	0.601	75	82	82
135	1	337	1	2	2	0.0500	0.0500	1	1	0.377	97	0	82
135	1	338	1	2	2	0.0500	0.0500	0	1	0.521	83	82	82
135	1	339	0	1	1	0.0500	0.0500	0	1	0.566	8	0	0
135	1	340	1	1	1	0.0500	0.0500	0	1	0.442	91	82	82
135	1	341	1	2	2	0.0500	0.0500	1	1	0.628	72	0	82
135	1	342	9	2	3	0.0500	0.0500	1	1	0.470	0	0	82
135	1	343	0	1	3	0.0500	0.0500	0	0	0.479	0	0	0
135	1	344	0	1	1	0.0500	0.0500	0	1	0.461	9	0	0
135	1	345	1	1	3	0.0500	0.0500	1	1	0.596	75	82	0
135	1	346	1	2	1	0.0500	0.0500	1	1	0.429	92	0	82
135	1	347	1	2	2	0.0500	0.0500	0	0	0.517	0	82	82
135	1	348	9	1	2	0.0500	0.0500	1	1	0.531	0	0	82
135	1	349	1	2	2	0.0500	0.0500	1	1	0.510	84	0	82
135	1	350	0	2	3	0.0500	0.0500	0	1	0.522	8	0	0
135	1	351	0	2	2	0.0500	0.0500	0	1	0.609	7	0	0
135	1	352	0	2	3	0.0500	0.0500	0	1	0.705	6	0	0
135	1	353	1	2	2	0.0500	0.0500	1	1	0.480	87	0	82
135	1	354	1	2	3	0.0500	0.0500	0	1	0.446	90	82	82
135	1	355	1	1	3	0.0500	0.0500	0	1	0.663	69	82	82
135	1	356	0	1	1	0.0500	0.0500	1	0	0.804	0	0	82
135	1	357	9	1	3	0.0500	0.0500	0	1	0.652	0	82	82
135	1	358	1	2	3	0.0500	0.0500	0	1	0.652	70	82	82
135	1	359	1	1	1	0.0500	0.0500	0	1	0.541	81	82	82
135	1	360	1	2	3	0.0500	0.0500	1	0	0.699	0	0	82
135	1	361	0	1	1	0.0500	0.0500	1	0	0.681	0	0	82
135	1	362	0	2	2	0.0500	0.0500	0	1	0.470	9	0	0
135	1	363	0	1	1	0.0500	0.0500	0	1	0.581	8	0	0
135	1	364	0	1	1	0.0500	0.0500	0	1	0.424	9	0	0
135	1	365	1	2	2	0.0500	0.0500	0	1	0.506	84	82	82
135	1	366	1	2	2	0.0500	0.0500	1	1	0.455	90	0	82
135	1	367	1	2	3	0.0500	0.0500	0	1	0.495	86	82	82
135	1	368	0	1	3	0.0500	0.0500	1	1	0.635	7	0	82
135	1	369	1	2	3	0.0500	0.0500	0	1	0.476	87	82	82
135	1	370	9	2	2	0.0500	0.0500	0	1	0.516	0	0	0
135	1	371	1	1	3	0.0500	0.0500	0	1	0.722	63	82	82
135	1	372	1	2	3	0.0500	0.0500	1	1	0.798	55	0	82
135	1	373	0	2	3	0.0500	0.0500	0	1	0.462	9	0	0
135	1	374	0	2	3	0.0500	0.0500	1	1	0.363	10	82	0
135	1	375	0	1	1	0.0500	0.0500	1	0	0.422	0	0	82
135	1	376	0	2	3	0.0500	0.0500	1	1	0.430	9	82	0
135	1	377	0	2	2	0.0500	0.0500	1	1	0.420	9	82	0
135	1	378	1	1	3	0.0500	0.0500	0	1	0.492	86	82	82
135	1	379	0	2	3	0.0500	0.0500	1	1	0.571	8	82	0
135	1	380	1	1	3	0.0500	0.0500	0	1	0.532	82	82	82
135	1	381	1	1	1	0.0500	0.0500	1	0	0.676	0	82	0
135	1	382	1	2	2	0.0500	0.0500	1	1	0.475	88	0	82
135	1	383	1	2	2	0.0500	0.0500	1	1	0.490	86	0	82
135	1	384	1	2	1	0.0500	0.0500	1	1	0.431	92	0	82
135	1	385	1	2	2	0.0500	0.0500	0	1	0.470	88	82	82
135	1	386	0	2	2	0.0500	0.0500	0	1	0.524	8	0	0
135	1	387	1	2	3	0.0500	0.0500	0	1	0.632	72	82	82
135	1	388	1	1	1	0.0500	0.0500	1	1	0.479	87	82	0
135	1	389	9	1	3	0.0500	0.0500	1	1	0.583	0	82	0
135	1	390	0	1	3	0.0500	0.0500	1	1	0.659	7	0	82
135	1	391	0	2	2	0.0500	0.0500	1	1	0.505	8	82	0
135	1	392	0	2	1	0.0500	0.0500	1	1	0.550	8	82	0
135	1	393	9	2	2	0.0500	0.0500	0	1	0.458	0	82	82
135	1	394	1	2	2	0.0500	0.0500	1	1	0.361	99	0	82
135	1	395	1	1	3	0.0500	0.0500	0	0	0.477	0	82	82
135	1	396	0	1	3	0.0500	0.0500	0	1	0.435	9	0	0
135	1	397	9	2	2	0.0500	0.0500	0	1	0.499	0	0	0
135	1	398	9	1	1	0.0500	0.0500	0	1	0.610	0	82	82
135	1	399	0	2	1	0.0500	0.0500	1	1	0.458	9	82	0
135	1	400	0	1	3	0.0500	0.0500	0	1	0.546	8	0	0
135	1	401	9	2	3	0.0500	0.0500	1	0	0.664	0	82	0
135	1	402	9	1	3	0.0500	0.0500	0	1	0.671	0	0	0
135	1	403	1	1	1	0.0500	0.0500	0	1	0.518	83	82	82
135	1	404	0	1	3	0.0500	0.0500	0	1	0.570	8	0	0
135	1	405	1	2	3	0.0500	0.0500	0	1	0.580	77	82	82
135	1	406	0	1	1	0.0500	0.0500	0	1	0.477	9	0	0
135	1	407	1	1	3	0.0500	0.0500	0	1	0.498	85	82	82
135	1	408	0	2	3	0.0500	0.0500	0	1	0.455	9	0	0
135	1	409	9	1	3	0.0500	0.0500	1	1	0.390	0	82	0
135	1	410	1	1	1	0.0500	0.0500	0	1	0.430	92	82	82
135	1	411	0	1	2	0.0500	0.0500	1	0	0.596	0	0	82
135	1	412	1	2	3	0.0500	0.0500	1	1	0.566	78	0	82
135	1	413	1	2	3	0.0500	0.0500	0	1	0.544	81	82	82
135	1	414	1	1	3	0.0500	0.0500	1	1	0.435	92	82	0
135	1	415	0	2	3	0.0500	0.0500	0	1	0.380	10	0	0
135	1	416	1	2	3	0.0500	0.0500	1	1	0.295	100	0	82
135	1	417	0	1	1	0.0500	0.0500	1	0	0.412	0	0	82
135	1	418	9	1	3	0.0500	0.0500	0	1	0.532	0	0	0
135	1	419	0	1	1	0.0500	0.0500	0	1	0.414	9	0	0
135	1	420	1	2	1	0.0500	0.0500	1	0	0.576	0	0	82
135	1	421	0	1	1	0.0500	0.0500	1	0	0.588	0	0	82
135	1	422	1	2	2	0.0500	0.0500	1	1	0.413	94	0	82
135	1	423	1	1	3	0.0500	0.0500	1	0	0.676	0	82	0
135	1	424	9	2	2	0.0500	0.0500	1	1	0.427	0	0	82
135	1	425	1	2	3	0.0500	0.0500	0	1	0.618	73	82	82
135	1	426	1	2	3	0.0500	0.0500	1	1	0.394	96	0	82
135	1	427	0	2	3	0.0500	0.0500	0	1	0.452	9	0	0
135	1	428	1	2	2	0.0500	0.0500	0	1	0.452	90	82	82
135	1	429	0	2	3	0.0500	0.0500	0	1	0.506	8	0	0
135	1	430	1	1	3	0.0500	0.0500	1	1	0.559	79	82	0
135	1	431	0	2	2	0.0500	0.0500	1	1	0.505	8	82	0
135	1	432	1	1	3	0.0500	0.0500	0	0	0.472	0	82	82
135	1	433	0	1	1	0.0500	0.0500	0	1	0.525	8	0	0
135	1	434	1	1	1	0.0500	0.0500	0	1	0.552	80	82	82
135	1	435	9	1	3	0.0500	0.0500	0	1	0.485	0	82	82
135	1	436	1	2	3	0.0500	0.0500	0	1	0.570	78	82	82
135	1	437	1	1	1	0.0500	0.0500	1	1	0.510	84	82	0
135	1	438	0	1	1	0.0500	0.0500	1	1	0.557	8	0	82
135	1	439	9	1	1	0.0500	0.0500	0	1	0.488	0	82	82
135	1	440	9	1	1	0.0500	0.0500	1	1	0.463	0	0	82
135	1	441	9	1	2	0.0500	0.0500	1	1	0.629	0	82	0
135	1	442	1	2	1	0.0500	0.0500	0	1	0.372	98	82	82
135	1	443	1	1	1	0.0500	0.0500	1	1	0.366	98	82	0
135	1	444	1	2	2	0.0500	0.0500	1	1	0.433	92	0	82
135	1	445	0	2	2	0.0500	0.0500	1	1	0.463	9	82	0
135	1	446	1	2	2	0.0500	0.0500	1	0	0.477	0	0	82
135	1	447	1	1	2	0.0500	0.0500	1	1	0.530	82	82	0
135	1	448	1	1	1	0.0500	0.0500	1	1	0.622	73	82	0
135	1	449	1	1	3	0.0500	0.0500	1	1	0.532	82	82	0
135	1	450	0	1	2	0.0500	0.0500	0	1	0.479	9	0	0
135	1	451	0	1	1	0.0500	0.0500	0	1	0.932	5	0	0
135	1	452	9	1	2	0.0500	0.0500	0	1	0.735	0	82	82
135	1	453	0	1	1	0.0500	0.0500	1	1	0.635	7	0	82
135	1	454	0	1	3	0.0500	0.0500	0	1	0.580	8	0	0
135	1	455	1	1	1	0.0500	0.0500	1	0	0.518	0	82	0
135	1	456	0	1	1	0.0500	0.0500	1	1	0.461	9	0	82
135	1	457	0	1	3	0.0500	0.0500	0	1	0.651	7	0	0
135	1	458	1	1	2	0.0500	0.0500	1	1	0.603	75	82	0
135	1	459	9	1	3	0.0500	0.0500	1	0	0.630	0	0	82
135	1	460	0	2	2	0.0500	0.0500	0	0	0.567	0	0	0
135	1	461	9	1	3	0.0500	0.0500	1	0	0.844	0	82	0
135	1	462	1	2	3	0.0500	0.0500	1	1	0.692	66	0	82
135	1	463	9	2	2	0.0500	0.0500	0	1	0.443	0	82	82
135	1	464	1	2	2	0.0500	0.0500	1	1	0.387	96	0	82
135	1	465	0	2	2	0.0500	0.0500	0	1	0.413	9	0	0
135	1	466	1	2	3	0.0500	0.0500	1	1	0.355	99	0	82
135	1	467	1	1	3	0.0500	0.0500	0	1	0.327	100	82	82
135	1	468	1	1	2	0.0500	0.0500	0	0	0.564	0	82	82
135	1	469	9	1	3	0.0500	0.0500	0	1	0.565	0	0	0
135	1	470	1	2	1	0.0500	0.0500	1	1	0.568	78	0	82
135	1	471	1	1	3	0.0500	0.0500	0	1	0.403	95	82	82
135	1	472	0	1	2	0.0500	0.0500	0	1	0.563	8	0	0
135	1	473	0	1	1	0.0500	0.0500	1	1	0.549	8	0	82
135	1	474	9	1	1	0.0500	0.0500	0	1	0.362	0	0	0
135	1	475	1	2	2	0.0500	0.0500	0	1	0.500	85	82	82
135	1	476	1	2	3	0.0500	0.0500	0	1	0.579	77	82	82
135	1	477	9	2	3	0.0500	0.0500	0	1	0.460	0	0	0
135	1	478	1	2	2	0.0500	0.0500	1	1	0.474	88	0	82
135	1	479	9	1	1	0.0500	0.0500	1	0	0.616	0	0	82
135	1	480	1	1	3	0.0500	0.0500	1	0	0.531	0	82	0
135	1	481	0	1	3	0.0500	0.0500	1	1	1.087	5	0	82
135	1	482	0	1	3	0.0500	0.0500	1	1	0.483	9	0	82
135	1	483	1	2	3	0.0500	0.0500	1	0	0.626	0	0	82
135	1	484	1	2	2	0.0500	0.0500	0	1	0.504	85	82	82
135	1	485	9	2	2	0.0500	0.0500	1	1	0.414	0	0	82
135	1	486	1	2	2	0.0500	0.0500	0	1	0.462	89	82	82
135	1	487	9	1	3	0.0500	0.0500	0	0	0.627	0	82	82
135	1	488	0	2	1	0.0500	0.0500	1	1	0.653	7	82	0
135	1	489	0	1	3	0.0500	0.0500	1	0	0.762	0	0	82
135	1	490	0	2	3	0.0500	0.0500	1	1	0.526	8	82	0
135	1	491	0	2	3	0.0500	0.0500	0	1	0.513	8	0	0
135	1	492	0	2	3	0.0500	0.0500	1	1	0.421	9	82	0
135	1	493	1	1	1	0.0500	0.0500	1	1	0.792	56	82	0
135	1	494	1	2	2	0.0500	0.0500	0	1	0.499	85	82	82
135	1	495	1	1	1	0.0500	0.0500	0	1	0.713	64	82	82
135	1	496	0	2	3	0.0500	0.0500	1	1	0.477	9	82	0
135	1	497	1	1	1	0.0500	0.0500	0	1	0.460	89	82	82
135	1	498	0	2	3	0.0500	0.0500	0	1	0.539	8	0	0
135	1	499	9	1	1	0.0500	0.0500	0	1	0.486	0	0	0
135	1	500	0	1	1	0.0500	0.0500	1	1	0.531	8	0	82
135	1	501	1	1	1	0.0500	0.0500	0	1	0.505	84	82	82
135	1	502	0	1	3	0.0500	0.0500	1	1	0.392	10	0	82
135	1	503	9	1	1	0.0500	0.0500	0	1	0.383	0	0	0
135	1	504	0	2	2	0.0500	0.0500	0	0	0.393	0	0	0
135	1	505	9	2	2	0.0500	0.0500	1	1	0.409	0	0	82
135	1	506	1	2	3	0.0500	0.0500	1	1	0.408	94	0	82
135	1	507	0	1	1	0.0500	0.0500	0	1	0.441	9	0	0
135	1	508	0	2	2	0.0500	0.0500	0	1	0.432	9	0	0
135	1	509	0	2	2	0.0500	0.0500	1	1	0.416	9	82	0
135	1	510	0	1	1	0.0500	0.0500	0	1	0.391	10	0	0
135	1	511	0	1	3	0.0500	0.0500	1	1	0.417	9	0	82
135	1	512	9	2	3	0.0500	0.0500	1	1	0.531	0	0	82
135	1	513	0	2	2	0.0500	0.0500	0	1	0.375	10	0	0
135	1	514	1	2	1	0.0500	0.0500	0	1	0.505	85	82	82
135	1	515	0	2	3	0.0500	0.0500	1	1	0.487	9	82	0
135	1	516	0	2	3	0.0500	0.0500	1	1	0.557	8	82	0
135	1	517	1	1	2	0.0500	0.0500	0	0	0.530	0	82	82
135	1	518	9	1	1	0.0500	0.0500	1	1	0.487	0	82	0
135	1	519	0	2	2	0.0500	0.0500	0	1	0.406	9	0	0
135	1	520	0	1	1	0.0500	0.0500	0	1	0.592	8	0	0
135	1	521	0	2	2	0.0500	0.0500	0	0	0.654	0	0	0
135	1	522	9	2	3	0.0500	0.0500	0	1	0.662	0	0	0
135	1	523	0	1	3	0.0500	0.0500	1	0	0.670	0	0	82
135	1	524	1	2	1	0.0500	0.0500	0	1	0.662	69	82	82
135	1	525	0	1	1	0.0500	0.0500	1	1	0.628	7	0	82
135	1	526	0	2	2	0.0500	0.0500	1	1	0.462	9	82	0
135	1	527	0	2	2	0.0500	0.0500	0	1	0.555	8	0	0
135	1	528	9	1	1	0.0500	0.0500	1	1	0.517	0	0	82
135	1	529	9	2	3	0.0500	0.0500	1	0	0.482	0	82	0
135	1	530	9	2	3	0.0500	0.0500	1	1	0.400	0	82	0
135	1	531	1	1	3	0.0500	0.0500	1	1	0.475	87	82	0
135	1	532	1	2	3	0.0500	0.0500	1	1	0.455	89	0	82
135	1	533	0	1	3	0.0500	0.0500	1	1	0.448	9	0	82
135	1	534	9	2	2	0.0500	0.0500	1	1	0.521	0	82	0
135	1	535	9	1	3	0.0500	0.0500	1	1	0.523	0	0	82
135	1	536	1	1	3	0.0500	0.0500	0	1	0.729	62	82	82
135	1	537	1	1	1	0.0500	0.0500	0	1	0.535	81	82	82
135	1	538	1	2	2	0.0500	0.0500	0	1	0.489	86	82	82
135	1	539	0	1	2	0.0500	0.0500	0	1	0.368	10	0	0
135	1	540	0	1	3	0.0500	0.0500	0	1	0.387	10	0	0
135	1	541	1	2	2	0.0500	0.0500	0	1	0.452	90	82	82
135	1	542	1	1	1	0.0500	0.0500	1	1	0.468	88	82	0
135	1	543	1	2	3	0.0500	0.0500	1	1	0.515	83	0	82
135	1	544	1	1	3	0.0500	0.0500	1	1	0.448	90	82	0
135	1	545	0	2	2	0.0500	0.0500	1	1	0.409	9	82	0
135	1	546	9	1	1	0.0500	0.0500	1	1	0.451	0	82	0
135	1	547	1	1	1	0.0500	0.0500	1	1	0.458	89	82	0
135	1	548	1	2	2	0.0500	0.0500	1	0	0.663	0	0	82
135	1	549	0	1	1	0.0500	0.0500	1	1	0.454	9	0	82
135	1	550	1	1	1	0.0500	0.0500	0	1	0.478	87	82	82
135	1	551	1	2	3	0.0500	0.0500	1	1	0.387	96	0	82
135	1	552	1	2	2	0.0500	0.0500	1	1	0.669	68	0	82
135	1	553	1	1	1	0.0500	0.0500	0	1	0.382	97	82	82
135	1	554	1	2	3	0.0500	0.0500	0	1	0.529	82	82	82
135	1	555	1	1	1	0.0500	0.0500	1	1	0.494	86	82	0
135	1	556	1	2	2	0.0500	0.0500	0	1	0.469	88	82	82
135	1	557	1	2	2	0.0500	0.0500	0	0	0.389	0	82	82
135	1	558	1	2	3	0.0500	0.0500	0	1	0.406	94	82	82
135	1	559	0	2	3	0.0500	0.0500	0	1	0.457	9	0	0
135	1	560	9	1	2	0.0500	0.0500	1	1	0.448	0	0	82
135	1	561	9	2	1	0.0500	0.0500	1	0	0.592	0	82	0
135	1	562	0	2	2	0.0500	0.0500	1	1	0.490	9	82	0
135	1	563	1	2	3	0.0500	0.0500	1	1	0.423	93	0	82
135	1	564	1	1	3	0.0500	0.0500	0	1	0.513	84	82	82
135	1	565	1	1	1	0.0500	0.0500	0	1	0.485	86	82	82
135	1	566	0	1	1	0.0500	0.0500	1	1	0.442	9	0	82
135	1	567	9	1	3	0.0500	0.0500	1	0	0.378	0	0	82
135	1	568	0	2	3	0.0500	0.0500	0	0	0.461	0	0	0
135	1	569	0	2	2	0.0500	0.0500	1	0	0.371	0	82	0
135	1	570	0	2	3	0.0500	0.0500	1	1	0.431	9	82	0
135	1	571	1	2	2	0.0500	0.0500	0	1	0.521	83	82	82
135	1	572	9	1	1	0.0500	0.0500	0	0	0.550	0	0	0
135	1	573	1	1	2	0.0500	0.0500	1	1	0.745	60	82	0
135	1	574	9	2	3	0.0500	0.0500	1	1	0.525	0	0	82
135	1	575	0	1	2	0.0500	0.0500	1	1	0.673	7	0	82
135	1	576	0	1	3	0.0500	0.0500	1	1	0.495	9	0	82
135	1	577	1	2	2	0.0500	0.0500	0	1	0.573	78	82	82
135	1	578	1	1	3	0.0500	0.0500	0	1	0.486	86	82	82
135	1	579	0	2	2	0.0500	0.0500	0	1	0.491	9	0	0
135	1	580	0	1	1	0.0500	0.0500	0	1	0.504	8	0	0
135	1	581	9	2	2	0.0500	0.0500	1	1	1.416	0	82	0
135	1	582	0	1	3	0.0500	0.0500	1	0	0.626	0	0	82
135	1	583	1	1	1	0.0500	0.0500	0	1	0.712	64	82	82
135	1	584	1	1	3	0.0500	0.0500	0	1	0.548	80	82	82
135	1	585	9	2	2	0.0500	0.0500	0	1	0.662	0	0	0
135	1	586	0	2	3	0.0500	0.0500	1	1	0.396	10	82	0
135	1	587	1	2	2	0.0500	0.0500	0	1	0.343	100	82	82
135	1	588	1	2	2	0.0500	0.0500	0	1	0.427	92	82	82
135	1	589	0	1	1	0.0500	0.0500	0	1	0.602	7	0	0
135	1	590	0	1	1	0.0500	0.0500	0	1	0.459	9	0	0
135	1	591	0	1	3	0.0500	0.0500	0	1	0.371	10	0	0
135	1	592	0	1	1	0.0500	0.0500	0	1	0.382	10	0	0
135	1	593	0	2	1	0.0500	0.0500	1	1	0.431	9	82	0
135	1	594	0	1	3	0.0500	0.0500	0	1	0.389	10	0	0
135	1	595	1	2	3	0.0500	0.0500	1	1	0.430	92	0	82
135	1	596	9	1	3	0.0500	0.0500	0	1	0.342	0	82	82
135	1	597	1	2	3	0.0500	0.0500	0	1	0.497	85	82	82
135	1	598	0	1	1	0.0500	0.0500	1	1	0.421	9	0	82
135	1	599	0	1	1	0.0500	0.0500	1	1	0.424	9	0	82
135	1	600	9	2	3	0.0500	0.0500	0	1	0.319	0	82	82
135	1	601	1	1	3	0.0500	0.0500	0	1	0.440	91	82	82
135	1	602	0	1	2	0.0500	0.0500	1	1	0.447	9	0	82
135	1	603	9	2	1	0.0500	0.0500	1	0	0.553	0	0	82
135	1	604	0	2	2	0.0500	0.0500	1	1	0.339	10	82	0
135	1	605	1	1	3	0.0500	0.0500	1	0	0.384	0	82	0
135	1	606	1	2	3	0.0500	0.0500	0	1	0.474	88	82	82
135	1	607	1	2	2	0.0500	0.0500	1	1	0.367	98	0	82
135	1	608	9	2	3	0.0500	0.0500	1	1	0.568	0	0	82
135	1	609	0	2	1	0.0500	0.0500	0	1	0.450	9	0	0
135	1	610	0	1	2	0.0500	0.0500	1	1	0.361	10	0	82
135	1	611	1	1	3	0.0500	0.0500	1	1	0.493	86	82	0
135	1	612	0	2	3	0.0500	0.0500	0	1	0.523	8	0	0
135	1	613	9	2	2	0.0500	0.0500	0	0	0.760	0	82	82
135	1	614	1	1	3	0.0500	0.0500	1	1	0.508	84	82	0
135	1	615	1	1	3	0.0500	0.0500	0	1	0.480	87	82	82
135	1	616	0	2	2	0.0500	0.0500	0	1	0.478	9	0	0
135	1	617	9	2	2	0.0500	0.0500	0	1	0.412	0	82	82
135	1	618	0	1	3	0.0500	0.0500	1	1	0.605	7	0	82
135	1	619	0	2	2	0.0500	0.0500	1	1	0.413	9	82	0
135	1	620	1	1	1	0.0500	0.0500	0	1	0.431	92	82	82
135	1	621	9	2	3	0.0500	0.0500	1	0	0.486	0	0	82
135	1	622	1	2	2	0.0500	0.0500	1	1	0.371	98	0	82
135	1	623	1	2	3	0.0500	0.0500	0	1	0.395	95	82	82
135	1	624	0	1	2	0.0500	0.0500	0	0	0.566	0	0	0
135	1	625	1	1	1	0.0500	0.0500	1	0	0.530	0	82	0
135	1	626	9	1	3	0.0500	0.0500	0	1	0.702	0	82	82
135	1	627	9	2	1	0.0500	0.0500	0	1	0.530	0	82	82
135	1	628	0	2	3	0.0500	0.0500	0	1	0.495	9	0	0
135	1	629	0	2	1	0.0500	0.0500	0	1	0.434	9	0	0
135	1	630	1	2	1	0.0500	0.0500	0	1	0.458	89	82	82
135	1	631	1	2	3	0.0500	0.0500	1	1	0.440	91	0	82
135	1	632	9	1	1	0.0500	0.0500	0	1	0.393	0	82	82
135	1	633	9	2	2	0.0500	0.0500	1	1	0.437	0	0	82
135	1	634	0	1	3	0.0500	0.0500	0	1	0.438	9	0	0
135	1	635	0	2	3	0.0500	0.0500	0	1	0.525	8	0	0
135	1	636	9	1	2	0.0500	0.0500	0	1	0.489	0	0	0
135	1	637	0	2	3	0.0500	0.0500	0	1	0.454	9	0	0
135	1	638	9	1	1	0.0500	0.0500	1	0	0.564	0	0	82
135	1	639	0	1	3	0.0500	0.0500	0	1	0.504	8	0	0
135	1	640	9	2	1	0.0500	0.0500	0	1	0.485	0	0	0
135	1	641	1	1	1	0.0500	0.0500	1	0	0.422	0	82	0
135	1	642	0	1	3	0.0500	0.0500	1	0	0.849	0	0	82
135	1	643	1	1	3	0.0500	0.0500	1	1	0.840	51	82	0
135	1	644	0	1	3	0.0500	0.0500	0	1	0.600	7	0	0
135	1	645	1	1	1	0.0500	0.0500	1	1	0.514	84	82	0
135	1	646	1	1	1	0.0500	0.0500	0	1	0.423	93	82	82
135	1	647	9	2	3	0.0500	0.0500	0	1	0.497	0	82	82
135	1	648	0	1	3	0.0500	0.0500	1	1	0.535	8	0	82
135	1	649	9	1	3	0.0500	0.0500	1	1	0.546	0	82	0
135	1	650	0	1	1	0.0500	0.0500	0	1	0.375	10	0	0
135	1	651	0	1	1	0.0500	0.0500	1	1	0.385	10	0	82
135	1	652	0	2	2	0.0500	0.0500	1	1	0.466	9	82	0
135	1	653	0	1	1	0.0500	0.0500	0	1	0.391	10	0	0
135	1	654	1	2	3	0.0500	0.0500	0	1	0.634	72	82	82
135	1	655	9	2	3	0.0500	0.0500	0	1	0.563	0	0	0
135	1	656	1	2	3	0.0500	0.0500	1	1	0.503	85	0	82
135	1	657	0	2	3	0.0500	0.0500	1	1	0.556	8	82	0
135	1	658	1	1	2	0.0500	0.0500	1	0	0.824	0	82	0
135	1	659	1	1	1	0.0500	0.0500	1	1	0.480	87	82	0
135	1	660	9	2	3	0.0500	0.0500	0	1	0.486	0	82	82
135	1	661	0	1	1	0.0500	0.0500	0	1	0.405	9	0	0
135	1	662	0	2	3	0.0500	0.0500	1	1	0.455	9	82	0
135	1	663	0	2	2	0.0500	0.0500	0	1	0.518	8	0	0
135	1	664	0	2	3	0.0500	0.0500	1	1	0.402	9	82	0
135	1	665	9	2	2	0.0500	0.0500	0	1	0.365	0	0	0
135	1	666	0	2	3	0.0500	0.0500	0	1	0.430	9	0	0
135	1	667	1	1	3	0.0500	0.0500	0	0	0.588	0	82	82
135	1	668	0	1	3	0.0500	0.0500	1	1	0.647	7	0	82
135	1	669	9	2	3	0.0500	0.0500	1	1	0.583	0	82	0
135	1	670	9	2	3	0.0500	0.0500	0	1	0.547	0	0	0
135	1	671	0	1	1	0.0500	0.0500	1	0	0.542	0	0	82
135	1	672	9	1	3	0.0500	0.0500	1	1	0.497	0	0	82
135	1	673	1	1	3	0.0500	0.0500	0	0	0.646	0	82	82
135	1	674	1	2	1	0.0500	0.0500	1	1	0.766	58	0	82
135	1	675	1	1	2	0.0500	0.0500	0	1	1.016	50	82	82
135	1	676	0	2	2	0.0500	0.0500	1	1	0.497	9	82	0
135	1	677	0	2	3	0.0500	0.0500	1	1	0.574	8	82	0
135	1	678	0	2	2	0.0500	0.0500	1	1	0.455	9	82	0
135	1	679	1	1	2	0.0500	0.0500	0	1	0.621	73	82	82
135	1	680	1	2	2	0.0500	0.0500	1	1	0.413	94	0	82
135	1	681	1	1	3	0.0500	0.0500	1	0	0.812	0	82	0
135	1	682	9	2	2	0.0500	0.0500	1	1	0.422	0	82	0
135	1	683	1	2	3	0.0500	0.0500	0	0	0.640	0	82	82
135	1	684	0	2	2	0.0500	0.0500	1	1	0.425	9	82	0
135	1	685	9	2	2	0.0500	0.0500	1	1	0.399	0	82	0
135	1	686	0	1	3	0.0500	0.0500	0	0	0.449	0	0	0
135	1	687	9	1	1	0.0500	0.0500	1	1	0.504	0	82	0
135	1	688	0	2	3	0.0500	0.0500	0	1	0.364	10	0	0
135	1	689	1	1	1	0.0500	0.0500	0	1	0.510	84	82	82
135	1	690	1	2	2	0.0500	0.0500	0	1	0.468	88	82	82
135	1	691	1	1	3	0.0500	0.0500	1	0	0.604	0	82	0
135	1	692	9	1	3	0.0500	0.0500	0	1	0.501	0	0	0
135	1	693	0	2	2	0.0500	0.0500	1	1	0.401	9	82	0
135	1	694	9	2	3	0.0500	0.0500	0	1	0.435	0	82	82
135	1	695	1	2	2	0.0500	0.0500	1	1	0.346	100	0	82
135	1	696	0	1	3	0.0500	0.0500	0	1	0.469	9	0	0
135	1	697	1	2	2	0.0500	0.0500	1	1	0.316	100	0	82
135	1	698	1	2	3	0.0500	0.0500	0	1	0.385	97	82	82
135	1	699	1	1	3	0.0500	0.0500	1	1	0.484	87	82	0
135	1	700	0	1	3	0.0500	0.0500	0	1	0.633	7	0	0
135	1	701	1	1	1	0.0500	0.0500	1	1	0.609	74	82	0
135	1	702	1	1	3	0.0500	0.0500	1	0	0.336	0	82	0
135	1	703	1	1	1	0.0500	0.0500	0	1	0.596	75	82	82
135	1	704	0	2	2	0.0500	0.0500	0	1	0.477	9	0	0
135	1	705	0	2	1	0.0500	0.0500	0	1	0.601	7	0	0
135	1	706	0	2	3	0.0500	0.0500	1	1	0.395	10	82	0
135	1	707	1	1	3	0.0500	0.0500	1	0	0.406	0	82	0
135	1	708	0	1	3	0.0500	0.0500	0	1	0.430	9	0	0
135	1	709	1	1	1	0.0500	0.0500	0	1	0.404	95	82	82
135	1	710	0	2	2	0.0500	0.0500	0	1	0.438	9	0	0
135	1	711	0	1	3	0.0500	0.0500	1	1	0.558	8	0	82
135	1	712	1	2	3	0.0500	0.0500	1	1	0.817	53	0	82
135	1	713	0	1	3	0.0500	0.0500	0	1	0.394	10	0	0
135	1	714	0	2	2	0.0500	0.0500	0	0	0.636	0	0	0
135	1	715	0	2	1	0.0500	0.0500	0	1	0.413	9	0	0
135	1	716	9	1	1	0.0500	0.0500	1	1	0.600	0	82	0
135	1	717	0	2	3	0.0500	0.0500	0	1	0.370	10	0	0
135	1	718	1	1	1	0.0500	0.0500	1	1	0.427	92	82	0
135	1	719	0	2	3	0.0500	0.0500	1	1	0.474	9	82	0
135	1	720	9	1	1	0.0500	0.0500	0	1	0.474	0	82	82
