sub	sess	t	loc	co1	co2	or	resp	rt
83	1	1	2	1.0000	1.0000	0	1	1.295
83	1	2	2	1.0000	1.0000	0	1	0.640
83	1	3	1	1.0000	1.0000	0	0	0.764
83	1	4	1	1.0000	1.0000	1	1	1.414
83	1	5	2	1.0000	1.0000	1	0	0.687
83	1	6	1	1.0000	1.0000	0	1	0.962
83	1	7	2	1.0000	1.0000	1	1	0.948
83	1	8	1	1.0000	1.0000	1	0	1.076
83	1	9	1	1.0000	1.0000	1	1	1.336
83	1	10	2	1.0000	1.0000	1	1	0.875
83	1	11	2	1.0000	1.0000	0	1	0.678
83	1	12	1	1.0000	1.0000	1	1	0.733
83	1	13	1	1.0000	1.0000	0	1	0.737
83	1	14	1	1.0000	1.0000	0	1	0.676
83	1	15	2	1.0000	1.0000	1	1	0.665
83	1	16	1	1.0000	1.0000	1	0	0.838
83	1	17	2	1.0000	1.0000	1	1	1.050
83	1	18	1	1.0000	1.0000	0	1	0.700
83	1	19	1	1.0000	1.0000	1	1	1.880
83	1	20	2	1.0000	1.0000	0	1	0.833
83	1	21	2	1.0000	1.0000	0	1	0.660
83	1	22	1	1.0000	1.0000	0	0	0.651
83	1	23	2	1.0000	1.0000	0	1	0.982
83	1	24	2	1.0000	1.0000	1	1	0.651
83	1	25	2	1.0000	1.0000	0	1	0.957
83	1	26	1	1.0000	1.0000	1	1	1.358
83	1	27	2	1.0000	1.0000	0	1	0.892
83	1	28	2	1.0000	1.0000	1	1	0.851
83	1	29	2	1.0000	1.0000	0	1	0.745
83	1	30	1	1.0000	1.0000	0	0	1.549
83	1	31	1	1.0000	1.0000	1	1	0.975
83	1	32	2	1.0000	1.0000	1	0	0.777
83	1	33	1	1.0000	1.0000	0	1	0.715
83	1	34	1	0.2500	0.2500	0	1	0.930
83	1	35	1	0.2629	0.2629	1	1	1.721
83	1	36	2	0.2758	0.2758	0	1	1.381
83	1	37	2	0.2887	0.2887	0	1	0.724
83	1	38	1	0.3016	0.3016	0	0	0.686
83	1	39	1	0.3145	0.3145	1	1	0.726
83	1	40	1	0.3274	0.3274	1	1	0.920
83	1	41	2	0.3403	0.3403	1	0	0.988
83	1	42	1	0.3532	0.3532	0	1	1.456
83	1	43	1	0.3661	0.3661	1	1	2.027
83	1	44	2	0.3790	0.3790	0	1	1.331
83	1	45	1	0.3919	0.3919	0	1	0.820
83	1	46	1	0.4048	0.4048	0	1	0.870
83	1	47	1	0.4177	0.4177	1	1	0.743
83	1	48	1	0.4306	0.4306	1	1	0.695
83	1	49	1	0.4435	0.4435	1	1	1.799
83	1	50	1	0.4565	0.4565	1	1	1.650
83	1	51	2	0.4694	0.4694	0	1	0.665
83	1	52	2	0.4823	0.4823	0	1	0.802
83	1	53	1	0.4952	0.4952	0	1	0.854
83	1	54	2	0.5081	0.5081	1	1	1.237
83	1	55	2	0.5210	0.5210	1	1	0.762
83	1	56	2	0.5339	0.5339	1	1	0.700
83	1	57	2	0.5468	0.5468	0	1	0.971
83	1	58	1	0.5597	0.5597	1	1	1.321
83	1	59	1	0.5726	0.5726	0	1	0.698
83	1	60	2	0.5855	0.5855	1	1	1.148
83	1	61	1	0.5984	0.5984	0	1	0.769
83	1	62	2	0.6113	0.6113	0	1	1.342
83	1	63	1	0.6242	0.6242	0	1	0.860
83	1	64	1	0.6371	0.6371	0	1	0.954
83	1	65	1	0.6500	0.6500	1	1	0.823
83	1	66	1	0.2500	0.2500	0	1	0.652
83	1	67	2	0.2629	0.2629	1	1	0.868
83	1	68	2	0.2758	0.2758	0	1	1.002
83	1	69	1	0.2887	0.2887	1	1	1.221
83	1	70	2	0.3016	0.3016	1	1	0.775
83	1	71	2	0.3145	0.3145	1	1	0.664
83	1	72	2	0.3274	0.3274	0	1	0.660
83	1	73	2	0.3403	0.3403	1	1	0.878
83	1	74	1	0.3532	0.3532	0	1	0.608
83	1	75	2	0.3661	0.3661	0	1	0.919
83	1	76	1	0.3790	0.3790	0	0	0.781
83	1	77	1	0.3919	0.3919	0	1	0.802
83	1	78	1	0.4048	0.4048	1	1	0.801
83	1	79	1	0.4177	0.4177	0	1	1.119
83	1	80	2	0.4306	0.4306	0	1	0.952
83	1	81	2	0.4435	0.4435	0	1	0.672
83	1	82	2	0.4565	0.4565	1	1	0.670
83	1	83	1	0.4694	0.4694	0	1	0.705
83	1	84	1	0.4823	0.4823	1	1	0.753
83	1	85	2	0.4952	0.4952	1	1	1.548
83	1	86	2	0.5081	0.5081	1	1	0.782
83	1	87	1	0.5210	0.5210	1	1	1.306
83	1	88	2	0.5339	0.5339	1	1	0.624
83	1	89	2	0.5468	0.5468	0	1	0.673
83	1	90	2	0.5597	0.5597	1	1	0.724
83	1	91	2	0.5726	0.5726	1	1	0.610
83	1	92	2	0.5855	0.5855	0	1	0.975
83	1	93	1	0.5984	0.5984	1	1	1.110
83	1	94	1	0.6113	0.6113	1	1	0.849
83	1	95	2	0.6242	0.6242	1	1	0.787
83	1	96	2	0.6371	0.6371	0	1	0.715
83	1	97	2	0.6500	0.6500	0	1	0.601
83	1	98	1	0.2821	0.6500	0	0	0.775
83	1	99	1	0.2988	0.6500	1	1	0.674
83	1	100	2	0.2988	0.2567	0	1	0.650
83	1	101	1	0.2936	0.2567	1	1	0.677
83	1	102	1	0.2884	0.2567	1	1	0.653
83	1	103	2	0.2884	0.2490	1	1	0.792
83	1	104	2	0.2884	0.2414	0	1	0.611
83	1	105	2	0.2884	0.2338	0	1	0.801
83	1	106	1	0.2833	0.2338	1	1	0.693
83	1	107	1	0.2783	0.2338	1	1	0.709
83	1	108	1	0.2735	0.2338	1	1	0.707
83	1	109	1	0.2687	0.2338	0	1	0.687
83	1	110	2	0.2687	0.2261	0	1	0.809
83	1	111	1	0.2641	0.2261	1	1	0.749
83	1	112	1	0.2595	0.2261	0	1	0.740
83	1	113	2	0.2595	0.2183	1	1	1.780
83	1	114	2	0.2595	0.2105	1	1	1.208
83	1	115	2	0.2595	0.2027	1	1	0.688
83	1	116	2	0.2595	0.1947	1	1	1.814
83	1	117	2	0.2595	0.1865	1	1	0.729
83	1	118	1	0.2550	0.1865	1	1	0.920
83	1	119	2	0.2550	0.1780	1	0	0.896
83	1	120	1	0.2506	0.1780	0	1	0.562
83	1	121	2	0.2506	0.2038	0	1	0.940
83	1	122	1	0.2463	0.2038	1	1	0.703
83	1	123	2	0.2463	0.1973	1	1	0.836
83	1	124	2	0.2463	0.1908	0	1	0.868
83	1	125	1	0.2420	0.1908	0	1	1.873
83	1	126	1	0.2378	0.1908	0	1	0.756
83	1	127	2	0.2378	0.1844	0	1	0.698
83	1	128	1	0.2336	0.1844	0	1	0.623
83	1	129	2	0.2336	0.1779	0	1	1.620
83	1	130	1	0.2294	0.1779	0	1	0.738
83	1	131	1	0.2254	0.1779	0	1	0.657
83	1	132	2	0.2254	0.1714	1	1	0.807
83	1	133	2	0.2254	0.1648	1	1	0.859
83	1	134	1	0.2214	0.1648	0	1	0.813
83	1	135	1	0.2174	0.1648	1	1	0.987
83	1	136	1	0.2134	0.1648	0	1	0.782
83	1	137	1	0.2094	0.1648	1	1	0.752
83	1	138	2	0.2094	0.1582	1	1	2.016
83	1	139	1	0.2055	0.1582	1	1	1.182
83	1	140	2	0.2055	0.1514	1	1	1.190
83	1	141	1	0.2015	0.1514	1	1	3.608
83	1	142	2	0.2015	0.1446	0	1	0.626
83	1	143	1	0.1975	0.1446	0	1	0.632
83	1	144	2	0.1975	0.1375	0	1	0.745
83	1	145	2	0.1975	0.1303	1	1	1.010
83	1	146	2	0.1975	0.1228	0	1	0.609
83	1	147	1	0.1935	0.1228	1	1	0.720
83	1	148	2	0.1935	0.1152	0	1	0.692
83	1	149	2	0.1935	0.1073	1	1	1.561
83	1	150	1	0.1894	0.1073	0	1	1.645
83	1	151	2	0.1894	0.0992	1	1	3.215
83	1	152	2	0.1894	0.0911	0	1	1.076
83	1	153	1	0.1854	0.0911	1	1	1.506
83	1	154	2	0.1854	0.0829	0	1	0.659
83	1	155	1	0.1812	0.0829	0	1	0.793
83	1	156	2	0.1812	0.0748	0	1	1.306
83	1	157	2	0.1812	0.0668	1	1	1.986
83	1	158	1	0.1770	0.0668	1	1	1.313
83	1	159	1	0.1728	0.0668	0	1	0.890
83	1	160	1	0.1683	0.0668	0	1	0.701
83	1	161	2	0.1683	0.0590	0	1	1.072
