sub	sess	t	rew	loc	cue	co1	co2	or	resp	rt	rew_tot	left_col	right_col
83	1	1	0	1	3	0.1531	0.0500	1	1	1.052	5	0	82
83	1	2	0	2	3	0.1531	0.0500	1	1	0.870	5	82	0
83	1	3	0	2	1	0.1531	0.0500	1	1	0.788	6	82	0
83	1	4	9	2	2	0.1531	0.0500	0	1	0.694	0	0	0
83	1	5	0	2	3	0.1531	0.0500	0	1	1.037	5	0	0
83	1	6	1	2	2	0.1531	0.0500	1	1	0.631	72	0	82
83	1	7	9	2	3	0.1531	0.0500	0	1	0.558	0	0	0
83	1	8	1	1	1	0.1531	0.0500	0	1	0.814	54	82	82
83	1	9	0	2	3	0.1531	0.0500	0	1	0.645	7	0	0
83	1	10	0	1	1	0.1531	0.0500	1	1	0.625	7	0	82
83	1	11	9	2	2	0.1531	0.0500	0	1	0.815	0	0	0
83	1	12	9	1	1	0.1531	0.0500	1	1	0.627	0	82	0
83	1	13	1	2	2	0.1531	0.0500	1	1	0.585	77	0	82
83	1	14	0	1	1	0.1531	0.0500	0	1	0.639	7	0	0
83	1	15	1	2	3	0.1531	0.0500	1	0	0.483	0	0	82
83	1	16	0	1	2	0.1531	0.0500	0	1	0.759	6	0	0
83	1	17	1	1	3	0.1531	0.0500	1	1	0.618	73	82	0
83	1	18	1	1	3	0.1531	0.0500	1	1	0.524	83	82	0
83	1	19	1	2	2	0.1531	0.0500	0	1	0.605	74	82	82
83	1	20	1	2	3	0.1531	0.0500	0	1	0.597	75	82	82
83	1	21	1	2	2	0.1531	0.0500	0	1	0.613	74	82	82
83	1	22	0	2	2	0.1531	0.0500	1	1	0.696	7	82	0
83	1	23	0	1	3	0.1531	0.0500	1	1	1.329	5	0	82
83	1	24	1	2	3	0.1531	0.0500	1	1	0.633	72	0	82
83	1	25	1	2	3	0.1531	0.0500	1	1	0.643	71	0	82
83	1	26	0	1	3	0.1531	0.0500	1	1	0.807	5	0	82
83	1	27	0	1	3	0.1531	0.0500	0	1	0.604	7	0	0
83	1	28	9	1	2	0.1531	0.0500	0	1	0.646	0	82	82
83	1	29	1	2	2	0.1531	0.0500	1	1	0.624	73	0	82
83	1	30	9	1	1	0.1531	0.0500	1	1	0.750	0	0	82
83	1	31	9	2	2	0.1531	0.0500	0	1	0.564	0	0	0
83	1	32	1	2	3	0.1531	0.0500	1	1	0.952	50	0	82
83	1	33	0	1	3	0.1531	0.0500	1	1	0.775	6	0	82
83	1	34	9	2	2	0.1531	0.0500	1	1	0.763	0	82	0
83	1	35	1	1	1	0.1531	0.0500	1	1	0.554	80	82	0
83	1	36	1	1	1	0.1531	0.0500	1	1	0.523	83	82	0
83	1	37	1	2	3	0.1531	0.0500	0	1	0.459	89	82	82
83	1	38	1	1	1	0.1531	0.0500	0	1	0.535	81	82	82
83	1	39	1	2	3	0.1531	0.0500	0	1	0.537	81	82	82
83	1	40	9	2	1	0.1531	0.0500	1	0	1.289	0	82	0
83	1	41	9	1	3	0.1531	0.0500	1	1	0.602	0	82	0
83	1	42	0	1	2	0.1531	0.0500	0	1	0.431	9	0	0
83	1	43	0	1	1	0.1531	0.0500	1	0	0.583	0	0	82
83	1	44	1	1	3	0.1531	0.0500	0	1	0.611	74	82	82
83	1	45	1	1	1	0.1531	0.0500	1	1	0.516	83	82	0
83	1	46	1	1	3	0.1531	0.0500	0	1	0.417	93	82	82
83	1	47	9	1	1	0.1531	0.0500	0	1	0.515	0	0	0
83	1	48	0	1	1	0.1531	0.0500	1	1	0.493	9	0	82
83	1	49	1	2	1	0.1531	0.0500	0	1	1.001	50	82	82
83	1	50	9	2	2	0.1531	0.0500	0	1	0.616	0	82	82
83	1	51	1	2	2	0.1531	0.0500	1	1	0.537	81	0	82
83	1	52	9	1	1	0.1531	0.0500	0	1	0.574	0	82	82
83	1	53	0	1	3	0.1531	0.0500	0	1	0.579	8	0	0
83	1	54	0	2	2	0.1531	0.0500	1	1	0.774	6	82	0
83	1	55	1	2	3	0.1531	0.0500	1	1	0.571	78	0	82
83	1	56	1	2	3	0.1531	0.0500	1	0	0.488	0	0	82
83	1	57	0	2	3	0.1531	0.0500	0	1	0.527	8	0	0
83	1	58	1	1	1	0.1531	0.0500	1	1	0.474	88	82	0
83	1	59	1	2	2	0.1531	0.0500	0	1	0.394	96	82	82
83	1	60	0	1	3	0.1531	0.0500	0	0	0.646	0	0	0
83	1	61	0	1	2	0.1531	0.0500	1	1	0.702	6	0	82
83	1	62	1	2	1	0.1531	0.0500	0	1	0.500	85	82	82
83	1	63	0	1	3	0.1531	0.0500	1	1	0.733	6	0	82
83	1	64	0	1	3	0.1531	0.0500	1	1	0.622	7	0	82
83	1	65	0	1	3	0.1531	0.0500	0	1	0.875	5	0	0
83	1	66	1	2	3	0.1531	0.0500	0	1	0.702	65	82	82
83	1	67	0	2	2	0.1531	0.0500	0	0	0.854	0	0	0
83	1	68	1	2	2	0.1531	0.0500	0	1	0.515	83	82	82
83	1	69	0	1	3	0.1531	0.0500	0	1	0.775	6	0	0
83	1	70	1	2	2	0.1531	0.0500	0	1	0.529	82	82	82
83	1	71	0	1	1	0.1531	0.0500	0	0	0.707	0	0	0
83	1	72	9	2	2	0.1531	0.0500	1	1	0.952	0	0	82
83	1	73	1	1	1	0.1531	0.0500	0	1	0.655	70	82	82
83	1	74	9	2	3	0.1531	0.0500	0	1	0.646	0	0	0
83	1	75	0	2	3	0.1531	0.0500	1	0	2.382	0	82	0
83	1	76	0	1	1	0.1531	0.0500	1	1	0.667	7	0	82
83	1	77	1	1	1	0.1531	0.0500	1	1	0.701	65	82	0
83	1	78	0	2	2	0.1531	0.0500	1	1	1.052	5	82	0
83	1	79	0	2	3	0.1531	0.0500	1	1	0.958	5	82	0
83	1	80	1	1	2	0.1531	0.0500	1	1	0.456	89	82	0
83	1	81	0	1	3	0.1531	0.0500	1	1	0.682	7	0	82
83	1	82	9	1	3	0.1531	0.0500	0	1	0.529	0	82	82
83	1	83	0	2	2	0.1531	0.0500	1	1	0.581	8	82	0
83	1	84	0	1	1	0.1531	0.0500	0	1	0.502	8	0	0
83	1	85	1	1	3	0.1531	0.0500	1	1	0.670	68	82	0
83	1	86	1	2	3	0.1531	0.0500	1	1	0.636	71	0	82
83	1	87	0	1	1	0.1531	0.0500	1	1	0.717	6	0	82
83	1	88	9	2	3	0.1531	0.0500	0	1	1.152	0	0	0
83	1	89	0	2	3	0.1531	0.0500	0	1	0.617	7	0	0
83	1	90	1	2	3	0.1531	0.0500	1	1	0.617	73	0	82
83	1	91	9	1	2	0.1531	0.0500	1	1	0.585	0	82	0
83	1	92	0	1	1	0.1531	0.0500	0	0	0.532	0	0	0
83	1	93	1	1	1	0.1531	0.0500	0	1	0.507	84	82	82
83	1	94	0	1	1	0.1531	0.0500	0	1	0.665	7	0	0
83	1	95	1	1	1	0.1531	0.0500	0	1	0.470	88	82	82
83	1	96	0	1	1	0.1531	0.0500	0	1	0.457	9	0	0
83	1	97	0	2	3	0.1531	0.0500	0	1	0.770	6	0	0
83	1	98	0	1	1	0.1531	0.0500	0	1	0.378	10	0	0
83	1	99	9	1	1	0.1531	0.0500	1	1	0.966	0	0	82
83	1	100	1	2	2	0.1531	0.0500	1	1	0.652	70	0	82
83	1	101	0	1	3	0.1531	0.0500	0	1	0.630	7	0	0
83	1	102	0	1	3	0.1531	0.0500	0	1	0.473	9	0	0
83	1	103	0	2	3	0.1531	0.0500	0	1	0.457	9	0	0
83	1	104	1	1	1	0.1531	0.0500	1	1	0.416	93	82	0
83	1	105	1	2	3	0.1531	0.0500	0	1	0.511	84	82	82
83	1	106	9	2	3	0.1531	0.0500	1	0	0.430	0	0	82
83	1	107	1	2	3	0.1531	0.0500	0	1	0.576	77	82	82
83	1	108	0	2	2	0.1531	0.0500	1	1	0.620	7	82	0
83	1	109	0	2	2	0.1531	0.0500	0	1	0.524	8	0	0
83	1	110	9	1	3	0.1531	0.0500	1	1	0.396	0	82	0
83	1	111	1	2	2	0.1531	0.0500	0	1	0.374	98	82	82
83	1	112	0	1	3	0.1531	0.0500	1	1	0.514	8	0	82
83	1	113	1	2	3	0.1531	0.0500	1	1	0.570	78	0	82
83	1	114	9	1	1	0.1531	0.0500	1	1	0.468	0	82	0
83	1	115	0	2	2	0.1531	0.0500	0	1	0.533	8	0	0
83	1	116	9	1	1	0.1531	0.0500	1	1	0.502	0	0	82
83	1	117	1	2	1	0.1531	0.0500	1	1	0.838	51	0	82
83	1	118	0	2	3	0.1531	0.0500	1	0	0.705	0	82	0
83	1	119	1	1	3	0.1531	0.0500	1	1	0.502	85	82	0
83	1	120	0	2	3	0.1531	0.0500	1	0	0.704	0	82	0
83	1	121	9	1	1	0.1531	0.0500	0	1	0.563	0	82	82
83	1	122	0	2	2	0.1531	0.0500	0	1	0.502	8	0	0
83	1	123	0	2	1	0.1531	0.0500	0	1	1.069	5	0	0
83	1	124	9	2	3	0.1531	0.0500	1	1	0.920	0	82	0
83	1	125	1	2	3	0.1531	0.0500	0	1	0.526	82	82	82
83	1	126	0	1	3	0.1531	0.0500	0	1	0.572	8	0	0
83	1	127	0	2	2	0.1531	0.0500	0	1	0.615	7	0	0
83	1	128	1	2	2	0.1531	0.0500	0	1	0.620	73	82	82
83	1	129	9	1	3	0.1531	0.0500	1	1	0.653	0	0	82
83	1	130	1	2	1	0.1531	0.0500	1	1	0.925	50	0	82
83	1	131	0	2	2	0.1531	0.0500	0	1	0.574	8	0	0
83	1	132	1	1	1	0.1531	0.0500	1	1	0.416	93	82	0
83	1	133	9	2	1	0.1531	0.0500	0	1	0.587	0	0	0
83	1	134	9	1	2	0.1531	0.0500	1	1	0.795	0	0	82
83	1	135	0	1	1	0.1531	0.0500	1	1	0.638	7	0	82
83	1	136	1	1	3	0.1531	0.0500	0	1	0.729	62	82	82
83	1	137	0	2	3	0.1531	0.0500	1	1	0.917	5	82	0
83	1	138	9	1	3	0.1531	0.0500	0	1	0.723	0	0	0
83	1	139	0	2	2	0.1531	0.0500	0	1	0.691	7	0	0
83	1	140	0	1	3	0.1531	0.0500	0	0	0.689	0	0	0
83	1	141	0	1	3	0.1531	0.0500	1	1	0.475	9	0	82
83	1	142	1	1	1	0.1531	0.0500	0	1	0.452	90	82	82
83	1	143	0	1	3	0.1531	0.0500	1	1	0.517	8	0	82
83	1	144	1	1	3	0.1531	0.0500	1	1	0.366	98	82	0
83	1	145	0	2	2	0.1531	0.0500	1	1	0.570	8	82	0
83	1	146	9	1	1	0.1531	0.0500	0	1	0.491	0	82	82
83	1	147	1	1	3	0.1531	0.0500	0	1	0.528	82	82	82
83	1	148	1	2	3	0.1531	0.0500	0	0	0.690	0	82	82
83	1	149	9	2	1	0.1531	0.0500	0	0	0.596	0	82	82
83	1	150	1	1	1	0.1531	0.0500	0	1	0.530	82	82	82
83	1	151	9	1	3	0.1531	0.0500	0	1	0.422	0	82	82
83	1	152	1	2	2	0.1531	0.0500	1	1	0.587	76	0	82
83	1	153	1	1	1	0.1531	0.0500	1	1	0.543	81	82	0
83	1	154	9	2	2	0.1531	0.0500	1	1	0.674	0	82	0
83	1	155	1	1	3	0.1531	0.0500	1	1	0.565	78	82	0
83	1	156	1	2	2	0.1531	0.0500	1	1	0.460	89	0	82
83	1	157	9	1	3	0.1531	0.0500	0	1	0.490	0	0	0
83	1	158	9	2	3	0.1531	0.0500	1	0	0.732	0	82	0
83	1	159	1	2	2	0.1531	0.0500	1	1	0.568	78	0	82
83	1	160	9	1	1	0.1531	0.0500	1	1	0.569	0	82	0
83	1	161	1	1	1	0.1531	0.0500	1	1	0.473	88	82	0
83	1	162	9	2	2	0.1531	0.0500	1	1	0.541	0	0	82
83	1	163	9	2	3	0.1531	0.0500	0	1	0.803	0	82	82
83	1	164	0	1	2	0.1531	0.0500	1	1	0.586	8	0	82
83	1	165	1	1	3	0.1531	0.0500	1	1	0.408	94	82	0
83	1	166	0	2	1	0.1531	0.0500	1	1	0.718	6	82	0
83	1	167	0	1	1	0.1531	0.0500	0	1	0.502	8	0	0
83	1	168	0	2	2	0.1531	0.0500	1	1	0.574	8	82	0
83	1	169	0	2	1	0.1531	0.0500	0	1	0.459	9	0	0
83	1	170	1	2	3	0.1531	0.0500	1	1	0.565	79	0	82
83	1	171	0	1	3	0.1531	0.0500	0	1	0.531	8	0	0
83	1	172	0	2	1	0.1531	0.0500	1	1	0.632	7	82	0
83	1	173	0	2	3	0.1531	0.0500	1	1	0.617	7	82	0
83	1	174	0	1	1	0.1531	0.0500	0	1	0.564	8	0	0
83	1	175	1	2	2	0.1531	0.0500	1	1	0.550	80	0	82
83	1	176	1	1	3	0.1531	0.0500	1	1	0.488	86	82	0
83	1	177	0	2	3	0.1531	0.0500	0	1	0.690	7	0	0
83	1	178	1	1	3	0.1531	0.0500	0	1	0.540	81	82	82
83	1	179	1	1	2	0.1531	0.0500	1	1	0.496	85	82	0
83	1	180	0	1	1	0.1531	0.0500	1	1	0.501	8	0	82
83	1	181	0	2	2	0.1531	0.0500	0	1	0.442	9	0	0
83	1	182	9	1	1	0.1531	0.0500	1	1	0.308	0	82	0
83	1	183	1	1	3	0.1531	0.0500	0	0	0.517	0	82	82
83	1	184	0	2	3	0.1531	0.0500	0	1	0.542	8	0	0
83	1	185	0	2	3	0.1531	0.0500	1	1	0.711	6	82	0
83	1	186	1	2	1	0.1531	0.0500	1	1	0.483	87	0	82
83	1	187	0	1	1	0.1531	0.0500	1	1	0.677	7	0	82
83	1	188	1	2	3	0.1531	0.0500	0	1	0.438	91	82	82
83	1	189	1	1	3	0.1531	0.0500	0	1	0.486	86	82	82
83	1	190	0	2	3	0.1531	0.0500	1	0	0.894	0	82	0
83	1	191	9	2	2	0.1531	0.0500	1	0	0.891	0	82	0
83	1	192	0	2	3	0.1531	0.0500	1	1	0.658	7	82	0
83	1	193	1	2	3	0.1531	0.0500	0	1	0.536	81	82	82
83	1	194	1	1	3	0.1531	0.0500	1	1	0.584	77	82	0
83	1	195	9	2	2	0.1531	0.0500	1	1	0.612	0	0	82
83	1	196	1	2	3	0.1531	0.0500	1	1	0.560	79	0	82
83	1	197	1	1	1	0.1531	0.0500	0	1	0.611	74	82	82
83	1	198	0	2	3	0.1531	0.0500	1	1	0.675	7	82	0
83	1	199	1	1	3	0.1531	0.0500	1	1	0.589	76	82	0
83	1	200	1	1	3	0.1531	0.0500	1	1	0.542	81	82	0
83	1	201	1	2	1	0.1531	0.0500	0	1	0.657	69	82	82
83	1	202	0	2	3	0.1531	0.0500	1	1	0.580	8	82	0
83	1	203	0	1	3	0.1531	0.0500	1	1	0.544	8	0	82
83	1	204	0	1	3	0.1531	0.0500	1	1	0.459	9	0	82
83	1	205	0	1	1	0.1531	0.0500	1	1	0.550	8	0	82
83	1	206	1	1	2	0.1531	0.0500	1	1	0.454	90	82	0
83	1	207	0	1	3	0.1531	0.0500	0	1	0.631	7	0	0
83	1	208	9	2	2	0.1531	0.0500	0	1	0.419	0	82	82
83	1	209	9	1	3	0.1531	0.0500	1	1	0.581	0	0	82
83	1	210	1	1	2	0.1531	0.0500	0	1	0.550	80	82	82
83	1	211	1	1	3	0.1531	0.0500	0	1	0.358	99	82	82
83	1	212	1	2	2	0.1531	0.0500	1	0	0.479	0	0	82
83	1	213	1	1	3	0.1531	0.0500	0	1	0.421	93	82	82
83	1	214	1	2	3	0.1531	0.0500	1	1	0.521	83	0	82
83	1	215	9	2	2	0.1531	0.0500	1	1	0.964	0	82	0
83	1	216	1	2	3	0.1531	0.0500	1	0	0.685	0	0	82
83	1	217	0	1	3	0.1531	0.0500	0	1	0.654	7	0	0
83	1	218	0	1	2	0.1531	0.0500	1	1	0.515	8	0	82
83	1	219	0	1	3	0.1531	0.0500	1	1	0.530	8	0	82
83	1	220	1	1	3	0.1531	0.0500	1	1	0.483	87	82	0
83	1	221	9	1	3	0.1531	0.0500	0	1	0.471	0	82	82
83	1	222	1	1	3	0.1531	0.0500	0	1	0.381	97	82	82
83	1	223	1	1	1	0.1531	0.0500	1	1	0.572	78	82	0
83	1	224	0	1	3	0.1531	0.0500	0	1	0.545	8	0	0
83	1	225	0	2	3	0.1531	0.0500	1	1	0.747	6	82	0
83	1	226	0	2	1	0.1531	0.0500	0	1	0.913	5	0	0
83	1	227	0	2	2	0.1531	0.0500	1	1	0.607	7	82	0
83	1	228	1	2	2	0.1531	0.0500	0	1	0.657	69	82	82
83	1	229	0	2	2	0.1531	0.0500	0	1	0.482	9	0	0
83	1	230	1	2	2	0.1531	0.0500	0	1	0.646	70	82	82
83	1	231	9	1	3	0.1531	0.0500	0	0	0.633	0	0	0
83	1	232	1	1	1	0.1531	0.0500	1	1	0.575	77	82	0
83	1	233	1	1	2	0.1531	0.0500	0	1	0.567	78	82	82
83	1	234	9	1	1	0.1531	0.0500	1	1	0.648	0	0	82
83	1	235	9	2	3	0.1531	0.0500	0	1	0.509	0	82	82
83	1	236	0	2	3	0.1531	0.0500	1	1	0.608	7	82	0
83	1	237	0	2	2	0.1531	0.0500	1	0	0.415	0	82	0
83	1	238	1	1	1	0.1531	0.0500	1	1	0.392	96	82	0
83	1	239	1	2	3	0.1531	0.0500	0	1	0.686	66	82	82
83	1	240	1	2	3	0.1531	0.0500	1	1	0.689	66	0	82
83	1	241	1	1	1	0.1531	0.0500	1	1	0.429	92	82	0
83	1	242	1	2	2	0.1531	0.0500	1	1	0.524	83	0	82
83	1	243	1	2	2	0.1531	0.0500	1	1	0.742	61	0	82
83	1	244	9	1	3	0.1531	0.0500	0	0	0.382	0	82	82
83	1	245	1	2	2	0.1531	0.0500	1	0	0.620	0	0	82
83	1	246	1	2	3	0.1531	0.0500	0	1	0.520	83	82	82
83	1	247	0	2	2	0.1531	0.0500	0	1	0.510	8	0	0
83	1	248	1	1	1	0.1531	0.0500	0	0	0.362	0	82	82
83	1	249	9	2	3	0.1531	0.0500	0	1	0.641	0	82	82
83	1	250	9	2	2	0.1531	0.0500	0	1	0.580	0	0	0
83	1	251	9	1	3	0.1531	0.0500	1	1	0.645	0	82	0
83	1	252	0	2	2	0.1531	0.0500	0	1	0.550	8	0	0
83	1	253	0	2	2	0.1531	0.0500	0	1	0.431	9	0	0
83	1	254	9	2	3	0.1531	0.0500	1	1	0.581	0	0	82
83	1	255	9	1	1	0.1531	0.0500	0	1	0.608	0	0	0
83	1	256	9	1	3	0.1531	0.0500	1	0	0.646	0	0	82
83	1	257	9	1	3	0.1531	0.0500	0	1	0.539	0	0	0
83	1	258	1	1	3	0.1531	0.0500	0	1	0.516	83	82	82
83	1	259	0	1	2	0.1531	0.0500	1	1	0.519	8	0	82
83	1	260	1	1	1	0.1531	0.0500	1	1	0.404	95	82	0
83	1	261	0	2	2	0.1531	0.0500	1	0	0.897	0	82	0
83	1	262	0	1	1	0.1531	0.0500	1	1	0.552	8	0	82
83	1	263	1	2	2	0.1531	0.0500	0	1	0.507	84	82	82
83	1	264	0	2	3	0.1531	0.0500	0	1	0.574	8	0	0
83	1	265	0	1	1	0.1531	0.0500	1	1	0.573	8	0	82
83	1	266	0	1	1	0.1531	0.0500	1	1	0.596	8	0	82
83	1	267	0	2	3	0.1531	0.0500	0	1	0.661	7	0	0
83	1	268	0	1	1	0.1531	0.0500	1	1	0.389	10	0	82
83	1	269	0	1	1	0.1531	0.0500	0	1	0.670	7	0	0
83	1	270	1	1	3	0.1531	0.0500	0	1	0.407	94	82	82
83	1	271	1	2	2	0.1531	0.0500	0	1	0.461	89	82	82
83	1	272	0	1	3	0.1531	0.0500	1	1	0.450	9	0	82
83	1	273	1	2	2	0.1531	0.0500	0	1	1.157	50	82	82
83	1	274	1	1	1	0.1531	0.0500	0	0	0.428	0	82	82
83	1	275	1	2	3	0.1531	0.0500	0	1	0.484	87	82	82
83	1	276	0	1	1	0.1531	0.0500	0	1	0.447	9	0	0
83	1	277	1	2	3	0.1531	0.0500	0	1	0.510	84	82	82
83	1	278	0	2	2	0.1531	0.0500	0	1	0.464	9	0	0
83	1	279	0	1	2	0.1531	0.0500	0	1	0.491	9	0	0
83	1	280	0	2	3	0.1531	0.0500	1	1	0.777	6	82	0
83	1	281	1	1	2	0.1531	0.0500	1	1	0.581	77	82	0
83	1	282	1	1	1	0.1531	0.0500	1	1	0.342	100	82	0
83	1	283	1	1	3	0.1531	0.0500	1	1	0.338	100	82	0
83	1	284	9	2	3	0.1531	0.0500	0	1	0.397	0	0	0
83	1	285	0	1	1	0.1531	0.0500	1	1	0.415	9	0	82
83	1	286	9	2	1	0.1531	0.0500	1	1	0.397	0	0	82
83	1	287	0	2	2	0.1531	0.0500	0	1	0.670	7	0	0
83	1	288	1	2	2	0.1531	0.0500	1	1	0.564	79	0	82
83	1	289	0	1	3	0.1531	0.0500	0	1	0.376	10	0	0
83	1	290	9	2	2	0.1531	0.0500	0	1	0.451	0	82	82
83	1	291	1	2	2	0.1531	0.0500	1	1	0.490	86	0	82
83	1	292	1	1	3	0.1531	0.0500	1	1	0.526	82	82	0
83	1	293	0	1	1	0.1531	0.0500	1	1	0.525	8	0	82
83	1	294	0	1	1	0.1531	0.0500	0	1	0.525	8	0	0
83	1	295	0	2	2	0.1531	0.0500	1	1	0.675	7	82	0
83	1	296	0	1	2	0.1531	0.0500	0	1	0.555	8	0	0
83	1	297	0	2	3	0.1531	0.0500	0	1	0.737	6	0	0
83	1	298	9	1	1	0.1531	0.0500	0	1	0.466	0	0	0
83	1	299	9	2	2	0.1531	0.0500	1	1	0.549	0	0	82
83	1	300	9	2	3	0.1531	0.0500	1	1	0.657	0	0	82
83	1	301	1	2	2	0.1531	0.0500	0	1	0.371	98	82	82
83	1	302	1	2	2	0.1531	0.0500	0	1	0.410	94	82	82
83	1	303	1	2	3	0.1531	0.0500	0	1	0.435	92	82	82
83	1	304	1	1	1	0.1531	0.0500	0	1	0.423	93	82	82
83	1	305	9	1	1	0.1531	0.0500	0	1	0.338	0	82	82
83	1	306	1	1	1	0.1531	0.0500	0	1	0.361	99	82	82
83	1	307	0	1	1	0.1531	0.0500	0	1	0.330	10	0	0
83	1	308	1	2	3	0.1531	0.0500	1	1	0.484	87	0	82
83	1	309	0	1	3	0.1531	0.0500	1	1	0.422	9	0	82
83	1	310	9	2	3	0.1531	0.0500	1	1	0.884	0	82	0
83	1	311	1	2	3	0.1531	0.0500	0	1	1.052	50	82	82
83	1	312	1	1	1	0.1531	0.0500	0	1	0.373	98	82	82
83	1	313	1	1	1	0.1531	0.0500	0	1	0.396	95	82	82
83	1	314	9	1	1	0.1531	0.0500	0	1	0.384	0	0	0
83	1	315	0	1	3	0.1531	0.0500	0	1	0.408	9	0	0
83	1	316	1	1	2	0.1531	0.0500	0	1	0.347	100	82	82
83	1	317	1	1	1	0.1531	0.0500	0	1	0.344	100	82	82
83	1	318	1	1	2	0.1531	0.0500	0	1	0.330	100	82	82
83	1	319	1	1	1	0.1531	0.0500	1	0	0.286	0	82	0
83	1	320	9	1	3	0.1531	0.0500	1	1	0.732	0	0	82
83	1	321	1	2	3	0.1531	0.0500	1	1	0.449	90	0	82
83	1	322	0	1	1	0.1531	0.0500	1	1	0.515	8	0	82
83	1	323	0	1	1	0.1531	0.0500	0	1	0.423	9	0	0
83	1	324	0	2	2	0.1531	0.0500	0	1	0.427	9	0	0
83	1	325	0	1	3	0.1531	0.0500	1	1	0.551	8	0	82
83	1	326	1	1	3	0.1531	0.0500	1	1	0.448	90	82	0
83	1	327	0	2	1	0.1531	0.0500	0	1	0.609	7	0	0
83	1	328	0	1	1	0.1531	0.0500	0	1	0.424	9	0	0
83	1	329	0	2	3	0.1531	0.0500	1	1	0.836	5	82	0
83	1	330	0	1	1	0.1531	0.0500	0	1	0.399	10	0	0
83	1	331	1	1	3	0.1531	0.0500	0	1	0.339	100	82	82
83	1	332	0	2	2	0.1531	0.0500	1	1	0.492	9	82	0
83	1	333	0	2	3	0.1531	0.0500	0	1	0.436	9	0	0
83	1	334	9	1	3	0.1531	0.0500	1	1	0.505	0	82	0
83	1	335	9	2	3	0.1531	0.0500	0	0	0.795	0	82	82
83	1	336	9	2	3	0.1531	0.0500	1	1	0.590	0	82	0
83	1	337	0	1	3	0.1531	0.0500	0	1	0.619	7	0	0
83	1	338	1	1	1	0.1531	0.0500	0	1	0.377	97	82	82
83	1	339	0	2	2	0.1531	0.0500	0	1	0.504	8	0	0
83	1	340	1	2	2	0.1531	0.0500	0	1	0.379	97	82	82
83	1	341	1	1	3	0.1531	0.0500	0	1	0.428	92	82	82
83	1	342	0	2	2	0.1531	0.0500	1	1	0.497	9	82	0
83	1	343	1	1	3	0.1531	0.0500	0	0	0.422	0	82	82
83	1	344	0	2	3	0.1531	0.0500	0	1	0.419	9	0	0
83	1	345	1	2	2	0.1531	0.0500	1	1	0.523	83	0	82
83	1	346	0	2	2	0.1531	0.0500	1	0	0.294	0	82	0
83	1	347	0	2	2	0.1531	0.0500	1	1	0.536	8	82	0
83	1	348	0	2	3	0.1531	0.0500	0	1	0.556	8	0	0
83	1	349	9	1	2	0.1531	0.0500	0	1	0.551	0	0	0
83	1	350	9	2	3	0.1531	0.0500	1	1	0.523	0	0	82
83	1	351	0	2	1	0.1531	0.0500	1	0	1.274	0	82	0
83	1	352	1	1	3	0.1531	0.0500	0	1	0.466	88	82	82
83	1	353	1	2	1	0.1531	0.0500	0	1	0.681	67	82	82
83	1	354	0	2	3	0.1531	0.0500	0	1	0.423	9	0	0
83	1	355	1	2	2	0.1531	0.0500	0	1	0.409	94	82	82
83	1	356	9	2	2	0.1531	0.0500	0	1	0.350	0	82	82
83	1	357	1	2	1	0.1531	0.0500	1	1	0.635	71	0	82
83	1	358	0	2	3	0.1531	0.0500	0	1	0.404	9	0	0
83	1	359	1	1	3	0.1531	0.0500	1	1	0.807	54	82	0
83	1	360	0	2	2	0.1531	0.0500	1	0	0.429	0	82	0
83	1	361	0	2	2	0.1531	0.0500	0	1	0.354	10	0	0
83	1	362	1	2	2	0.1531	0.0500	0	1	0.420	93	82	82
83	1	363	0	1	1	0.1531	0.0500	1	1	0.494	9	0	82
83	1	364	9	2	2	0.1531	0.0500	0	1	0.438	0	0	0
83	1	365	0	2	2	0.1531	0.0500	0	1	0.411	9	0	0
83	1	366	0	2	3	0.1531	0.0500	0	1	0.432	9	0	0
83	1	367	0	1	1	0.1531	0.0500	1	1	0.590	8	0	82
83	1	368	1	2	3	0.1531	0.0500	0	1	0.646	70	82	82
83	1	369	1	1	3	0.1531	0.0500	1	1	0.483	87	82	0
83	1	370	0	2	1	0.1531	0.0500	1	1	0.748	6	82	0
83	1	371	1	1	2	0.1531	0.0500	0	1	0.359	99	82	82
83	1	372	1	2	3	0.1531	0.0500	1	1	0.362	99	0	82
83	1	373	1	2	3	0.1531	0.0500	0	1	0.394	96	82	82
83	1	374	0	1	3	0.1531	0.0500	0	1	0.608	7	0	0
83	1	375	1	2	2	0.1531	0.0500	1	1	0.400	95	0	82
83	1	376	9	1	3	0.1531	0.0500	1	1	0.570	0	0	82
83	1	377	0	1	3	0.1531	0.0500	0	1	0.512	8	0	0
83	1	378	1	2	3	0.1531	0.0500	0	1	0.429	92	82	82
83	1	379	0	1	3	0.1531	0.0500	1	1	0.431	9	0	82
83	1	380	9	2	2	0.1531	0.0500	0	1	0.585	0	82	82
83	1	381	1	1	3	0.1531	0.0500	1	1	0.434	92	82	0
83	1	382	1	2	3	0.1531	0.0500	1	1	0.365	98	0	82
83	1	383	0	1	1	0.1531	0.0500	1	0	0.444	0	0	82
83	1	384	0	1	2	0.1531	0.0500	1	1	0.503	8	0	82
83	1	385	1	1	3	0.1531	0.0500	1	1	0.362	99	82	0
83	1	386	0	1	3	0.1531	0.0500	1	1	0.435	9	0	82
83	1	387	0	1	3	0.1531	0.0500	0	1	0.548	8	0	0
83	1	388	0	2	2	0.1531	0.0500	1	1	0.498	9	82	0
83	1	389	9	1	1	0.1531	0.0500	0	1	0.491	0	0	0
83	1	390	1	1	2	0.1531	0.0500	0	1	0.643	71	82	82
83	1	391	0	1	1	0.1531	0.0500	0	1	0.416	9	0	0
83	1	392	0	2	3	0.1531	0.0500	0	1	0.694	7	0	0
83	1	393	0	1	1	0.1531	0.0500	0	1	0.451	9	0	0
83	1	394	0	1	1	0.1531	0.0500	0	1	0.376	10	0	0
83	1	395	1	1	1	0.1531	0.0500	0	1	0.323	100	82	82
83	1	396	0	1	3	0.1531	0.0500	1	1	0.736	6	0	82
83	1	397	1	2	2	0.1531	0.0500	1	1	0.426	92	0	82
83	1	398	0	1	1	0.1531	0.0500	0	1	0.444	9	0	0
83	1	399	0	1	1	0.1531	0.0500	0	1	0.382	10	0	0
83	1	400	1	1	3	0.1531	0.0500	0	0	0.456	0	82	82
83	1	401	9	1	1	0.1531	0.0500	1	1	0.452	0	0	82
83	1	402	0	1	3	0.1531	0.0500	0	0	0.465	0	0	0
83	1	403	9	2	2	0.1531	0.0500	1	1	0.720	0	82	0
83	1	404	1	2	1	0.1531	0.0500	0	1	0.837	51	82	82
83	1	405	0	1	3	0.1531	0.0500	0	1	0.419	9	0	0
83	1	406	0	2	2	0.1531	0.0500	1	1	0.515	8	82	0
83	1	407	1	2	3	0.1531	0.0500	1	1	0.384	97	0	82
83	1	408	0	1	1	0.1531	0.0500	1	1	0.630	7	0	82
83	1	409	1	2	3	0.1531	0.0500	0	1	0.425	92	82	82
83	1	410	9	1	3	0.1531	0.0500	0	1	0.448	0	82	82
83	1	411	0	2	2	0.1531	0.0500	1	1	0.603	7	82	0
83	1	412	0	2	2	0.1531	0.0500	1	1	0.630	7	82	0
83	1	413	9	1	1	0.1531	0.0500	1	1	0.490	0	0	82
83	1	414	0	2	1	0.1531	0.0500	0	1	0.680	7	0	0
83	1	415	0	2	3	0.1531	0.0500	0	1	0.579	8	0	0
83	1	416	0	2	1	0.1531	0.0500	1	1	0.546	8	82	0
83	1	417	1	1	1	0.1531	0.0500	1	1	0.343	100	82	0
83	1	418	1	2	2	0.1531	0.0500	1	1	0.522	83	0	82
83	1	419	1	2	3	0.1531	0.0500	0	0	0.441	0	82	82
83	1	420	9	1	3	0.1531	0.0500	1	1	0.459	0	82	0
83	1	421	9	1	2	0.1531	0.0500	0	0	0.376	0	82	82
83	1	422	1	2	3	0.1531	0.0500	0	1	0.632	72	82	82
83	1	423	1	2	2	0.1531	0.0500	0	1	0.365	98	82	82
83	1	424	0	2	2	0.1531	0.0500	1	1	0.478	9	82	0
83	1	425	0	2	2	0.1531	0.0500	0	1	0.398	10	0	0
83	1	426	1	1	1	0.1531	0.0500	0	0	0.424	0	82	82
83	1	427	0	1	1	0.1531	0.0500	0	1	0.363	10	0	0
83	1	428	0	1	2	0.1531	0.0500	1	1	0.839	5	0	82
83	1	429	1	2	2	0.1531	0.0500	0	1	0.594	76	82	82
83	1	430	1	2	3	0.1531	0.0500	1	1	0.560	79	0	82
83	1	431	9	2	2	0.1531	0.0500	0	1	0.604	0	0	0
83	1	432	1	2	3	0.1531	0.0500	1	1	0.441	91	0	82
83	1	433	9	1	3	0.1531	0.0500	1	1	0.568	0	0	82
83	1	434	9	1	3	0.1531	0.0500	1	1	0.446	0	82	0
83	1	435	0	2	3	0.1531	0.0500	1	0	0.554	0	82	0
83	1	436	9	2	2	0.1531	0.0500	0	1	0.575	0	82	82
83	1	437	0	2	3	0.1531	0.0500	0	1	0.491	9	0	0
83	1	438	0	1	1	0.1531	0.0500	1	1	0.652	7	0	82
83	1	439	0	2	2	0.1531	0.0500	0	1	0.347	10	0	0
83	1	440	0	2	3	0.1531	0.0500	1	1	0.589	8	82	0
83	1	441	1	1	1	0.1531	0.0500	0	1	0.542	81	82	82
83	1	442	1	1	2	0.1531	0.0500	0	1	0.428	92	82	82
83	1	443	0	2	2	0.1531	0.0500	1	1	0.516	8	82	0
83	1	444	0	1	2	0.1531	0.0500	0	1	0.410	9	0	0
83	1	445	0	1	1	0.1531	0.0500	0	1	0.425	9	0	0
83	1	446	0	2	3	0.1531	0.0500	1	1	0.519	8	82	0
83	1	447	1	1	3	0.1531	0.0500	1	1	0.574	78	82	0
83	1	448	0	1	3	0.1531	0.0500	1	1	0.705	6	0	82
83	1	449	1	2	2	0.1531	0.0500	1	0	0.481	0	0	82
83	1	450	0	2	3	0.1531	0.0500	0	1	0.619	7	0	0
83	1	451	0	2	3	0.1531	0.0500	0	1	0.488	9	0	0
83	1	452	1	1	2	0.1531	0.0500	1	1	0.500	85	82	0
83	1	453	0	1	3	0.1531	0.0500	1	1	0.545	8	0	82
83	1	454	0	1	3	0.1531	0.0500	1	1	0.465	9	0	82
83	1	455	0	1	1	0.1531	0.0500	0	1	0.521	8	0	0
83	1	456	0	1	3	0.1531	0.0500	0	1	0.438	9	0	0
83	1	457	0	2	3	0.1531	0.0500	0	1	0.454	9	0	0
83	1	458	9	1	1	0.1531	0.0500	1	1	0.558	0	0	82
83	1	459	9	1	1	0.1531	0.0500	1	1	0.538	0	82	0
83	1	460	9	2	3	0.1531	0.0500	1	1	0.499	0	0	82
83	1	461	1	1	1	0.1531	0.0500	0	1	0.482	87	82	82
83	1	462	9	1	1	0.1531	0.0500	1	1	0.507	0	0	82
83	1	463	9	1	1	0.1531	0.0500	0	1	0.578	0	0	0
83	1	464	1	1	3	0.1531	0.0500	0	1	0.546	80	82	82
83	1	465	9	1	3	0.1531	0.0500	0	1	0.448	0	82	82
83	1	466	0	1	3	0.1531	0.0500	1	1	0.514	8	0	82
83	1	467	1	1	1	0.1531	0.0500	0	1	0.339	100	82	82
83	1	468	0	1	3	0.1531	0.0500	1	1	0.584	8	0	82
83	1	469	1	1	3	0.1531	0.0500	1	1	0.413	94	82	0
83	1	470	1	2	2	0.1531	0.0500	1	1	0.398	95	0	82
83	1	471	0	1	1	0.1531	0.0500	1	1	0.519	8	0	82
83	1	472	0	1	3	0.1531	0.0500	0	1	0.408	9	0	0
83	1	473	9	2	2	0.1531	0.0500	1	1	0.816	0	0	82
83	1	474	0	2	3	0.1531	0.0500	1	1	0.631	7	82	0
83	1	475	0	1	3	0.1531	0.0500	1	1	0.459	9	0	82
83	1	476	9	2	3	0.1531	0.0500	0	1	0.678	0	0	0
83	1	477	0	1	3	0.1531	0.0500	0	1	0.456	9	0	0
83	1	478	0	1	1	0.1531	0.0500	0	1	0.386	10	0	0
83	1	479	0	1	3	0.1531	0.0500	1	1	0.647	7	0	82
83	1	480	0	1	3	0.1531	0.0500	1	1	0.417	9	0	82
83	1	481	1	1	3	0.1531	0.0500	1	1	0.406	94	82	0
83	1	482	0	2	2	0.1531	0.0500	0	1	0.385	10	0	0
83	1	483	0	1	1	0.1531	0.0500	0	0	0.336	0	0	0
83	1	484	1	1	1	0.1531	0.0500	0	1	0.306	100	82	82
83	1	485	9	1	3	0.1531	0.0500	0	1	0.399	0	0	0
83	1	486	0	2	2	0.1531	0.0500	0	1	0.401	9	0	0
83	1	487	0	2	2	0.1531	0.0500	0	1	0.542	8	0	0
83	1	488	0	1	1	0.1531	0.0500	1	1	0.582	8	0	82
83	1	489	0	2	2	0.1531	0.0500	1	1	0.520	8	82	0
83	1	490	0	2	3	0.1531	0.0500	0	0	0.492	0	0	0
83	1	491	0	1	1	0.1531	0.0500	1	1	0.468	9	0	82
83	1	492	0	1	1	0.1531	0.0500	0	1	0.568	8	0	0
83	1	493	9	1	2	0.1531	0.0500	1	1	0.446	0	82	0
83	1	494	1	2	2	0.1531	0.0500	0	1	0.578	77	82	82
83	1	495	1	2	1	0.1531	0.0500	0	1	0.416	93	82	82
83	1	496	0	2	2	0.1531	0.0500	0	1	0.406	9	0	0
83	1	497	1	2	3	0.1531	0.0500	0	1	0.344	100	82	82
83	1	498	0	1	2	0.1531	0.0500	0	1	0.489	9	0	0
83	1	499	9	1	2	0.1531	0.0500	0	1	0.359	0	0	0
83	1	500	9	2	2	0.1531	0.0500	1	1	0.660	0	82	0
83	1	501	0	2	2	0.1531	0.0500	1	0	0.436	0	82	0
83	1	502	1	2	3	0.1531	0.0500	0	1	0.484	87	82	82
83	1	503	0	2	3	0.1531	0.0500	0	1	0.450	9	0	0
83	1	504	1	1	3	0.1531	0.0500	1	1	0.418	93	82	0
83	1	505	1	2	3	0.1531	0.0500	1	1	0.411	94	0	82
83	1	506	0	2	2	0.1531	0.0500	0	1	0.358	10	0	0
83	1	507	0	2	1	0.1531	0.0500	0	1	0.451	9	0	0
83	1	508	1	2	2	0.1531	0.0500	0	1	0.361	99	82	82
83	1	509	9	1	1	0.1531	0.0500	0	1	0.459	0	0	0
83	1	510	1	2	3	0.1531	0.0500	1	1	0.445	91	0	82
83	1	511	0	2	1	0.1531	0.0500	0	1	0.423	9	0	0
83	1	512	1	1	3	0.1531	0.0500	1	1	0.407	94	82	0
83	1	513	1	1	2	0.1531	0.0500	1	1	0.461	89	82	0
83	1	514	1	1	3	0.1531	0.0500	1	1	0.468	88	82	0
83	1	515	0	1	3	0.1531	0.0500	1	1	0.515	8	0	82
83	1	516	0	2	2	0.1531	0.0500	0	0	0.536	0	0	0
83	1	517	0	2	2	0.1531	0.0500	0	1	0.397	10	0	0
83	1	518	1	2	3	0.1531	0.0500	1	1	0.496	85	0	82
83	1	519	1	1	1	0.1531	0.0500	1	1	0.357	99	82	0
83	1	520	1	2	2	0.1531	0.0500	1	1	0.462	89	0	82
83	1	521	0	1	2	0.1531	0.0500	1	1	0.728	6	0	82
83	1	522	1	1	1	0.1531	0.0500	1	1	0.350	100	82	0
83	1	523	1	1	2	0.1531	0.0500	1	1	0.407	94	82	0
83	1	524	0	2	2	0.1531	0.0500	1	1	0.488	9	82	0
83	1	525	1	2	3	0.1531	0.0500	1	1	0.640	71	0	82
83	1	526	9	1	3	0.1531	0.0500	1	1	0.467	0	0	82
83	1	527	0	2	1	0.1531	0.0500	1	1	0.550	8	82	0
83	1	528	1	2	3	0.1531	0.0500	0	0	0.509	0	82	82
83	1	529	0	1	1	0.1531	0.0500	1	1	0.517	8	0	82
83	1	530	9	1	3	0.1531	0.0500	1	1	0.525	0	0	82
83	1	531	1	1	1	0.1531	0.0500	0	1	0.420	93	82	82
83	1	532	1	2	3	0.1531	0.0500	0	1	0.443	91	82	82
83	1	533	0	1	3	0.1531	0.0500	1	1	0.402	9	0	82
83	1	534	0	2	3	0.1531	0.0500	1	1	0.524	8	82	0
83	1	535	0	2	3	0.1531	0.0500	1	1	0.542	8	82	0
83	1	536	1	2	3	0.1531	0.0500	0	1	0.471	88	82	82
83	1	537	1	1	1	0.1531	0.0500	1	1	0.593	76	82	0
83	1	538	0	2	3	0.1531	0.0500	1	1	0.693	7	82	0
83	1	539	9	1	1	0.1531	0.0500	1	1	0.424	0	82	0
83	1	540	1	2	2	0.1531	0.0500	0	1	0.529	82	82	82
83	1	541	0	2	2	0.1531	0.0500	1	1	0.503	8	82	0
83	1	542	1	1	1	0.1531	0.0500	0	1	0.634	72	82	82
83	1	543	9	2	3	0.1531	0.0500	1	1	0.533	0	82	0
83	1	544	1	1	3	0.1531	0.0500	0	1	0.340	100	82	82
83	1	545	9	2	3	0.1531	0.0500	0	1	0.634	0	82	82
83	1	546	0	2	3	0.1531	0.0500	1	1	0.488	9	82	0
83	1	547	9	1	1	0.1531	0.0500	0	1	0.336	0	82	82
83	1	548	1	2	3	0.1531	0.0500	1	1	0.439	91	0	82
83	1	549	9	2	3	0.1531	0.0500	1	1	0.394	0	0	82
83	1	550	9	1	1	0.1531	0.0500	0	1	0.290	0	0	0
83	1	551	0	2	3	0.1531	0.0500	0	0	0.440	0	0	0
83	1	552	1	1	3	0.1531	0.0500	0	1	0.330	100	82	82
83	1	553	1	1	3	0.1531	0.0500	0	1	0.404	95	82	82
83	1	554	9	1	3	0.1531	0.0500	0	1	0.343	0	0	0
83	1	555	0	2	2	0.1531	0.0500	1	0	0.396	0	82	0
83	1	556	9	2	2	0.1531	0.0500	1	0	0.724	0	82	0
83	1	557	1	1	1	0.1531	0.0500	1	1	0.430	92	82	0
83	1	558	0	2	3	0.1531	0.0500	1	1	0.535	8	82	0
83	1	559	1	2	2	0.1531	0.0500	1	1	0.436	91	0	82
83	1	560	9	1	3	0.1531	0.0500	0	0	0.412	0	82	82
83	1	561	1	2	2	0.1531	0.0500	0	1	0.368	98	82	82
83	1	562	1	1	1	0.1531	0.0500	1	1	0.326	100	82	0
83	1	563	0	2	3	0.1531	0.0500	0	1	0.424	9	0	0
83	1	564	1	1	3	0.1531	0.0500	0	0	0.318	0	82	82
83	1	565	1	2	3	0.1531	0.0500	0	1	0.316	100	82	82
83	1	566	0	1	3	0.1531	0.0500	1	1	0.431	9	0	82
83	1	567	0	2	2	0.1531	0.0500	1	1	0.558	8	82	0
83	1	568	9	2	3	0.1531	0.0500	1	1	0.441	0	82	0
83	1	569	9	1	3	0.1531	0.0500	1	1	0.409	0	82	0
83	1	570	0	2	3	0.1531	0.0500	0	1	0.435	9	0	0
83	1	571	9	1	3	0.1531	0.0500	1	1	0.357	0	82	0
83	1	572	0	1	3	0.1531	0.0500	0	1	0.413	9	0	0
83	1	573	1	2	2	0.1531	0.0500	0	1	0.345	100	82	82
83	1	574	1	1	3	0.1531	0.0500	1	1	0.467	88	82	0
83	1	575	1	2	3	0.1531	0.0500	1	1	0.508	84	0	82
83	1	576	1	2	2	0.1531	0.0500	0	1	0.406	94	82	82
83	1	577	1	2	2	0.1531	0.0500	1	1	0.470	88	0	82
83	1	578	1	1	3	0.1531	0.0500	0	1	0.336	100	82	82
83	1	579	0	2	2	0.1531	0.0500	1	1	0.455	9	82	0
83	1	580	1	2	1	0.1531	0.0500	1	1	0.432	92	0	82
83	1	581	1	2	3	0.1531	0.0500	0	1	0.414	94	82	82
83	1	582	1	1	3	0.1531	0.0500	0	0	0.354	0	82	82
83	1	583	1	2	3	0.1531	0.0500	1	1	0.406	94	0	82
83	1	584	0	2	1	0.1531	0.0500	0	1	0.444	9	0	0
83	1	585	0	1	1	0.1531	0.0500	1	1	0.534	8	0	82
83	1	586	1	1	3	0.1531	0.0500	0	1	0.283	100	82	82
83	1	587	0	1	1	0.1531	0.0500	1	1	0.432	9	0	82
83	1	588	1	2	2	0.1531	0.0500	0	1	0.401	95	82	82
83	1	589	1	1	3	0.1531	0.0500	0	1	0.355	99	82	82
83	1	590	9	2	3	0.1531	0.0500	0	1	0.321	0	82	82
83	1	591	0	1	3	0.1531	0.0500	0	1	0.383	10	0	0
83	1	592	1	1	1	0.1531	0.0500	1	1	0.443	91	82	0
83	1	593	9	2	3	0.1531	0.0500	1	1	0.882	0	82	0
83	1	594	9	1	3	0.1531	0.0500	0	1	0.330	0	0	0
83	1	595	9	2	2	0.1531	0.0500	1	1	0.456	0	0	82
83	1	596	9	2	1	0.1531	0.0500	0	1	0.293	0	0	0
83	1	597	0	2	2	0.1531	0.0500	0	0	0.357	0	0	0
83	1	598	9	2	2	0.1531	0.0500	0	1	0.313	0	0	0
83	1	599	1	1	3	0.1531	0.0500	0	0	0.358	0	82	82
83	1	600	1	2	2	0.1531	0.0500	1	1	0.618	73	0	82
83	1	601	1	2	1	0.1531	0.0500	1	0	0.390	0	0	82
83	1	602	1	1	2	0.1531	0.0500	1	1	0.467	88	82	0
83	1	603	0	1	1	0.1531	0.0500	0	0	0.347	0	0	0
83	1	604	0	1	1	0.1531	0.0500	1	1	0.566	8	0	82
83	1	605	1	1	1	0.1531	0.0500	1	1	0.387	96	82	0
83	1	606	1	1	3	0.1531	0.0500	1	1	0.379	97	82	0
83	1	607	1	2	2	0.1531	0.0500	1	1	0.573	78	0	82
83	1	608	0	2	2	0.1531	0.0500	1	0	0.738	0	82	0
83	1	609	1	1	3	0.1531	0.0500	1	1	0.428	92	82	0
83	1	610	0	1	3	0.1531	0.0500	1	1	0.402	9	0	82
83	1	611	1	2	3	0.1531	0.0500	1	1	0.536	81	0	82
83	1	612	0	2	3	0.1531	0.0500	1	0	0.347	0	82	0
83	1	613	1	1	1	0.1531	0.0500	0	0	0.402	0	82	82
83	1	614	1	2	3	0.1531	0.0500	1	1	1.238	50	0	82
83	1	615	0	2	3	0.1531	0.0500	0	1	0.411	9	0	0
83	1	616	1	1	2	0.1531	0.0500	0	1	0.358	99	82	82
83	1	617	0	2	3	0.1531	0.0500	1	1	0.606	7	82	0
83	1	618	1	2	2	0.1531	0.0500	1	0	0.797	0	0	82
83	1	619	1	2	2	0.1531	0.0500	0	1	0.898	50	82	82
83	1	620	1	2	1	0.1531	0.0500	1	1	0.454	90	0	82
83	1	621	9	2	3	0.1531	0.0500	1	1	0.487	0	0	82
83	1	622	1	2	3	0.1531	0.0500	0	1	0.389	96	82	82
83	1	623	0	1	3	0.1531	0.0500	1	1	0.616	7	0	82
83	1	624	1	2	1	0.1531	0.0500	0	1	0.449	90	82	82
83	1	625	0	2	2	0.1531	0.0500	0	1	0.355	10	0	0
83	1	626	1	2	3	0.1531	0.0500	1	0	0.537	0	0	82
83	1	627	9	2	2	0.1531	0.0500	0	1	0.308	0	82	82
83	1	628	1	2	2	0.1531	0.0500	0	1	0.385	97	82	82
83	1	629	0	1	3	0.1531	0.0500	0	1	0.408	9	0	0
83	1	630	0	1	3	0.1531	0.0500	0	1	0.374	10	0	0
83	1	631	1	2	1	0.1531	0.0500	1	0	0.402	0	0	82
83	1	632	0	2	3	0.1531	0.0500	1	1	0.546	8	82	0
83	1	633	1	1	3	0.1531	0.0500	0	1	0.478	87	82	82
83	1	634	1	1	3	0.1531	0.0500	0	1	0.358	99	82	82
83	1	635	0	1	1	0.1531	0.0500	1	1	0.549	8	0	82
83	1	636	9	2	3	0.1531	0.0500	1	1	0.489	0	0	82
83	1	637	0	1	2	0.1531	0.0500	1	1	0.435	9	0	82
83	1	638	0	1	1	0.1531	0.0500	0	1	0.435	9	0	0
83	1	639	0	2	3	0.1531	0.0500	0	1	0.454	9	0	0
83	1	640	9	2	1	0.1531	0.0500	1	0	0.435	0	0	82
83	1	641	1	2	2	0.1531	0.0500	1	1	0.481	87	0	82
83	1	642	1	2	3	0.1531	0.0500	1	1	0.427	92	0	82
83	1	643	9	1	1	0.1531	0.0500	1	1	0.412	0	82	0
83	1	644	0	2	2	0.1531	0.0500	0	1	0.455	9	0	0
83	1	645	0	1	2	0.1531	0.0500	0	1	0.394	10	0	0
83	1	646	1	1	1	0.1531	0.0500	0	0	0.320	0	82	82
83	1	647	1	1	1	0.1531	0.0500	1	1	0.543	81	82	0
83	1	648	1	1	3	0.1531	0.0500	1	1	0.394	96	82	0
83	1	649	1	1	1	0.1531	0.0500	1	1	0.317	100	82	0
83	1	650	1	1	1	0.1531	0.0500	0	1	0.505	84	82	82
83	1	651	0	2	3	0.1531	0.0500	0	1	0.418	9	0	0
83	1	652	9	2	2	0.1531	0.0500	0	1	0.400	0	0	0
83	1	653	1	2	2	0.1531	0.0500	0	1	0.344	100	82	82
83	1	654	1	1	1	0.1531	0.0500	0	0	0.412	0	82	82
83	1	655	1	1	1	0.1531	0.0500	1	1	0.511	84	82	0
83	1	656	9	1	1	0.1531	0.0500	1	1	0.383	0	82	0
83	1	657	1	1	3	0.1531	0.0500	1	1	0.395	95	82	0
83	1	658	9	2	3	0.1531	0.0500	0	1	0.438	0	82	82
83	1	659	1	1	3	0.1531	0.0500	0	1	0.400	95	82	82
83	1	660	0	2	2	0.1531	0.0500	1	1	1.147	5	82	0
83	1	661	0	1	3	0.1531	0.0500	0	1	0.338	10	0	0
83	1	662	1	2	3	0.1531	0.0500	0	1	0.754	60	82	82
83	1	663	1	1	3	0.1531	0.0500	1	1	0.443	91	82	0
83	1	664	1	1	1	0.1531	0.0500	0	1	0.521	83	82	82
83	1	665	1	2	1	0.1531	0.0500	0	0	0.791	0	82	82
83	1	666	1	2	2	0.1531	0.0500	1	1	0.616	73	0	82
83	1	667	9	2	2	0.1531	0.0500	0	1	0.709	0	82	82
83	1	668	0	1	1	0.1531	0.0500	0	1	0.327	10	0	0
83	1	669	0	1	3	0.1531	0.0500	0	1	0.334	10	0	0
83	1	670	1	2	2	0.1531	0.0500	0	1	0.429	92	82	82
83	1	671	0	1	2	0.1531	0.0500	0	1	0.378	10	0	0
83	1	672	1	2	2	0.1531	0.0500	0	1	0.361	99	82	82
83	1	673	9	2	2	0.1531	0.0500	1	0	0.321	0	0	82
83	1	674	9	1	3	0.1531	0.0500	0	1	0.359	0	82	82
83	1	675	0	2	2	0.1531	0.0500	0	1	0.283	10	0	0
83	1	676	9	1	1	0.1531	0.0500	0	1	0.322	0	82	82
83	1	677	0	1	1	0.1531	0.0500	1	1	0.486	9	0	82
83	1	678	1	2	2	0.1531	0.0500	1	1	0.425	93	0	82
83	1	679	0	1	1	0.1531	0.0500	0	1	0.562	8	0	0
83	1	680	1	2	2	0.1531	0.0500	1	1	0.538	81	0	82
83	1	681	9	1	1	0.1531	0.0500	0	1	0.387	0	82	82
83	1	682	0	2	3	0.1531	0.0500	0	0	0.563	0	0	0
83	1	683	1	1	1	0.1531	0.0500	0	1	0.383	97	82	82
83	1	684	1	1	1	0.1531	0.0500	1	1	0.440	91	82	0
83	1	685	1	2	3	0.1531	0.0500	0	1	0.561	79	82	82
83	1	686	0	2	3	0.1531	0.0500	1	0	0.661	0	82	0
83	1	687	1	2	2	0.1531	0.0500	0	1	0.497	85	82	82
83	1	688	0	1	1	0.1531	0.0500	1	1	0.531	8	0	82
83	1	689	9	2	3	0.1531	0.0500	0	1	0.428	0	0	0
83	1	690	9	2	3	0.1531	0.0500	0	1	0.413	0	0	0
83	1	691	1	1	3	0.1531	0.0500	0	1	0.354	100	82	82
83	1	692	1	1	1	0.1531	0.0500	0	1	0.477	87	82	82
83	1	693	0	2	3	0.1531	0.0500	1	0	0.284	0	82	0
83	1	694	0	1	1	0.1531	0.0500	0	1	0.343	10	0	0
83	1	695	0	2	3	0.1531	0.0500	1	1	0.558	8	82	0
83	1	696	9	1	2	0.1531	0.0500	1	1	0.567	0	0	82
83	1	697	0	2	3	0.1531	0.0500	1	1	0.503	8	82	0
83	1	698	1	1	1	0.1531	0.0500	1	1	0.459	89	82	0
83	1	699	0	2	2	0.1531	0.0500	0	1	0.430	9	0	0
83	1	700	1	2	2	0.1531	0.0500	1	0	0.858	0	0	82
83	1	701	0	1	1	0.1531	0.0500	1	1	0.474	9	0	82
83	1	702	0	1	3	0.1531	0.0500	0	0	0.459	0	0	0
83	1	703	1	1	1	0.1531	0.0500	1	1	0.454	90	82	0
83	1	704	1	1	1	0.1531	0.0500	1	1	0.359	99	82	0
83	1	705	9	2	2	0.1531	0.0500	1	1	0.668	0	82	0
83	1	706	1	1	1	0.1531	0.0500	0	1	0.430	92	82	82
83	1	707	9	1	3	0.1531	0.0500	0	1	0.406	0	0	0
83	1	708	9	2	2	0.1531	0.0500	1	1	0.488	0	0	82
83	1	709	9	2	3	0.1531	0.0500	1	1	0.866	0	82	0
83	1	710	9	2	3	0.1531	0.0500	0	1	0.599	0	82	82
83	1	711	9	2	3	0.1531	0.0500	0	1	0.419	0	0	0
83	1	712	9	1	1	0.1531	0.0500	0	1	0.455	0	82	82
83	1	713	0	2	1	0.1531	0.0500	1	1	0.734	6	82	0
83	1	714	0	1	3	0.1531	0.0500	0	1	0.391	10	0	0
83	1	715	1	1	1	0.1531	0.0500	1	1	0.450	90	82	0
83	1	716	1	1	3	0.1531	0.0500	1	1	0.588	76	82	0
83	1	717	9	2	1	0.1531	0.0500	0	0	0.296	0	82	82
83	1	718	9	2	1	0.1531	0.0500	1	1	0.600	0	82	0
83	1	719	1	1	3	0.1531	0.0500	0	1	0.526	82	82	82
83	1	720	0	2	2	0.1531	0.0500	1	1	0.550	8	82	0
