sub	sess	t	loc	cue	co1	co2	or	resp	rt
144	1	1	2	2	0.0500	0.0965	1	1	3.351
144	1	2	2	2	0.0500	0.0965	0	1	0.646
144	1	3	1	2	0.0500	0.0965	0	1	0.652
144	1	4	1	1	0.0500	0.0965	0	0	0.897
144	1	5	1	1	0.0500	0.0965	0	1	0.695
144	1	6	2	1	0.0500	0.0965	1	1	0.619
144	1	7	1	1	0.0500	0.0965	1	1	0.995
144	1	8	2	2	0.0500	0.0965	1	1	0.721
144	1	9	2	2	0.0500	0.0965	0	1	0.706
144	1	10	2	2	0.0500	0.0965	1	1	0.710
144	1	11	1	1	0.0500	0.0965	1	1	0.751
144	1	12	1	2	0.0500	0.0965	0	1	0.626
144	1	13	1	1	0.0500	0.0965	0	1	0.554
144	1	14	2	2	0.0500	0.0965	0	1	0.570
144	1	15	1	1	0.0500	0.0965	1	0	0.690
144	1	16	2	3	0.0500	0.0965	1	1	0.923
144	1	17	1	3	0.0500	0.0965	1	0	0.597
144	1	18	2	1	0.0500	0.0965	0	1	0.586
144	1	19	1	3	0.0500	0.0965	1	1	0.960
144	1	20	2	2	0.0500	0.0965	1	1	0.634
144	1	21	2	2	0.0500	0.0965	0	1	0.738
144	1	22	2	2	0.0500	0.0965	1	1	0.591
144	1	23	2	3	0.0500	0.0965	1	1	0.659
144	1	24	1	1	0.0500	0.0965	1	1	1.365
144	1	25	1	1	0.0500	0.0965	1	1	0.861
144	1	26	1	3	0.0500	0.0965	0	1	1.035
144	1	27	2	3	0.0500	0.0965	0	1	0.672
144	1	28	2	3	0.0500	0.0965	0	1	0.549
144	1	29	1	2	0.0500	0.0965	1	1	0.659
144	1	30	2	2	0.0500	0.0965	0	1	0.597
144	1	31	2	2	0.0500	0.0965	1	1	0.623
144	1	32	2	2	0.0500	0.0965	0	1	0.528
144	1	33	2	2	0.0500	0.0965	1	1	0.700
144	1	34	1	2	0.0500	0.0965	1	0	0.692
144	1	35	1	1	0.0500	0.0965	0	1	0.638
144	1	36	2	2	0.0500	0.0965	1	1	0.727
144	1	37	2	3	0.0500	0.0965	0	1	0.657
144	1	38	1	3	0.0500	0.0965	1	1	0.560
144	1	39	1	1	0.0500	0.0965	0	1	0.477
144	1	40	1	1	0.0500	0.0965	0	1	0.630
144	1	41	1	3	0.0500	0.0965	1	1	0.566
144	1	42	1	1	0.0500	0.0965	0	1	0.548
144	1	43	2	3	0.0500	0.0965	1	1	0.561
144	1	44	1	3	0.0500	0.0965	0	1	0.697
144	1	45	1	1	0.0500	0.0965	0	1	0.535
144	1	46	1	3	0.0500	0.0965	0	1	0.413
144	1	47	1	3	0.0500	0.0965	0	1	1.091
144	1	48	2	1	0.0500	0.0965	1	1	0.565
144	1	49	1	1	0.0500	0.0965	1	1	0.566
144	1	50	2	3	0.0500	0.0965	0	1	0.483
144	1	51	2	1	0.0500	0.0965	0	1	0.540
144	1	52	1	1	0.0500	0.0965	1	1	0.520
144	1	53	2	2	0.0500	0.0965	0	1	0.484
144	1	54	2	3	0.0500	0.0965	1	1	0.510
144	1	55	2	2	0.0500	0.0965	0	1	0.402
144	1	56	1	1	0.0500	0.0965	1	0	0.982
144	1	57	1	1	0.0500	0.0965	0	1	0.678
144	1	58	1	3	0.0500	0.0965	1	1	0.669
144	1	59	2	3	0.0500	0.0965	1	1	0.516
144	1	60	1	3	0.0500	0.0965	0	1	0.406
144	1	61	1	1	0.0500	0.0965	0	1	0.468
144	1	62	1	3	0.0500	0.0965	0	1	0.460
144	1	63	1	3	0.0500	0.0965	1	1	0.535
144	1	64	1	1	0.0500	0.0965	1	1	0.543
144	1	65	2	3	0.0500	0.0965	0	0	0.798
144	1	66	1	3	0.0500	0.0965	1	1	0.516
144	1	67	2	1	0.0500	0.0965	0	1	0.429
144	1	68	2	2	0.0500	0.0965	0	1	0.463
144	1	69	2	2	0.0500	0.0965	1	0	0.484
144	1	70	1	1	0.0500	0.0965	0	1	0.634
144	1	71	1	1	0.0500	0.0965	1	1	0.555
144	1	72	2	2	0.0500	0.0965	1	1	0.599
144	1	73	2	2	0.0500	0.0965	1	1	0.552
144	1	74	1	3	0.0500	0.0965	1	0	0.460
144	1	75	2	2	0.0500	0.0965	0	1	0.621
144	1	76	2	3	0.0500	0.0965	1	1	0.582
144	1	77	2	2	0.0500	0.0965	0	1	0.555
144	1	78	1	1	0.0500	0.0965	1	1	0.518
144	1	79	1	1	0.0500	0.0965	0	1	0.533
144	1	80	1	1	0.0500	0.0965	1	1	0.561
144	1	81	2	2	0.0500	0.0965	1	1	0.680
144	1	82	1	1	0.0500	0.0965	1	1	0.602
144	1	83	2	2	0.0500	0.0965	0	1	0.393
144	1	84	1	2	0.0500	0.0965	1	1	0.431
144	1	85	1	1	0.0500	0.0965	1	1	0.511
144	1	86	2	3	0.0500	0.0965	0	1	0.451
144	1	87	2	2	0.0500	0.0965	0	1	0.418
144	1	88	2	2	0.0500	0.0965	0	1	0.518
144	1	89	1	3	0.0500	0.0965	0	1	0.600
144	1	90	2	2	0.0500	0.0965	1	1	0.470
144	1	91	2	1	0.0500	0.0965	0	1	0.399
144	1	92	2	2	0.0500	0.0965	1	1	0.440
144	1	93	1	1	0.0500	0.0965	0	1	0.498
144	1	94	2	3	0.0500	0.0965	1	1	0.504
144	1	95	1	2	0.0500	0.0965	0	1	0.485
144	1	96	2	2	0.0500	0.0965	1	1	0.507
144	1	97	1	3	0.0500	0.0965	0	1	0.369
144	1	98	2	2	0.0500	0.0965	1	1	0.455
144	1	99	1	1	0.0500	0.0965	1	1	0.548
144	1	100	2	1	0.0500	0.0965	1	1	0.527
144	1	101	1	1	0.0500	0.0965	0	1	0.557
144	1	102	1	2	0.0500	0.0965	0	1	0.797
144	1	103	2	2	0.0500	0.0965	0	1	0.476
144	1	104	2	3	0.0500	0.0965	0	1	0.626
144	1	105	2	1	0.0500	0.0965	1	1	0.422
144	1	106	2	3	0.0500	0.0965	1	1	0.452
144	1	107	1	1	0.0500	0.0965	1	1	0.522
144	1	108	1	1	0.0500	0.0965	0	1	0.389
144	1	109	1	2	0.0500	0.0965	1	1	0.462
144	1	110	2	2	0.0500	0.0965	0	1	0.403
144	1	111	1	1	0.0500	0.0965	0	1	0.392
144	1	112	2	3	0.0500	0.0965	0	0	0.405
