sub	sess	t	rew	loc	cue	co1	co2	or	resp	rt	rew_tot	left_col	right_col
140	1	1	9	1	3	0.2996	0.1377	0	1	0.886	0	0	0
140	1	2	9	2	2	0.2996	0.1377	1	1	0.794	0	82	0
140	1	3	0	2	2	0.2996	0.1377	1	1	0.648	7	0	82
140	1	4	0	1	1	0.2996	0.1377	0	1	0.623	7	82	82
140	1	5	9	2	1	0.2996	0.1377	0	1	0.756	0	82	82
140	1	6	1	1	1	0.2996	0.1377	1	1	0.797	55	0	82
140	1	7	9	2	3	0.2996	0.1377	0	1	0.569	0	0	0
140	1	8	1	1	1	0.2996	0.1377	1	1	0.576	77	0	82
140	1	9	0	1	1	0.2996	0.1377	0	1	0.506	8	82	82
140	1	10	0	1	2	0.2996	0.1377	0	1	0.486	9	82	82
140	1	11	0	2	2	0.2996	0.1377	1	1	0.590	8	0	82
140	1	12	1	2	3	0.2996	0.1377	1	1	0.599	75	82	0
140	1	13	1	1	3	0.2996	0.1377	0	0	0.599	0	0	0
140	1	14	1	1	3	0.2996	0.1377	0	1	0.619	73	0	0
140	1	15	1	2	2	0.2996	0.1377	1	1	0.513	84	82	0
140	1	16	9	1	3	0.2996	0.1377	1	1	0.490	0	82	0
140	1	17	1	2	2	0.2996	0.1377	0	1	0.453	90	0	0
140	1	18	1	1	3	0.2996	0.1377	0	1	0.610	74	0	0
140	1	19	0	2	3	0.2996	0.1377	1	0	0.489	0	0	82
140	1	20	1	1	1	0.2996	0.1377	1	1	0.517	83	0	82
140	1	21	1	2	2	0.2996	0.1377	1	1	0.712	64	82	0
140	1	22	1	1	1	0.2996	0.1377	1	1	0.721	63	0	82
140	1	23	0	1	3	0.2996	0.1377	0	1	0.603	7	82	82
140	1	24	1	1	3	0.2996	0.1377	1	1	0.478	87	0	82
140	1	25	0	1	1	0.2996	0.1377	1	1	0.486	9	82	0
140	1	26	9	1	2	0.2996	0.1377	1	1	0.469	0	82	0
140	1	27	1	1	3	0.2996	0.1377	1	1	0.537	81	0	82
140	1	28	9	1	2	0.2996	0.1377	0	1	0.669	0	0	0
140	1	29	0	2	1	0.2996	0.1377	1	1	0.641	7	0	82
140	1	30	1	2	2	0.2996	0.1377	0	1	0.677	67	0	0
140	1	31	1	1	3	0.2996	0.1377	0	1	0.634	72	0	0
140	1	32	1	1	3	0.2996	0.1377	0	1	0.490	86	0	0
140	1	33	0	1	3	0.2996	0.1377	1	1	0.488	9	82	0
140	1	34	1	2	3	0.2996	0.1377	0	1	0.488	86	0	0
140	1	35	1	2	3	0.2996	0.1377	1	0	0.474	0	82	0
140	1	36	0	2	3	0.2996	0.1377	0	1	0.445	9	82	82
140	1	37	9	2	3	0.2996	0.1377	0	1	0.337	0	82	82
140	1	38	0	1	3	0.2996	0.1377	0	1	0.416	9	82	82
140	1	39	0	1	1	0.2996	0.1377	1	1	0.456	9	82	0
140	1	40	0	2	3	0.2996	0.1377	1	0	0.409	0	0	82
140	1	41	9	2	2	0.2996	0.1377	0	1	0.483	0	82	82
140	1	42	0	2	2	0.2996	0.1377	1	1	0.588	8	0	82
140	1	43	9	2	3	0.2996	0.1377	1	1	0.415	0	82	0
140	1	44	0	2	2	0.2996	0.1377	1	1	0.612	7	0	82
140	1	45	0	2	2	0.2996	0.1377	1	1	0.575	8	0	82
140	1	46	0	1	3	0.2996	0.1377	0	0	0.555	0	82	82
140	1	47	0	1	3	0.2996	0.1377	1	1	0.506	8	82	0
140	1	48	1	2	3	0.2996	0.1377	1	0	0.606	0	82	0
140	1	49	0	1	3	0.2996	0.1377	1	1	0.495	9	82	0
140	1	50	0	2	2	0.2996	0.1377	1	1	0.509	8	0	82
140	1	51	0	1	3	0.2996	0.1377	1	1	0.582	8	82	0
140	1	52	1	1	3	0.2996	0.1377	1	1	0.465	89	0	82
140	1	53	0	2	1	0.2996	0.1377	1	1	0.487	9	0	82
140	1	54	0	1	2	0.2996	0.1377	1	1	0.427	9	82	0
140	1	55	0	2	2	0.2996	0.1377	1	1	0.467	9	0	82
140	1	56	1	2	2	0.2996	0.1377	0	1	0.428	92	0	0
140	1	57	9	1	3	0.2996	0.1377	0	1	0.454	0	0	0
140	1	58	1	2	2	0.2996	0.1377	1	1	0.601	75	82	0
140	1	59	9	1	3	0.2996	0.1377	0	1	0.569	0	82	82
140	1	60	1	2	1	0.2996	0.1377	0	1	0.536	81	0	0
140	1	61	0	1	1	0.2996	0.1377	0	1	0.529	8	82	82
140	1	62	9	2	2	0.2996	0.1377	0	1	0.446	0	82	82
140	1	63	1	2	2	0.2996	0.1377	0	1	0.459	89	0	0
140	1	64	0	2	3	0.2996	0.1377	1	0	0.623	0	0	82
140	1	65	0	1	2	0.2996	0.1377	1	0	0.525	0	82	0
140	1	66	9	2	2	0.2996	0.1377	1	1	0.670	0	82	0
140	1	67	1	2	2	0.2996	0.1377	0	1	0.619	73	0	0
140	1	68	1	1	1	0.2996	0.1377	1	1	0.508	84	0	82
140	1	69	1	1	1	0.2996	0.1377	1	1	0.475	88	0	82
140	1	70	1	1	1	0.2996	0.1377	0	1	0.563	79	0	0
140	1	71	0	2	1	0.2996	0.1377	1	1	0.568	8	0	82
140	1	72	1	1	1	0.2996	0.1377	1	1	0.534	82	0	82
140	1	73	0	1	1	0.2996	0.1377	0	1	0.560	8	82	82
140	1	74	1	1	3	0.2996	0.1377	1	1	0.479	87	0	82
140	1	75	9	2	2	0.2996	0.1377	1	0	0.523	0	82	0
140	1	76	0	2	3	0.2996	0.1377	0	1	0.486	9	82	82
140	1	77	1	2	2	0.2996	0.1377	0	1	0.518	83	0	0
140	1	78	9	2	3	0.2996	0.1377	1	1	0.715	0	0	82
140	1	79	9	1	1	0.2996	0.1377	0	1	0.680	0	82	82
140	1	80	9	2	2	0.2996	0.1377	0	1	0.511	0	0	0
140	1	81	9	2	2	0.2996	0.1377	1	0	0.570	0	0	82
140	1	82	0	1	1	0.2996	0.1377	0	1	0.866	5	82	82
140	1	83	1	2	2	0.2996	0.1377	0	1	0.589	76	0	0
140	1	84	1	1	3	0.2996	0.1377	1	1	0.593	76	0	82
140	1	85	9	1	3	0.2996	0.1377	0	1	0.489	0	82	82
140	1	86	9	1	1	0.2996	0.1377	1	1	0.481	0	0	82
140	1	87	0	2	3	0.2996	0.1377	0	1	0.529	8	82	82
140	1	88	1	2	3	0.2996	0.1377	0	1	0.503	85	0	0
140	1	89	9	2	1	0.2996	0.1377	1	1	0.548	0	0	82
140	1	90	1	1	2	0.2996	0.1377	1	1	0.854	50	0	82
140	1	91	0	2	3	0.2996	0.1377	1	1	0.640	7	0	82
140	1	92	0	2	3	0.2996	0.1377	0	1	0.541	8	82	82
140	1	93	0	2	2	0.2996	0.1377	0	1	0.514	8	82	82
140	1	94	1	1	1	0.2996	0.1377	1	1	0.580	77	0	82
140	1	95	9	1	3	0.2996	0.1377	1	1	0.550	0	82	0
140	1	96	1	2	1	0.2996	0.1377	1	0	0.599	0	82	0
140	1	97	0	1	1	0.2996	0.1377	1	1	0.484	9	82	0
140	1	98	1	2	3	0.2996	0.1377	1	0	0.703	0	82	0
140	1	99	0	2	3	0.2996	0.1377	0	1	0.451	9	82	82
140	1	100	1	2	3	0.2996	0.1377	1	1	0.483	87	82	0
140	1	101	1	2	1	0.2996	0.1377	0	1	0.516	83	0	0
140	1	102	0	1	1	0.2996	0.1377	1	1	0.490	9	82	0
140	1	103	1	2	2	0.2996	0.1377	0	1	0.456	89	0	0
140	1	104	0	1	3	0.2996	0.1377	0	0	0.487	0	82	82
140	1	105	0	1	3	0.2996	0.1377	0	0	0.591	0	82	82
140	1	106	0	1	3	0.2996	0.1377	1	1	0.620	7	82	0
140	1	107	1	2	2	0.2996	0.1377	0	1	0.549	80	0	0
140	1	108	0	2	1	0.2996	0.1377	0	1	0.668	7	82	82
140	1	109	0	2	3	0.2996	0.1377	0	1	0.516	8	82	82
140	1	110	1	1	3	0.2996	0.1377	0	0	0.562	0	0	0
140	1	111	1	1	3	0.2996	0.1377	1	1	0.597	75	0	82
140	1	112	0	1	3	0.2996	0.1377	1	1	0.562	8	82	0
140	1	113	1	2	3	0.2996	0.1377	0	1	0.620	73	0	0
140	1	114	0	2	3	0.2996	0.1377	1	1	0.713	6	0	82
140	1	115	1	2	2	0.2996	0.1377	0	1	0.523	83	0	0
140	1	116	9	2	3	0.2996	0.1377	1	1	0.678	0	0	82
140	1	117	1	1	3	0.2996	0.1377	1	1	0.819	53	0	82
140	1	118	9	1	3	0.2996	0.1377	1	1	0.513	0	82	0
140	1	119	1	2	3	0.2996	0.1377	1	1	0.763	59	82	0
140	1	120	0	2	3	0.2996	0.1377	0	1	0.558	8	82	82
140	1	121	0	1	1	0.2996	0.1377	1	1	0.582	8	82	0
140	1	122	0	2	2	0.2996	0.1377	0	1	0.445	9	82	82
140	1	123	0	1	1	0.2996	0.1377	0	1	0.558	8	82	82
140	1	124	0	1	1	0.2996	0.1377	0	1	0.568	8	82	82
140	1	125	0	1	1	0.2996	0.1377	0	1	0.470	9	82	82
140	1	126	0	1	3	0.2996	0.1377	0	0	0.463	0	82	82
140	1	127	0	1	3	0.2996	0.1377	1	1	0.570	8	82	0
140	1	128	0	1	3	0.2996	0.1377	0	1	0.545	8	82	82
140	1	129	9	2	2	0.2996	0.1377	0	0	0.645	0	0	0
140	1	130	0	2	2	0.2996	0.1377	1	0	0.556	0	0	82
140	1	131	1	2	3	0.2996	0.1377	1	1	0.541	81	82	0
140	1	132	9	1	3	0.2996	0.1377	0	1	0.662	0	82	82
140	1	133	0	2	3	0.2996	0.1377	0	1	0.525	8	82	82
140	1	134	0	1	2	0.2996	0.1377	0	0	0.582	0	82	82
140	1	135	0	1	3	0.2996	0.1377	1	1	0.591	8	82	0
140	1	136	1	2	2	0.2996	0.1377	1	0	0.638	0	82	0
140	1	137	0	1	1	0.2996	0.1377	0	1	0.551	8	82	82
140	1	138	0	1	1	0.2996	0.1377	0	1	0.492	9	82	82
140	1	139	1	2	2	0.2996	0.1377	0	1	0.534	82	0	0
140	1	140	0	1	1	0.2996	0.1377	1	1	0.620	7	82	0
140	1	141	1	1	2	0.2996	0.1377	1	1	0.552	80	0	82
140	1	142	9	2	3	0.2996	0.1377	1	1	0.526	0	82	0
140	1	143	1	2	1	0.2996	0.1377	1	1	0.631	72	82	0
140	1	144	0	1	3	0.2996	0.1377	0	1	0.568	8	82	82
140	1	145	1	2	3	0.2996	0.1377	0	1	0.531	82	0	0
140	1	146	1	2	2	0.2996	0.1377	1	1	0.534	82	82	0
140	1	147	9	2	2	0.2996	0.1377	0	1	0.507	0	0	0
140	1	148	0	1	2	0.2996	0.1377	1	1	0.500	9	82	0
140	1	149	9	2	3	0.2996	0.1377	1	1	0.536	0	0	82
140	1	150	1	2	3	0.2996	0.1377	0	1	0.364	99	0	0
140	1	151	1	1	3	0.2996	0.1377	0	1	0.716	63	0	0
140	1	152	0	2	2	0.2996	0.1377	1	1	0.571	8	0	82
140	1	153	1	1	2	0.2996	0.1377	0	0	0.606	0	0	0
140	1	154	1	2	2	0.2996	0.1377	1	1	0.492	86	82	0
140	1	155	0	2	2	0.2996	0.1377	0	1	0.455	9	82	82
140	1	156	1	1	3	0.2996	0.1377	0	1	0.725	63	0	0
140	1	157	1	2	2	0.2996	0.1377	1	1	0.517	83	82	0
140	1	158	9	1	1	0.2996	0.1377	0	1	0.732	0	0	0
140	1	159	0	2	2	0.2996	0.1377	1	1	0.667	7	0	82
140	1	160	1	2	3	0.2996	0.1377	1	1	0.651	70	82	0
140	1	161	0	2	3	0.2996	0.1377	0	1	0.493	9	82	82
140	1	162	0	2	3	0.2996	0.1377	1	1	0.465	9	0	82
140	1	163	0	1	1	0.2996	0.1377	1	1	0.842	5	82	0
140	1	164	0	1	1	0.2996	0.1377	1	1	0.573	8	82	0
140	1	165	1	1	3	0.2996	0.1377	1	1	0.515	84	0	82
140	1	166	1	2	2	0.2996	0.1377	1	0	0.563	0	82	0
140	1	167	1	1	1	0.2996	0.1377	1	1	0.503	85	0	82
140	1	168	9	2	3	0.2996	0.1377	0	1	0.533	0	82	82
140	1	169	0	2	2	0.2996	0.1377	0	1	0.540	8	82	82
140	1	170	0	2	3	0.2996	0.1377	1	1	0.740	6	0	82
140	1	171	1	1	1	0.2996	0.1377	1	1	0.656	69	0	82
140	1	172	1	1	2	0.2996	0.1377	1	1	0.441	91	0	82
140	1	173	1	1	3	0.2996	0.1377	1	1	0.457	89	0	82
140	1	174	9	1	1	0.2996	0.1377	1	1	0.530	0	0	82
140	1	175	0	2	3	0.2996	0.1377	1	1	0.861	5	0	82
140	1	176	1	2	2	0.2996	0.1377	1	1	0.507	84	82	0
140	1	177	1	1	1	0.2996	0.1377	1	1	0.634	72	0	82
140	1	178	0	2	2	0.2996	0.1377	0	1	0.595	8	82	82
140	1	179	1	1	1	0.2996	0.1377	1	1	0.535	82	0	82
140	1	180	0	2	3	0.2996	0.1377	1	1	0.620	7	0	82
140	1	181	9	1	1	0.2996	0.1377	0	1	0.674	0	0	0
140	1	182	9	1	1	0.2996	0.1377	1	1	0.487	0	0	82
140	1	183	0	1	1	0.2996	0.1377	0	1	0.691	7	82	82
140	1	184	0	2	2	0.2996	0.1377	1	1	0.693	7	0	82
140	1	185	1	1	3	0.2996	0.1377	0	1	0.634	72	0	0
140	1	186	9	1	1	0.2996	0.1377	0	1	0.503	0	82	82
140	1	187	9	2	2	0.2996	0.1377	1	1	0.610	0	0	82
140	1	188	0	2	2	0.2996	0.1377	0	1	0.653	7	82	82
140	1	189	0	2	2	0.2996	0.1377	0	1	0.497	9	82	82
140	1	190	0	2	2	0.2996	0.1377	0	1	0.472	9	82	82
140	1	191	0	1	1	0.2996	0.1377	1	1	0.517	8	82	0
140	1	192	0	1	3	0.2996	0.1377	0	1	0.631	7	82	82
140	1	193	0	2	3	0.2996	0.1377	0	1	0.442	9	82	82
140	1	194	9	2	3	0.2996	0.1377	0	1	0.462	0	0	0
140	1	195	9	2	3	0.2996	0.1377	1	0	0.579	0	82	0
140	1	196	1	2	2	0.2996	0.1377	0	1	0.507	84	0	0
140	1	197	0	2	3	0.2996	0.1377	1	1	0.591	8	0	82
140	1	198	1	1	1	0.2996	0.1377	0	0	0.582	0	0	0
140	1	199	0	2	1	0.2996	0.1377	1	1	0.590	8	0	82
140	1	200	0	1	3	0.2996	0.1377	0	1	0.699	7	82	82
140	1	201	1	2	3	0.2996	0.1377	0	1	0.448	90	0	0
140	1	202	0	2	3	0.2996	0.1377	1	1	0.619	7	0	82
140	1	203	9	2	3	0.2996	0.1377	1	1	0.599	0	82	0
140	1	204	1	1	3	0.2996	0.1377	1	1	0.503	85	0	82
140	1	205	0	2	3	0.2996	0.1377	0	1	0.580	8	82	82
140	1	206	1	1	1	0.2996	0.1377	0	0	0.638	0	0	0
140	1	207	0	2	2	0.2996	0.1377	0	1	0.528	8	82	82
140	1	208	1	2	3	0.2996	0.1377	1	1	0.648	70	82	0
140	1	209	0	1	3	0.2996	0.1377	1	1	0.707	6	82	0
140	1	210	9	1	3	0.2996	0.1377	0	1	0.575	0	82	82
140	1	211	0	1	1	0.2996	0.1377	0	1	0.559	8	82	82
140	1	212	0	2	2	0.2996	0.1377	0	0	0.562	0	82	82
140	1	213	1	1	1	0.2996	0.1377	0	1	0.498	85	0	0
140	1	214	9	1	2	0.2996	0.1377	0	1	0.456	0	82	82
140	1	215	9	1	3	0.2996	0.1377	1	1	0.469	0	82	0
140	1	216	0	2	2	0.2996	0.1377	0	1	0.599	8	82	82
140	1	217	0	2	2	0.2996	0.1377	0	1	0.551	8	82	82
140	1	218	1	1	3	0.2996	0.1377	0	1	0.697	65	0	0
140	1	219	0	1	1	0.2996	0.1377	1	1	0.503	8	82	0
140	1	220	1	1	3	0.2996	0.1377	1	1	0.466	88	0	82
140	1	221	1	2	3	0.2996	0.1377	0	1	0.615	73	0	0
140	1	222	0	1	1	0.2996	0.1377	0	1	0.795	6	82	82
140	1	223	0	2	3	0.2996	0.1377	0	1	0.470	9	82	82
140	1	224	1	1	1	0.2996	0.1377	0	1	0.424	93	0	0
140	1	225	1	2	3	0.2996	0.1377	1	1	0.671	68	82	0
140	1	226	9	1	1	0.2996	0.1377	1	1	0.625	0	82	0
140	1	227	0	2	3	0.2996	0.1377	0	1	0.505	8	82	82
140	1	228	1	1	1	0.2996	0.1377	1	1	0.500	85	0	82
140	1	229	9	2	3	0.2996	0.1377	0	1	0.487	0	82	82
140	1	230	0	2	1	0.2996	0.1377	0	1	0.550	8	82	82
140	1	231	1	1	3	0.2996	0.1377	0	1	0.606	74	0	0
140	1	232	0	1	1	0.2996	0.1377	1	1	0.519	8	82	0
140	1	233	9	2	2	0.2996	0.1377	0	1	0.455	0	0	0
140	1	234	0	2	3	0.2996	0.1377	0	1	0.462	9	82	82
140	1	235	1	1	1	0.2996	0.1377	0	0	0.635	0	0	0
140	1	236	0	1	1	0.2996	0.1377	1	1	0.566	8	82	0
140	1	237	9	2	2	0.2996	0.1377	1	0	0.557	0	0	82
140	1	238	9	2	1	0.2996	0.1377	0	1	0.509	0	0	0
140	1	239	9	2	3	0.2996	0.1377	0	1	0.475	0	82	82
140	1	240	0	2	1	0.2996	0.1377	0	1	0.498	9	82	82
140	1	241	1	2	3	0.2996	0.1377	1	1	0.509	84	82	0
140	1	242	9	1	1	0.2996	0.1377	1	1	1.065	0	82	0
140	1	243	1	2	3	0.2996	0.1377	0	1	0.509	84	0	0
140	1	244	1	2	2	0.2996	0.1377	1	1	0.474	88	82	0
140	1	245	9	1	1	0.2996	0.1377	1	1	0.531	0	82	0
140	1	246	0	2	3	0.2996	0.1377	1	1	0.515	8	0	82
140	1	247	9	1	3	0.2996	0.1377	1	1	0.472	0	0	82
140	1	248	1	1	2	0.2996	0.1377	1	1	0.457	89	0	82
140	1	249	1	1	1	0.2996	0.1377	1	1	0.454	90	0	82
140	1	250	1	1	1	0.2996	0.1377	0	1	0.519	83	0	0
140	1	251	1	1	1	0.2996	0.1377	0	1	0.451	90	0	0
140	1	252	1	1	2	0.2996	0.1377	0	1	0.468	88	0	0
140	1	253	1	1	1	0.2996	0.1377	0	1	0.431	92	0	0
140	1	254	1	2	3	0.2996	0.1377	1	0	0.619	0	82	0
140	1	255	1	1	1	0.2996	0.1377	0	1	0.913	50	0	0
140	1	256	1	1	3	0.2996	0.1377	1	1	0.587	76	0	82
140	1	257	0	1	1	0.2996	0.1377	1	1	0.672	7	82	0
140	1	258	0	2	3	0.2996	0.1377	1	1	0.654	7	0	82
140	1	259	1	2	2	0.2996	0.1377	0	1	0.625	73	0	0
140	1	260	1	2	3	0.2996	0.1377	0	1	0.534	82	0	0
140	1	261	0	1	2	0.2996	0.1377	0	1	0.677	7	82	82
140	1	262	1	2	3	0.2996	0.1377	1	1	0.580	77	82	0
140	1	263	0	2	2	0.2996	0.1377	1	1	0.672	7	0	82
140	1	264	1	2	1	0.2996	0.1377	0	1	0.549	80	0	0
140	1	265	0	2	2	0.2996	0.1377	1	1	0.569	8	0	82
140	1	266	0	1	3	0.2996	0.1377	1	1	0.765	6	82	0
140	1	267	0	1	2	0.2996	0.1377	0	1	0.561	8	82	82
140	1	268	9	1	3	0.2996	0.1377	0	1	0.531	0	0	0
140	1	269	9	1	3	0.2996	0.1377	1	1	0.486	0	0	82
140	1	270	0	2	2	0.2996	0.1377	0	1	0.455	9	82	82
140	1	271	1	2	1	0.2996	0.1377	1	1	0.829	52	82	0
140	1	272	9	2	3	0.2996	0.1377	0	1	0.738	0	0	0
140	1	273	1	2	3	0.2996	0.1377	0	1	0.541	81	0	0
140	1	274	1	2	3	0.2996	0.1377	0	1	0.472	88	0	0
140	1	275	0	2	3	0.2996	0.1377	1	1	0.738	6	0	82
140	1	276	0	1	3	0.2996	0.1377	1	1	0.954	5	82	0
140	1	277	9	1	1	0.2996	0.1377	0	1	0.832	0	82	82
140	1	278	0	1	3	0.2996	0.1377	0	1	0.526	8	82	82
140	1	279	1	2	2	0.2996	0.1377	1	1	0.639	71	82	0
140	1	280	1	2	3	0.2996	0.1377	0	1	0.463	89	0	0
140	1	281	1	2	2	0.2996	0.1377	1	1	0.519	83	82	0
140	1	282	1	1	3	0.2996	0.1377	0	1	0.835	51	0	0
140	1	283	0	2	2	0.2996	0.1377	0	1	0.453	9	82	82
140	1	284	1	2	1	0.2996	0.1377	1	1	0.534	82	82	0
140	1	285	1	1	3	0.2996	0.1377	0	1	0.533	82	0	0
140	1	286	1	2	2	0.2996	0.1377	0	1	0.477	87	0	0
140	1	287	1	1	2	0.2996	0.1377	0	1	0.674	68	0	0
140	1	288	0	1	1	0.2996	0.1377	0	0	0.509	0	82	82
140	1	289	9	1	1	0.2996	0.1377	0	1	0.408	0	82	82
140	1	290	1	1	1	0.2996	0.1377	0	1	0.506	84	0	0
140	1	291	9	2	2	0.2996	0.1377	1	1	0.791	0	0	82
140	1	292	1	1	3	0.2996	0.1377	1	0	0.483	0	0	82
140	1	293	0	1	1	0.2996	0.1377	1	1	0.560	8	82	0
140	1	294	0	1	2	0.2996	0.1377	1	1	0.491	9	82	0
140	1	295	0	1	3	0.2996	0.1377	0	1	0.791	6	82	82
140	1	296	0	1	1	0.2996	0.1377	0	1	0.508	8	82	82
140	1	297	0	1	3	0.2996	0.1377	0	1	0.479	9	82	82
140	1	298	9	2	3	0.2996	0.1377	1	0	0.712	0	0	82
140	1	299	9	1	3	0.2996	0.1377	0	1	0.547	0	0	0
140	1	300	0	2	2	0.2996	0.1377	1	1	0.661	7	0	82
140	1	301	9	1	1	0.2996	0.1377	0	1	0.532	0	0	0
140	1	302	9	1	1	0.2996	0.1377	1	1	0.457	0	0	82
140	1	303	0	2	2	0.2996	0.1377	1	0	0.782	0	0	82
140	1	304	0	2	1	0.2996	0.1377	0	1	0.515	8	82	82
140	1	305	1	2	3	0.2996	0.1377	0	1	0.504	85	0	0
140	1	306	1	2	2	0.2996	0.1377	0	1	0.513	84	0	0
140	1	307	1	2	3	0.2996	0.1377	1	1	0.557	79	82	0
140	1	308	0	1	1	0.2996	0.1377	1	1	0.546	8	82	0
140	1	309	9	1	1	0.2996	0.1377	0	0	0.554	0	0	0
140	1	310	1	1	1	0.2996	0.1377	0	1	0.499	85	0	0
140	1	311	9	2	2	0.2996	0.1377	0	1	0.509	0	82	82
140	1	312	9	1	2	0.2996	0.1377	1	1	0.437	0	0	82
140	1	313	9	2	2	0.2996	0.1377	1	1	0.667	0	82	0
140	1	314	1	2	2	0.2996	0.1377	1	1	0.508	84	82	0
140	1	315	1	2	1	0.2996	0.1377	0	1	0.474	88	0	0
140	1	316	0	1	3	0.2996	0.1377	1	1	0.542	8	82	0
140	1	317	1	1	3	0.2996	0.1377	0	1	0.694	66	0	0
140	1	318	1	1	1	0.2996	0.1377	0	1	0.448	90	0	0
140	1	319	1	2	2	0.2996	0.1377	1	1	0.701	65	82	0
140	1	320	0	1	3	0.2996	0.1377	1	1	1.045	5	82	0
140	1	321	1	1	3	0.2996	0.1377	1	1	0.467	88	0	82
140	1	322	1	2	3	0.2996	0.1377	0	1	0.451	90	0	0
140	1	323	0	2	2	0.2996	0.1377	0	1	0.509	8	82	82
140	1	324	9	2	3	0.2996	0.1377	0	1	0.446	0	0	0
140	1	325	0	1	3	0.2996	0.1377	1	1	0.578	8	82	0
140	1	326	1	1	1	0.2996	0.1377	0	1	0.739	61	0	0
140	1	327	1	1	2	0.2996	0.1377	0	1	0.522	83	0	0
140	1	328	0	1	3	0.2996	0.1377	1	1	0.504	8	82	0
140	1	329	0	2	3	0.2996	0.1377	0	1	0.482	9	82	82
140	1	330	1	1	1	0.2996	0.1377	0	1	0.596	75	0	0
140	1	331	0	2	3	0.2996	0.1377	1	1	0.678	7	0	82
140	1	332	9	2	1	0.2996	0.1377	1	1	0.586	0	82	0
140	1	333	9	2	2	0.2996	0.1377	0	1	0.473	0	82	82
140	1	334	1	1	1	0.2996	0.1377	1	1	0.428	92	0	82
140	1	335	0	2	3	0.2996	0.1377	1	1	0.562	8	0	82
140	1	336	0	1	3	0.2996	0.1377	0	1	0.560	8	82	82
140	1	337	1	2	2	0.2996	0.1377	1	0	0.627	0	82	0
140	1	338	1	2	3	0.2996	0.1377	1	1	0.470	88	82	0
140	1	339	9	1	3	0.2996	0.1377	1	1	0.597	0	0	82
140	1	340	0	1	1	0.2996	0.1377	1	1	0.494	9	82	0
140	1	341	0	2	2	0.2996	0.1377	1	1	0.750	6	0	82
140	1	342	0	1	3	0.2996	0.1377	1	1	0.585	8	82	0
140	1	343	0	1	3	0.2996	0.1377	0	1	0.586	8	82	82
140	1	344	0	2	2	0.2996	0.1377	0	0	0.751	0	82	82
140	1	345	0	1	1	0.2996	0.1377	0	1	0.554	8	82	82
140	1	346	1	2	2	0.2996	0.1377	1	1	0.680	67	82	0
140	1	347	1	2	2	0.2996	0.1377	0	1	0.480	87	0	0
140	1	348	1	1	3	0.2996	0.1377	1	1	0.465	89	0	82
140	1	349	0	1	3	0.2996	0.1377	0	1	0.880	5	82	82
140	1	350	1	2	3	0.2996	0.1377	0	0	0.906	0	0	0
140	1	351	1	1	1	0.2996	0.1377	0	1	0.627	72	0	0
140	1	352	1	1	3	0.2996	0.1377	1	1	0.638	71	0	82
140	1	353	9	1	3	0.2996	0.1377	1	1	0.460	0	0	82
140	1	354	1	1	1	0.2996	0.1377	1	1	0.559	79	0	82
140	1	355	1	1	3	0.2996	0.1377	0	1	0.552	80	0	0
140	1	356	1	2	3	0.2996	0.1377	1	1	0.546	80	82	0
140	1	357	0	2	3	0.2996	0.1377	0	1	0.471	9	82	82
140	1	358	1	1	3	0.2996	0.1377	0	1	0.604	75	0	0
140	1	359	1	2	3	0.2996	0.1377	0	1	0.596	75	0	0
140	1	360	9	1	1	0.2996	0.1377	1	1	0.579	0	82	0
140	1	361	9	2	2	0.2996	0.1377	0	1	0.500	0	0	0
140	1	362	9	2	2	0.2996	0.1377	0	1	0.475	0	0	0
140	1	363	1	1	1	0.2996	0.1377	1	1	0.496	85	0	82
140	1	364	0	1	2	0.2996	0.1377	0	1	0.691	7	82	82
140	1	365	1	2	2	0.2996	0.1377	1	1	0.796	55	82	0
140	1	366	1	1	1	0.2996	0.1377	0	1	0.709	64	0	0
140	1	367	0	2	2	0.2996	0.1377	1	1	0.711	6	0	82
140	1	368	0	2	2	0.2996	0.1377	1	1	0.785	6	0	82
140	1	369	9	2	2	0.2996	0.1377	0	1	0.515	0	82	82
140	1	370	9	1	1	0.2996	0.1377	0	1	0.746	0	82	82
140	1	371	1	1	3	0.2996	0.1377	1	1	0.539	81	0	82
140	1	372	1	1	2	0.2996	0.1377	1	1	0.515	83	0	82
140	1	373	9	2	3	0.2996	0.1377	0	1	0.529	0	82	82
140	1	374	1	2	2	0.2996	0.1377	0	1	0.583	77	0	0
140	1	375	9	2	2	0.2996	0.1377	1	1	0.626	0	0	82
140	1	376	1	2	3	0.2996	0.1377	1	1	0.572	78	82	0
140	1	377	1	2	2	0.2996	0.1377	0	1	0.531	82	0	0
140	1	378	0	1	3	0.2996	0.1377	0	0	0.644	0	82	82
140	1	379	1	2	2	0.2996	0.1377	1	1	0.781	57	82	0
140	1	380	9	1	1	0.2996	0.1377	1	1	0.638	0	82	0
140	1	381	1	1	1	0.2996	0.1377	0	1	0.421	93	0	0
140	1	382	0	2	3	0.2996	0.1377	0	1	0.464	9	82	82
140	1	383	1	2	3	0.2996	0.1377	1	1	0.602	75	82	0
140	1	384	0	2	3	0.2996	0.1377	1	1	0.676	7	0	82
140	1	385	0	1	1	0.2996	0.1377	1	1	0.753	6	82	0
140	1	386	0	1	3	0.2996	0.1377	1	1	0.541	8	82	0
140	1	387	9	2	3	0.2996	0.1377	1	0	0.568	0	0	82
140	1	388	1	1	3	0.2996	0.1377	0	1	0.809	54	0	0
140	1	389	1	2	3	0.2996	0.1377	0	1	0.477	87	0	0
140	1	390	1	1	1	0.2996	0.1377	1	1	0.463	89	0	82
140	1	391	0	1	3	0.2996	0.1377	0	1	0.521	8	82	82
140	1	392	1	1	3	0.2996	0.1377	0	1	0.617	73	0	0
140	1	393	1	2	3	0.2996	0.1377	0	1	0.546	80	0	0
140	1	394	9	2	2	0.2996	0.1377	1	1	0.829	0	0	82
140	1	395	1	2	1	0.2996	0.1377	0	1	0.521	83	0	0
140	1	396	1	1	2	0.2996	0.1377	0	1	0.520	83	0	0
140	1	397	0	2	2	0.2996	0.1377	0	1	0.622	7	82	82
140	1	398	1	1	1	0.2996	0.1377	0	1	0.509	84	0	0
140	1	399	0	1	3	0.2996	0.1377	1	1	0.749	6	82	0
140	1	400	1	2	2	0.2996	0.1377	0	1	0.485	86	0	0
140	1	401	0	2	3	0.2996	0.1377	1	1	0.725	6	0	82
140	1	402	1	1	1	0.2996	0.1377	1	1	0.619	73	0	82
140	1	403	0	1	2	0.2996	0.1377	1	1	0.530	8	82	0
140	1	404	1	2	3	0.2996	0.1377	1	0	0.553	0	82	0
140	1	405	9	2	2	0.2996	0.1377	1	1	0.592	0	82	0
140	1	406	0	2	1	0.2996	0.1377	1	1	0.572	8	0	82
140	1	407	0	2	2	0.2996	0.1377	0	1	0.534	8	82	82
140	1	408	0	2	3	0.2996	0.1377	1	1	0.639	7	0	82
140	1	409	9	1	3	0.2996	0.1377	1	1	0.842	0	82	0
140	1	410	1	2	3	0.2996	0.1377	0	1	0.480	87	0	0
140	1	411	9	1	1	0.2996	0.1377	0	1	0.890	0	0	0
140	1	412	1	1	1	0.2996	0.1377	0	1	0.449	90	0	0
140	1	413	0	1	1	0.2996	0.1377	1	1	0.670	7	82	0
140	1	414	0	1	3	0.2996	0.1377	0	1	0.544	8	82	82
140	1	415	9	1	1	0.2996	0.1377	1	1	0.971	0	82	0
140	1	416	9	2	2	0.2996	0.1377	1	1	0.829	0	0	82
140	1	417	0	2	3	0.2996	0.1377	1	1	0.638	7	0	82
140	1	418	1	1	3	0.2996	0.1377	1	1	0.528	82	0	82
140	1	419	9	1	1	0.2996	0.1377	0	1	0.678	0	82	82
140	1	420	9	1	3	0.2996	0.1377	0	1	0.450	0	82	82
140	1	421	1	2	2	0.2996	0.1377	0	1	0.414	94	0	0
140	1	422	0	2	2	0.2996	0.1377	0	1	0.471	9	82	82
140	1	423	0	1	3	0.2996	0.1377	0	1	0.685	7	82	82
140	1	424	1	1	1	0.2996	0.1377	1	1	0.420	93	0	82
140	1	425	0	2	1	0.2996	0.1377	1	0	1.071	0	0	82
140	1	426	0	1	2	0.2996	0.1377	1	1	0.578	8	82	0
140	1	427	9	2	2	0.2996	0.1377	1	1	0.680	0	82	0
140	1	428	0	1	3	0.2996	0.1377	0	1	0.588	8	82	82
140	1	429	9	2	3	0.2996	0.1377	1	1	0.545	0	82	0
140	1	430	0	2	3	0.2996	0.1377	0	1	0.473	9	82	82
140	1	431	0	1	3	0.2996	0.1377	1	1	0.616	7	82	0
140	1	432	0	2	2	0.2996	0.1377	1	0	0.637	0	0	82
140	1	433	0	2	2	0.2996	0.1377	1	1	0.617	7	0	82
140	1	434	0	1	1	0.2996	0.1377	1	1	0.595	8	82	0
140	1	435	1	2	3	0.2996	0.1377	0	1	0.541	81	0	0
140	1	436	1	2	3	0.2996	0.1377	0	1	0.493	86	0	0
140	1	437	0	2	2	0.2996	0.1377	0	1	0.485	9	82	82
140	1	438	0	2	2	0.2996	0.1377	1	1	0.587	8	0	82
140	1	439	1	1	1	0.2996	0.1377	0	1	0.622	73	0	0
140	1	440	1	1	1	0.2996	0.1377	0	1	0.549	80	0	0
140	1	441	0	1	1	0.2996	0.1377	0	1	0.504	8	82	82
140	1	442	9	2	3	0.2996	0.1377	0	1	0.470	0	0	0
140	1	443	1	2	3	0.2996	0.1377	0	1	0.440	91	0	0
140	1	444	0	1	1	0.2996	0.1377	0	1	0.590	8	82	82
140	1	445	1	1	1	0.2996	0.1377	1	1	0.510	84	0	82
140	1	446	0	1	3	0.2996	0.1377	1	1	0.455	9	82	0
140	1	447	1	1	1	0.2996	0.1377	0	1	0.504	85	0	0
140	1	448	0	2	2	0.2996	0.1377	1	1	0.678	7	0	82
140	1	449	9	2	1	0.2996	0.1377	1	1	0.539	0	82	0
140	1	450	1	2	3	0.2996	0.1377	1	1	0.518	83	82	0
140	1	451	0	2	3	0.2996	0.1377	1	0	0.478	0	0	82
140	1	452	0	1	1	0.2996	0.1377	1	1	0.891	5	82	0
140	1	453	0	1	1	0.2996	0.1377	1	1	0.528	8	82	0
140	1	454	1	1	1	0.2996	0.1377	1	1	0.456	89	0	82
140	1	455	1	2	2	0.2996	0.1377	1	1	0.553	80	82	0
140	1	456	9	2	1	0.2996	0.1377	1	1	0.814	0	0	82
140	1	457	9	2	2	0.2996	0.1377	0	1	0.472	0	82	82
140	1	458	0	2	1	0.2996	0.1377	0	1	0.481	9	82	82
140	1	459	1	1	1	0.2996	0.1377	1	1	0.505	84	0	82
140	1	460	1	1	2	0.2996	0.1377	1	1	0.524	83	0	82
140	1	461	0	2	1	0.2996	0.1377	1	1	0.670	7	0	82
140	1	462	9	2	3	0.2996	0.1377	0	1	0.488	0	0	0
140	1	463	0	1	3	0.2996	0.1377	0	0	0.556	0	82	82
140	1	464	9	2	2	0.2996	0.1377	0	1	0.456	0	82	82
140	1	465	0	2	2	0.2996	0.1377	1	1	0.616	7	0	82
140	1	466	1	1	1	0.2996	0.1377	1	1	0.895	50	0	82
140	1	467	0	2	3	0.2996	0.1377	0	1	0.743	6	82	82
140	1	468	0	2	2	0.2996	0.1377	1	1	0.773	6	0	82
140	1	469	1	1	3	0.2996	0.1377	0	1	0.680	67	0	0
140	1	470	0	2	2	0.2996	0.1377	0	1	0.625	7	82	82
140	1	471	1	1	1	0.2996	0.1377	1	1	0.566	78	0	82
140	1	472	0	1	1	0.2996	0.1377	1	1	0.492	9	82	0
140	1	473	0	2	3	0.2996	0.1377	0	1	0.685	7	82	82
140	1	474	0	1	3	0.2996	0.1377	1	1	0.495	9	82	0
140	1	475	0	1	3	0.2996	0.1377	1	1	0.481	9	82	0
140	1	476	0	1	3	0.2996	0.1377	0	0	0.496	0	82	82
140	1	477	1	2	3	0.2996	0.1377	1	0	0.753	0	82	0
140	1	478	1	1	1	0.2996	0.1377	0	0	0.545	0	0	0
140	1	479	0	1	1	0.2996	0.1377	1	1	0.524	8	82	0
140	1	480	0	1	3	0.2996	0.1377	1	1	0.540	8	82	0
140	1	481	9	2	3	0.2996	0.1377	1	0	0.579	0	82	0
140	1	482	9	1	3	0.2996	0.1377	1	1	0.773	0	82	0
140	1	483	0	2	2	0.2996	0.1377	1	1	0.712	6	0	82
140	1	484	0	2	3	0.2996	0.1377	0	1	0.506	8	82	82
140	1	485	0	2	3	0.2996	0.1377	1	1	0.803	5	0	82
140	1	486	1	2	3	0.2996	0.1377	0	1	0.792	56	0	0
140	1	487	1	1	3	0.2996	0.1377	0	1	0.696	65	0	0
140	1	488	0	2	2	0.2996	0.1377	1	1	0.647	7	0	82
140	1	489	1	1	2	0.2996	0.1377	0	1	0.564	79	0	0
140	1	490	9	1	1	0.2996	0.1377	0	1	0.509	0	82	82
140	1	491	0	1	3	0.2996	0.1377	0	1	0.425	9	82	82
140	1	492	0	1	3	0.2996	0.1377	1	1	0.535	8	82	0
140	1	493	0	1	3	0.2996	0.1377	1	1	0.499	9	82	0
140	1	494	1	2	3	0.2996	0.1377	1	0	0.526	0	82	0
140	1	495	0	2	2	0.2996	0.1377	0	1	0.542	8	82	82
140	1	496	1	1	3	0.2996	0.1377	1	1	0.499	85	0	82
140	1	497	9	1	3	0.2996	0.1377	1	1	0.390	0	0	82
140	1	498	9	1	3	0.2996	0.1377	0	1	0.503	0	0	0
140	1	499	0	1	3	0.2996	0.1377	0	1	0.489	9	82	82
140	1	500	1	2	1	0.2996	0.1377	1	1	0.648	70	82	0
140	1	501	9	1	2	0.2996	0.1377	0	1	0.568	0	0	0
140	1	502	1	2	2	0.2996	0.1377	0	0	0.670	0	0	0
140	1	503	0	1	2	0.2996	0.1377	0	1	0.614	7	82	82
140	1	504	0	2	3	0.2996	0.1377	1	1	0.566	8	0	82
140	1	505	0	1	3	0.2996	0.1377	1	1	0.698	7	82	0
140	1	506	0	1	1	0.2996	0.1377	0	1	0.555	8	82	82
140	1	507	1	1	3	0.2996	0.1377	1	1	0.499	85	0	82
140	1	508	9	2	1	0.2996	0.1377	0	1	0.504	0	0	0
140	1	509	1	2	3	0.2996	0.1377	1	1	0.610	74	82	0
140	1	510	9	1	1	0.2996	0.1377	1	1	0.432	0	0	82
140	1	511	1	1	1	0.2996	0.1377	0	1	0.508	84	0	0
140	1	512	1	2	2	0.2996	0.1377	1	1	0.677	67	82	0
140	1	513	1	2	2	0.2996	0.1377	0	1	0.502	85	0	0
140	1	514	9	2	3	0.2996	0.1377	0	1	0.527	0	82	82
140	1	515	1	1	3	0.2996	0.1377	1	1	0.556	79	0	82
140	1	516	0	2	2	0.2996	0.1377	1	0	0.663	0	0	82
140	1	517	0	2	2	0.2996	0.1377	1	1	0.616	7	0	82
140	1	518	1	1	1	0.2996	0.1377	1	1	0.585	77	0	82
140	1	519	9	2	2	0.2996	0.1377	0	1	0.511	0	0	0
140	1	520	0	1	2	0.2996	0.1377	0	1	0.645	7	82	82
140	1	521	1	1	3	0.2996	0.1377	0	1	0.492	86	0	0
140	1	522	0	1	1	0.2996	0.1377	0	1	0.478	9	82	82
140	1	523	9	1	1	0.2996	0.1377	1	1	0.507	0	82	0
140	1	524	1	2	2	0.2996	0.1377	1	0	0.561	0	82	0
140	1	525	1	1	1	0.2996	0.1377	1	1	0.508	84	0	82
140	1	526	0	2	3	0.2996	0.1377	1	1	0.717	6	0	82
140	1	527	0	2	1	0.2996	0.1377	0	1	0.553	8	82	82
140	1	528	1	2	1	0.2996	0.1377	1	1	0.455	89	82	0
140	1	529	1	2	2	0.2996	0.1377	1	1	0.468	88	82	0
140	1	530	0	2	3	0.2996	0.1377	1	1	0.585	8	0	82
140	1	531	9	2	3	0.2996	0.1377	1	1	0.524	0	0	82
140	1	532	1	1	3	0.2996	0.1377	1	1	0.464	89	0	82
140	1	533	1	2	2	0.2996	0.1377	0	1	0.484	87	0	0
140	1	534	0	2	2	0.2996	0.1377	1	1	0.607	7	0	82
140	1	535	1	2	3	0.2996	0.1377	1	1	0.468	88	82	0
140	1	536	9	1	3	0.2996	0.1377	1	1	0.457	0	82	0
140	1	537	0	1	1	0.2996	0.1377	0	0	0.548	0	82	82
140	1	538	1	2	3	0.2996	0.1377	1	1	0.767	58	82	0
140	1	539	1	2	3	0.2996	0.1377	1	1	0.555	79	82	0
140	1	540	0	1	1	0.2996	0.1377	0	1	0.609	7	82	82
140	1	541	1	2	2	0.2996	0.1377	0	1	0.494	86	0	0
140	1	542	9	2	3	0.2996	0.1377	1	1	0.789	0	0	82
140	1	543	1	1	3	0.2996	0.1377	1	1	0.474	88	0	82
140	1	544	0	1	3	0.2996	0.1377	0	1	0.598	8	82	82
140	1	545	0	1	1	0.2996	0.1377	1	1	0.472	9	82	0
140	1	546	0	2	2	0.2996	0.1377	1	1	0.711	6	0	82
140	1	547	0	1	1	0.2996	0.1377	1	1	0.530	8	82	0
140	1	548	0	1	1	0.2996	0.1377	0	1	0.602	7	82	82
140	1	549	9	1	2	0.2996	0.1377	1	1	0.501	0	82	0
140	1	550	0	1	3	0.2996	0.1377	0	1	0.519	8	82	82
140	1	551	0	1	1	0.2996	0.1377	0	1	0.484	9	82	82
140	1	552	1	1	1	0.2996	0.1377	1	1	0.444	91	0	82
140	1	553	0	2	1	0.2996	0.1377	1	1	0.913	5	0	82
140	1	554	9	2	1	0.2996	0.1377	0	1	0.497	0	82	82
140	1	555	1	2	3	0.2996	0.1377	1	1	0.720	63	82	0
140	1	556	0	1	2	0.2996	0.1377	1	1	0.694	7	82	0
140	1	557	1	2	3	0.2996	0.1377	0	1	0.429	92	0	0
140	1	558	9	1	3	0.2996	0.1377	0	1	0.513	0	0	0
140	1	559	0	2	3	0.2996	0.1377	1	1	0.919	5	0	82
140	1	560	1	1	3	0.2996	0.1377	1	1	0.678	67	0	82
140	1	561	0	2	1	0.2996	0.1377	0	1	0.483	9	82	82
140	1	562	9	1	1	0.2996	0.1377	0	1	0.546	0	82	82
140	1	563	0	1	1	0.2996	0.1377	0	1	0.436	9	82	82
140	1	564	9	1	3	0.2996	0.1377	1	1	0.480	0	0	82
140	1	565	9	1	1	0.2996	0.1377	1	1	0.357	0	0	82
140	1	566	1	2	3	0.2996	0.1377	0	1	0.459	89	0	0
140	1	567	0	1	3	0.2996	0.1377	1	1	0.500	9	82	0
140	1	568	1	1	1	0.2996	0.1377	0	1	0.422	93	0	0
140	1	569	0	1	3	0.2996	0.1377	1	1	0.456	9	82	0
140	1	570	1	2	2	0.2996	0.1377	0	1	0.512	84	0	0
140	1	571	1	2	2	0.2996	0.1377	0	1	0.514	84	0	0
140	1	572	1	1	3	0.2996	0.1377	0	1	0.669	68	0	0
140	1	573	1	1	1	0.2996	0.1377	0	1	0.416	93	0	0
140	1	574	1	2	3	0.2996	0.1377	0	1	0.392	96	0	0
140	1	575	9	1	3	0.2996	0.1377	1	1	0.489	0	82	0
140	1	576	1	1	1	0.2996	0.1377	0	1	0.600	75	0	0
140	1	577	0	2	2	0.2996	0.1377	0	1	0.460	9	82	82
140	1	578	1	2	2	0.2996	0.1377	1	1	0.666	68	82	0
140	1	579	0	2	3	0.2996	0.1377	0	1	0.449	9	82	82
140	1	580	1	1	2	0.2996	0.1377	0	1	0.704	65	0	0
140	1	581	0	2	2	0.2996	0.1377	0	1	0.451	9	82	82
140	1	582	1	2	2	0.2996	0.1377	1	1	0.507	84	82	0
140	1	583	0	2	2	0.2996	0.1377	0	1	0.482	9	82	82
140	1	584	9	1	2	0.2996	0.1377	0	1	0.587	0	82	82
140	1	585	1	1	3	0.2996	0.1377	1	1	0.527	82	0	82
140	1	586	1	1	1	0.2996	0.1377	0	1	0.567	78	0	0
140	1	587	0	1	2	0.2996	0.1377	0	1	0.477	9	82	82
140	1	588	0	2	3	0.2996	0.1377	1	1	0.828	5	0	82
140	1	589	1	1	3	0.2996	0.1377	0	1	0.458	89	0	0
140	1	590	0	2	2	0.2996	0.1377	0	1	0.442	9	82	82
140	1	591	0	2	1	0.2996	0.1377	0	1	0.433	9	82	82
140	1	592	1	2	3	0.2996	0.1377	0	1	0.500	85	0	0
140	1	593	1	1	3	0.2996	0.1377	0	1	0.564	79	0	0
140	1	594	0	2	2	0.2996	0.1377	0	1	0.709	6	82	82
140	1	595	9	2	3	0.2996	0.1377	0	1	0.445	0	82	82
140	1	596	9	1	1	0.2996	0.1377	0	1	0.473	0	0	0
140	1	597	1	2	3	0.2996	0.1377	0	1	0.451	90	0	0
140	1	598	0	2	3	0.2996	0.1377	1	1	0.729	6	0	82
140	1	599	0	1	1	0.2996	0.1377	1	0	0.740	0	82	0
140	1	600	9	1	1	0.2996	0.1377	0	1	0.550	0	0	0
140	1	601	0	1	3	0.2996	0.1377	1	1	0.618	7	82	0
140	1	602	1	1	3	0.2996	0.1377	0	1	0.578	77	0	0
140	1	603	0	1	3	0.2996	0.1377	0	1	0.463	9	82	82
140	1	604	1	1	1	0.2996	0.1377	1	1	0.471	88	0	82
140	1	605	0	2	3	0.2996	0.1377	0	1	0.425	9	82	82
140	1	606	0	1	1	0.2996	0.1377	1	1	0.599	8	82	0
140	1	607	9	2	2	0.2996	0.1377	1	0	0.543	0	0	82
140	1	608	9	1	3	0.2996	0.1377	0	1	0.483	0	82	82
140	1	609	0	2	3	0.2996	0.1377	0	1	0.469	9	82	82
140	1	610	9	1	1	0.2996	0.1377	1	1	0.482	0	0	82
140	1	611	0	1	1	0.2996	0.1377	0	1	0.664	7	82	82
140	1	612	0	2	3	0.2996	0.1377	0	1	0.633	7	82	82
140	1	613	9	2	2	0.2996	0.1377	1	1	0.556	0	82	0
140	1	614	9	2	2	0.2996	0.1377	0	1	0.473	0	82	82
140	1	615	1	1	1	0.2996	0.1377	1	1	0.509	84	0	82
140	1	616	1	2	1	0.2996	0.1377	1	1	0.547	80	82	0
140	1	617	0	1	1	0.2996	0.1377	1	1	0.601	7	82	0
140	1	618	9	2	2	0.2996	0.1377	0	1	0.529	0	0	0
140	1	619	1	1	2	0.2996	0.1377	1	1	0.402	95	0	82
140	1	620	1	2	3	0.2996	0.1377	1	1	0.662	69	82	0
140	1	621	0	1	1	0.2996	0.1377	0	1	0.700	7	82	82
140	1	622	1	1	3	0.2996	0.1377	0	1	0.434	92	0	0
140	1	623	1	1	1	0.2996	0.1377	1	1	0.521	83	0	82
140	1	624	9	2	3	0.2996	0.1377	0	1	0.473	0	82	82
140	1	625	0	1	1	0.2996	0.1377	0	1	0.479	9	82	82
140	1	626	1	1	3	0.2996	0.1377	0	1	0.400	95	0	0
140	1	627	1	2	2	0.2996	0.1377	1	1	0.454	90	82	0
140	1	628	9	1	1	0.2996	0.1377	1	1	0.466	0	0	82
140	1	629	9	1	3	0.2996	0.1377	1	1	0.393	0	0	82
140	1	630	9	2	3	0.2996	0.1377	0	1	0.564	0	0	0
140	1	631	0	1	2	0.2996	0.1377	1	1	0.589	8	82	0
140	1	632	1	2	2	0.2996	0.1377	0	1	0.540	81	0	0
140	1	633	0	2	3	0.2996	0.1377	0	1	0.500	8	82	82
140	1	634	1	1	1	0.2996	0.1377	1	1	0.419	93	0	82
140	1	635	0	1	3	0.2996	0.1377	0	1	0.620	7	82	82
140	1	636	0	1	3	0.2996	0.1377	1	1	0.556	8	82	0
140	1	637	1	1	1	0.2996	0.1377	0	1	0.452	90	0	0
140	1	638	0	1	1	0.2996	0.1377	1	1	0.515	8	82	0
140	1	639	0	1	3	0.2996	0.1377	0	1	0.563	8	82	82
140	1	640	1	2	3	0.2996	0.1377	1	1	0.506	84	82	0
140	1	641	1	2	2	0.2996	0.1377	1	1	0.459	89	82	0
140	1	642	0	2	2	0.2996	0.1377	1	1	0.970	5	0	82
140	1	643	9	2	2	0.2996	0.1377	1	1	0.454	0	82	0
140	1	644	1	1	3	0.2996	0.1377	1	1	0.409	94	0	82
140	1	645	9	1	2	0.2996	0.1377	1	1	0.361	0	0	82
140	1	646	1	1	3	0.2996	0.1377	1	1	0.386	96	0	82
140	1	647	0	1	3	0.2996	0.1377	1	1	0.707	6	82	0
140	1	648	1	2	2	0.2996	0.1377	0	1	1.027	50	0	0
140	1	649	0	2	3	0.2996	0.1377	1	1	0.711	6	0	82
140	1	650	1	1	3	0.2996	0.1377	1	1	0.387	96	0	82
140	1	651	0	2	3	0.2996	0.1377	0	1	0.466	9	82	82
140	1	652	1	2	3	0.2996	0.1377	1	1	0.474	88	82	0
140	1	653	0	2	2	0.2996	0.1377	0	1	0.439	9	82	82
140	1	654	0	2	3	0.2996	0.1377	1	1	0.630	7	0	82
140	1	655	0	1	1	0.2996	0.1377	1	1	0.797	6	82	0
140	1	656	1	2	2	0.2996	0.1377	1	1	0.516	83	82	0
140	1	657	1	2	2	0.2996	0.1377	1	1	0.412	94	82	0
140	1	658	1	1	3	0.2996	0.1377	1	1	0.398	95	0	82
140	1	659	0	1	1	0.2996	0.1377	0	1	0.593	8	82	82
140	1	660	9	1	3	0.2996	0.1377	0	1	0.488	0	82	82
140	1	661	1	1	3	0.2996	0.1377	1	1	0.514	84	0	82
140	1	662	9	2	3	0.2996	0.1377	1	0	0.589	0	0	82
140	1	663	9	2	3	0.2996	0.1377	1	1	0.506	0	82	0
140	1	664	0	2	3	0.2996	0.1377	0	1	0.455	9	82	82
140	1	665	0	1	1	0.2996	0.1377	1	1	0.964	5	82	0
140	1	666	1	1	2	0.2996	0.1377	0	1	0.738	61	0	0
140	1	667	0	2	2	0.2996	0.1377	0	1	0.479	9	82	82
140	1	668	1	2	1	0.2996	0.1377	0	1	0.497	85	0	0
140	1	669	1	1	3	0.2996	0.1377	0	1	0.583	77	0	0
140	1	670	1	1	3	0.2996	0.1377	0	1	0.419	93	0	0
140	1	671	1	2	2	0.2996	0.1377	0	1	0.532	82	0	0
140	1	672	1	2	2	0.2996	0.1377	1	1	0.488	86	82	0
140	1	673	1	2	1	0.2996	0.1377	0	1	0.453	90	0	0
140	1	674	0	1	3	0.2996	0.1377	0	1	0.455	9	82	82
140	1	675	9	1	3	0.2996	0.1377	0	1	0.543	0	82	82
140	1	676	0	1	1	0.2996	0.1377	1	1	0.829	5	82	0
140	1	677	1	2	3	0.2996	0.1377	1	1	0.519	83	82	0
140	1	678	1	1	3	0.2996	0.1377	0	1	0.559	79	0	0
140	1	679	9	1	3	0.2996	0.1377	0	1	0.500	0	0	0
140	1	680	1	2	1	0.2996	0.1377	1	1	0.546	80	82	0
140	1	681	1	2	1	0.2996	0.1377	0	1	0.437	91	0	0
140	1	682	9	1	1	0.2996	0.1377	1	1	0.576	0	82	0
140	1	683	0	2	2	0.2996	0.1377	1	0	0.567	0	0	82
140	1	684	1	1	3	0.2996	0.1377	1	1	0.432	92	0	82
140	1	685	1	2	2	0.2996	0.1377	0	1	0.536	81	0	0
140	1	686	1	2	2	0.2996	0.1377	0	1	0.555	79	0	0
140	1	687	0	1	1	0.2996	0.1377	0	1	0.424	9	82	82
140	1	688	0	2	2	0.2996	0.1377	0	1	0.379	10	82	82
140	1	689	1	1	3	0.2996	0.1377	0	1	0.431	92	0	0
140	1	690	0	2	3	0.2996	0.1377	0	1	0.406	9	82	82
140	1	691	0	2	3	0.2996	0.1377	0	1	0.381	10	82	82
140	1	692	0	2	3	0.2996	0.1377	0	1	0.443	9	82	82
140	1	693	0	2	3	0.2996	0.1377	1	0	0.612	0	0	82
140	1	694	1	1	1	0.2996	0.1377	0	1	0.705	64	0	0
140	1	695	1	2	3	0.2996	0.1377	0	1	0.483	87	0	0
140	1	696	1	1	3	0.2996	0.1377	1	1	0.461	89	0	82
140	1	697	0	1	3	0.2996	0.1377	0	1	0.577	8	82	82
140	1	698	9	1	1	0.2996	0.1377	0	1	0.521	0	0	0
140	1	699	1	2	2	0.2996	0.1377	1	1	0.610	74	82	0
140	1	700	0	2	2	0.2996	0.1377	0	1	0.531	8	82	82
140	1	701	0	1	1	0.2996	0.1377	0	1	0.499	9	82	82
140	1	702	9	1	3	0.2996	0.1377	0	1	0.385	0	0	0
140	1	703	1	2	3	0.2996	0.1377	0	1	0.552	80	0	0
140	1	704	1	2	3	0.2996	0.1377	0	1	0.469	88	0	0
140	1	705	1	1	1	0.2996	0.1377	0	1	0.417	93	0	0
140	1	706	1	1	2	0.2996	0.1377	1	1	0.433	92	0	82
140	1	707	1	2	3	0.2996	0.1377	1	1	0.780	57	82	0
140	1	708	1	2	3	0.2996	0.1377	0	1	0.565	78	0	0
140	1	709	0	2	2	0.2996	0.1377	0	1	0.436	9	82	82
140	1	710	9	2	3	0.2996	0.1377	0	1	0.477	0	0	0
140	1	711	1	2	2	0.2996	0.1377	1	1	0.586	76	82	0
140	1	712	1	2	2	0.2996	0.1377	0	1	0.427	92	0	0
140	1	713	9	2	3	0.2996	0.1377	1	1	0.515	0	82	0
140	1	714	0	1	1	0.2996	0.1377	0	1	0.709	6	82	82
140	1	715	1	1	3	0.2996	0.1377	0	1	0.531	82	0	0
140	1	716	0	1	3	0.2996	0.1377	1	1	0.507	8	82	0
140	1	717	0	2	3	0.2996	0.1377	0	1	0.494	9	82	82
140	1	718	0	2	3	0.2996	0.1377	1	1	0.619	7	0	82
140	1	719	1	2	2	0.2996	0.1377	1	1	0.538	81	82	0
140	1	720	9	1	3	0.2996	0.1377	1	1	0.503	0	0	82
