sub	sess	t	loc	cue	co1	co2	or	resp	rt
140	1	1	2	2	0.2996	0.1377	0	0	6.047
140	1	2	2	3	0.2996	0.1377	0	1	1.569
140	1	3	2	2	0.2996	0.1377	0	1	1.022
140	1	4	2	2	0.2996	0.1377	0	1	0.721
140	1	5	2	1	0.2996	0.1377	0	0	1.229
140	1	6	1	1	0.2996	0.1377	1	1	0.992
140	1	7	1	1	0.2996	0.1377	1	1	1.257
140	1	8	1	2	0.2996	0.1377	0	1	1.124
140	1	9	1	3	0.2996	0.1377	1	1	0.890
140	1	10	2	2	0.2996	0.1377	0	1	0.892
140	1	11	1	3	0.2996	0.1377	1	1	2.189
140	1	12	2	3	0.2996	0.1377	0	1	0.984
140	1	13	1	3	0.2996	0.1377	0	1	0.953
140	1	14	2	2	0.2996	0.1377	1	1	1.082
140	1	15	1	1	0.2996	0.1377	1	1	0.991
140	1	16	2	2	0.2996	0.1377	0	1	0.739
140	1	17	1	2	0.2996	0.1377	1	1	0.833
140	1	18	2	2	0.2996	0.1377	0	1	0.719
140	1	19	2	3	0.2996	0.1377	1	1	1.041
140	1	20	2	2	0.2996	0.1377	1	1	0.863
140	1	21	1	1	0.2996	0.1377	0	1	0.959
140	1	22	2	3	0.2996	0.1377	0	1	0.779
140	1	23	1	3	0.2996	0.1377	0	1	1.001
140	1	24	2	2	0.2996	0.1377	1	1	0.806
140	1	25	2	1	0.2996	0.1377	1	1	0.778
140	1	26	1	1	0.2996	0.1377	1	1	0.784
140	1	27	1	3	0.2996	0.1377	0	1	0.744
140	1	28	2	2	0.2996	0.1377	1	1	0.775
140	1	29	2	2	0.2996	0.1377	0	1	0.657
140	1	30	1	2	0.2996	0.1377	0	1	0.940
140	1	31	1	3	0.2996	0.1377	1	1	0.733
140	1	32	2	1	0.2996	0.1377	0	1	0.612
140	1	33	1	1	0.2996	0.1377	0	1	0.770
140	1	34	1	1	0.2996	0.1377	1	1	0.716
140	1	35	1	1	0.2996	0.1377	0	1	0.629
140	1	36	1	1	0.2996	0.1377	0	1	0.718
140	1	37	2	3	0.2996	0.1377	1	1	0.639
140	1	38	1	1	0.2996	0.1377	0	1	0.594
140	1	39	2	2	0.2996	0.1377	1	1	0.780
140	1	40	2	2	0.2996	0.1377	1	1	0.630
140	1	41	1	1	0.2996	0.1377	1	1	0.844
140	1	42	2	3	0.2996	0.1377	1	1	0.882
140	1	43	2	1	0.2996	0.1377	1	1	0.739
140	1	44	2	2	0.2996	0.1377	1	1	0.813
140	1	45	2	3	0.2996	0.1377	0	1	0.744
140	1	46	1	3	0.2996	0.1377	0	1	1.178
140	1	47	2	2	0.2996	0.1377	1	1	0.998
140	1	48	1	3	0.2996	0.1377	1	1	0.796
140	1	49	2	3	0.2996	0.1377	1	0	0.631
140	1	50	1	1	0.2996	0.1377	1	1	0.714
140	1	51	2	2	0.2996	0.1377	0	1	0.746
140	1	52	1	1	0.2996	0.1377	0	1	0.936
140	1	53	1	1	0.2996	0.1377	0	1	0.804
140	1	54	1	2	0.2996	0.1377	1	1	1.109
140	1	55	1	1	0.2996	0.1377	1	1	0.694
140	1	56	1	1	0.2996	0.1377	0	1	0.807
140	1	57	1	1	0.2996	0.1377	1	1	0.774
140	1	58	1	3	0.2996	0.1377	0	1	1.075
140	1	59	1	3	0.2996	0.1377	1	1	0.931
140	1	60	1	1	0.2996	0.1377	0	1	0.693
140	1	61	1	1	0.2996	0.1377	0	1	0.976
140	1	62	2	2	0.2996	0.1377	0	1	0.996
140	1	63	1	1	0.2996	0.1377	0	1	0.847
140	1	64	2	2	0.2996	0.1377	1	1	0.759
140	1	65	2	2	0.2996	0.1377	0	1	0.722
140	1	66	2	2	0.2996	0.1377	0	1	0.582
140	1	67	1	1	0.2996	0.1377	0	1	1.639
140	1	68	1	1	0.2996	0.1377	0	1	0.722
140	1	69	1	2	0.2996	0.1377	1	1	0.762
140	1	70	1	1	0.2996	0.1377	0	1	0.727
140	1	71	1	3	0.2996	0.1377	1	1	1.013
140	1	72	2	3	0.2996	0.1377	0	1	0.761
140	1	73	1	2	0.2996	0.1377	0	1	0.804
140	1	74	1	1	0.2996	0.1377	1	1	0.756
140	1	75	2	3	0.2996	0.1377	0	1	0.629
140	1	76	2	2	0.2996	0.1377	1	1	0.788
140	1	77	1	1	0.2996	0.1377	1	1	0.669
140	1	78	2	2	0.2996	0.1377	1	1	1.650
140	1	79	2	2	0.2996	0.1377	0	1	0.700
140	1	80	1	3	0.2996	0.1377	0	1	0.944
140	1	81	2	2	0.2996	0.1377	0	1	0.660
140	1	82	2	1	0.2996	0.1377	1	1	0.758
140	1	83	2	3	0.2996	0.1377	0	1	0.654
140	1	84	2	2	0.2996	0.1377	0	1	0.693
140	1	85	1	1	0.2996	0.1377	0	1	0.768
140	1	86	2	1	0.2996	0.1377	1	1	0.668
140	1	87	1	3	0.2996	0.1377	0	1	1.299
140	1	88	2	2	0.2996	0.1377	0	1	0.618
140	1	89	1	1	0.2996	0.1377	1	1	0.655
140	1	90	1	3	0.2996	0.1377	1	1	0.787
140	1	91	2	1	0.2996	0.1377	0	1	0.544
140	1	92	2	3	0.2996	0.1377	1	1	0.949
140	1	93	2	3	0.2996	0.1377	1	1	0.601
140	1	94	1	1	0.2996	0.1377	1	1	0.861
140	1	95	1	3	0.2996	0.1377	1	1	0.751
140	1	96	1	1	0.2996	0.1377	1	1	0.566
140	1	97	1	1	0.2996	0.1377	1	1	0.668
140	1	98	2	2	0.2996	0.1377	0	1	0.716
140	1	99	1	2	0.2996	0.1377	1	1	0.694
140	1	100	2	2	0.2996	0.1377	1	0	0.925
140	1	101	2	1	0.2996	0.1377	0	1	0.707
140	1	102	2	3	0.2996	0.1377	1	1	0.619
140	1	103	1	2	0.2996	0.1377	0	1	0.758
140	1	104	2	3	0.2996	0.1377	0	1	0.542
140	1	105	2	3	0.2996	0.1377	1	1	0.765
140	1	106	2	2	0.2996	0.1377	1	1	1.062
140	1	107	2	2	0.2996	0.1377	1	0	1.158
140	1	108	1	1	0.2996	0.1377	1	1	1.322
140	1	109	1	3	0.2996	0.1377	0	1	0.746
140	1	110	2	2	0.2996	0.1377	1	1	0.811
140	1	111	1	1	0.2996	0.1377	0	1	0.720
140	1	112	2	2	0.2996	0.1377	1	1	0.676
