sub	sess	t	rew	loc	cue	co1	co2	or	resp	rt	rew_tot	left_col	right_col
148	1	1	1	2	3	0.2162	0.1472	1	1	1.917	50	82	0
148	1	2	9	1	3	0.2162	0.1472	1	1	0.745	0	0	82
148	1	3	1	2	2	0.2162	0.1472	0	1	0.812	54	0	0
148	1	4	0	2	2	0.2162	0.1472	1	1	0.556	8	0	82
148	1	5	1	2	3	0.2162	0.1472	1	0	0.864	0	82	0
148	1	6	1	1	1	0.2162	0.1472	1	1	0.584	77	0	82
148	1	7	1	1	3	0.2162	0.1472	1	1	0.754	60	0	82
148	1	8	1	2	2	0.2162	0.1472	0	1	0.574	78	0	0
148	1	9	1	1	3	0.2162	0.1472	1	1	0.463	89	0	82
148	1	10	1	2	2	0.2162	0.1472	0	1	0.516	83	0	0
148	1	11	9	1	1	0.2162	0.1472	0	1	0.841	0	82	82
148	1	12	1	2	3	0.2162	0.1472	1	1	1.033	50	82	0
148	1	13	0	2	3	0.2162	0.1472	0	1	0.592	8	82	82
148	1	14	1	2	3	0.2162	0.1472	1	1	0.602	75	82	0
148	1	15	1	1	2	0.2162	0.1472	1	0	0.731	0	0	82
148	1	16	1	2	2	0.2162	0.1472	0	1	0.672	68	0	0
148	1	17	0	1	3	0.2162	0.1472	1	1	0.663	7	82	0
148	1	18	9	1	3	0.2162	0.1472	0	1	0.709	0	0	0
148	1	19	0	2	2	0.2162	0.1472	0	1	0.593	8	82	82
148	1	20	1	2	3	0.2162	0.1472	0	1	0.962	50	0	0
148	1	21	1	1	3	0.2162	0.1472	0	1	0.850	50	0	0
148	1	22	0	1	1	0.2162	0.1472	0	1	0.682	7	82	82
148	1	23	0	1	1	0.2162	0.1472	1	1	0.759	6	82	0
148	1	24	9	1	1	0.2162	0.1472	0	1	0.644	0	0	0
148	1	25	0	2	2	0.2162	0.1472	0	1	0.541	8	82	82
148	1	26	0	1	1	0.2162	0.1472	1	1	0.360	10	82	0
148	1	27	0	1	1	0.2162	0.1472	1	0	0.562	0	82	0
148	1	28	1	2	2	0.2162	0.1472	1	1	0.526	82	82	0
148	1	29	9	1	1	0.2162	0.1472	0	1	0.618	0	0	0
148	1	30	1	2	3	0.2162	0.1472	1	1	0.954	50	82	0
148	1	31	1	2	1	0.2162	0.1472	0	1	0.671	68	0	0
148	1	32	0	2	3	0.2162	0.1472	0	1	0.582	8	82	82
148	1	33	1	1	2	0.2162	0.1472	0	0	0.599	0	0	0
148	1	34	0	1	3	0.2162	0.1472	1	0	0.767	0	82	0
148	1	35	1	1	1	0.2162	0.1472	0	1	0.635	71	0	0
148	1	36	0	2	3	0.2162	0.1472	0	1	0.924	5	82	82
148	1	37	0	2	3	0.2162	0.1472	1	1	0.849	5	0	82
148	1	38	0	1	3	0.2162	0.1472	0	1	0.834	5	82	82
148	1	39	0	2	1	0.2162	0.1472	0	1	0.560	8	82	82
148	1	40	1	2	1	0.2162	0.1472	0	1	0.555	79	0	0
148	1	41	0	1	3	0.2162	0.1472	0	1	0.674	7	82	82
148	1	42	1	2	3	0.2162	0.1472	0	1	0.538	81	0	0
148	1	43	1	2	3	0.2162	0.1472	0	1	0.502	85	0	0
148	1	44	0	1	1	0.2162	0.1472	0	1	0.763	6	82	82
148	1	45	1	1	1	0.2162	0.1472	1	1	0.653	70	0	82
148	1	46	1	1	3	0.2162	0.1472	1	1	0.571	78	0	82
148	1	47	9	1	1	0.2162	0.1472	1	1	0.495	0	82	0
148	1	48	0	2	2	0.2162	0.1472	1	0	0.524	0	0	82
148	1	49	9	1	3	0.2162	0.1472	0	1	0.679	0	82	82
148	1	50	0	1	1	0.2162	0.1472	0	1	0.597	8	82	82
148	1	51	1	1	3	0.2162	0.1472	1	1	0.808	54	0	82
148	1	52	9	1	3	0.2162	0.1472	0	1	0.754	0	0	0
148	1	53	0	2	3	0.2162	0.1472	1	1	0.838	5	0	82
148	1	54	9	2	3	0.2162	0.1472	1	1	0.831	0	82	0
148	1	55	9	2	2	0.2162	0.1472	0	1	0.575	0	82	82
148	1	56	1	2	3	0.2162	0.1472	1	1	0.712	64	82	0
148	1	57	1	1	3	0.2162	0.1472	0	1	0.710	64	0	0
148	1	58	9	1	3	0.2162	0.1472	0	1	0.564	0	82	82
148	1	59	0	1	3	0.2162	0.1472	0	1	0.877	5	82	82
148	1	60	0	1	2	0.2162	0.1472	1	0	0.779	0	82	0
148	1	61	1	1	3	0.2162	0.1472	1	1	0.630	72	0	82
148	1	62	1	2	2	0.2162	0.1472	0	1	0.560	79	0	0
148	1	63	0	1	2	0.2162	0.1472	0	1	0.708	6	82	82
148	1	64	1	1	3	0.2162	0.1472	0	1	0.618	73	0	0
148	1	65	1	2	2	0.2162	0.1472	1	1	0.857	50	82	0
148	1	66	1	1	1	0.2162	0.1472	0	1	0.614	74	0	0
148	1	67	9	1	1	0.2162	0.1472	1	1	0.991	0	82	0
148	1	68	0	2	2	0.2162	0.1472	0	1	0.480	9	82	82
148	1	69	1	2	1	0.2162	0.1472	0	1	0.760	59	0	0
148	1	70	0	2	2	0.2162	0.1472	1	0	0.569	0	0	82
148	1	71	9	1	1	0.2162	0.1472	0	1	0.708	0	82	82
148	1	72	0	1	1	0.2162	0.1472	1	1	0.610	7	82	0
148	1	73	1	2	2	0.2162	0.1472	0	1	0.572	78	0	0
148	1	74	0	1	3	0.2162	0.1472	0	1	0.710	6	82	82
148	1	75	9	1	1	0.2162	0.1472	1	1	0.612	0	0	82
148	1	76	0	1	3	0.2162	0.1472	0	1	0.718	6	82	82
148	1	77	1	2	2	0.2162	0.1472	1	1	0.876	50	82	0
148	1	78	1	1	2	0.2162	0.1472	0	0	0.745	0	0	0
148	1	79	1	1	2	0.2162	0.1472	0	1	0.748	60	0	0
148	1	80	1	1	3	0.2162	0.1472	1	1	0.750	60	0	82
148	1	81	1	2	2	0.2162	0.1472	0	1	0.627	72	0	0
148	1	82	9	1	1	0.2162	0.1472	0	0	0.817	0	82	82
148	1	83	1	2	2	0.2162	0.1472	1	1	1.320	50	82	0
148	1	84	0	2	3	0.2162	0.1472	0	1	0.693	7	82	82
148	1	85	0	1	3	0.2162	0.1472	1	1	1.002	5	82	0
148	1	86	1	1	3	0.2162	0.1472	1	1	0.675	67	0	82
148	1	87	1	1	3	0.2162	0.1472	1	1	0.578	77	0	82
148	1	88	1	1	3	0.2162	0.1472	0	1	0.547	80	0	0
148	1	89	9	1	1	0.2162	0.1472	1	1	0.605	0	0	82
148	1	90	0	1	3	0.2162	0.1472	0	1	0.646	7	82	82
148	1	91	1	1	3	0.2162	0.1472	0	1	0.543	81	0	0
148	1	92	0	1	3	0.2162	0.1472	0	1	0.705	6	82	82
148	1	93	0	2	2	0.2162	0.1472	1	1	0.735	6	0	82
148	1	94	0	1	3	0.2162	0.1472	0	1	0.465	9	82	82
148	1	95	0	2	2	0.2162	0.1472	1	1	0.769	6	0	82
148	1	96	0	2	1	0.2162	0.1472	0	1	0.585	8	82	82
148	1	97	0	2	3	0.2162	0.1472	1	1	0.571	8	0	82
148	1	98	0	1	3	0.2162	0.1472	0	1	0.565	8	82	82
148	1	99	9	2	2	0.2162	0.1472	1	1	0.640	0	82	0
148	1	100	0	1	2	0.2162	0.1472	0	0	0.624	0	82	82
148	1	101	9	2	2	0.2162	0.1472	0	1	0.607	0	0	0
148	1	102	1	2	3	0.2162	0.1472	0	1	0.569	78	0	0
148	1	103	9	1	3	0.2162	0.1472	1	1	0.621	0	82	0
148	1	104	0	2	2	0.2162	0.1472	0	1	0.608	7	82	82
148	1	105	1	2	3	0.2162	0.1472	0	1	0.465	88	0	0
148	1	106	1	2	3	0.2162	0.1472	0	1	0.575	78	0	0
148	1	107	0	2	2	0.2162	0.1472	0	1	0.515	8	82	82
148	1	108	0	1	3	0.2162	0.1472	1	1	0.598	8	82	0
148	1	109	9	2	3	0.2162	0.1472	1	1	0.613	0	0	82
148	1	110	0	1	1	0.2162	0.1472	0	0	0.732	0	82	82
148	1	111	1	2	2	0.2162	0.1472	1	1	1.025	50	82	0
148	1	112	0	1	1	0.2162	0.1472	0	1	0.656	7	82	82
148	1	113	9	1	2	0.2162	0.1472	0	1	0.926	0	0	0
148	1	114	1	2	2	0.2162	0.1472	0	1	0.568	78	0	0
148	1	115	0	2	3	0.2162	0.1472	0	1	0.537	8	82	82
148	1	116	9	2	2	0.2162	0.1472	1	0	0.549	0	0	82
148	1	117	1	1	3	0.2162	0.1472	0	1	1.257	50	0	0
148	1	118	1	2	2	0.2162	0.1472	0	0	0.759	0	0	0
148	1	119	1	1	1	0.2162	0.1472	0	1	0.833	52	0	0
148	1	120	0	1	3	0.2162	0.1472	1	0	0.731	0	82	0
148	1	121	9	1	2	0.2162	0.1472	1	1	0.783	0	82	0
148	1	122	0	2	1	0.2162	0.1472	0	1	0.519	8	82	82
148	1	123	0	1	1	0.2162	0.1472	0	1	0.651	7	82	82
148	1	124	1	1	1	0.2162	0.1472	0	1	0.680	67	0	0
148	1	125	0	1	2	0.2162	0.1472	0	1	0.606	7	82	82
148	1	126	1	1	3	0.2162	0.1472	0	1	0.702	65	0	0
148	1	127	1	1	3	0.2162	0.1472	1	0	0.787	0	0	82
148	1	128	1	1	3	0.2162	0.1472	1	1	0.743	61	0	82
148	1	129	0	1	3	0.2162	0.1472	1	1	0.539	8	82	0
148	1	130	1	1	3	0.2162	0.1472	0	1	0.607	74	0	0
148	1	131	0	1	2	0.2162	0.1472	1	1	0.649	7	82	0
148	1	132	1	1	1	0.2162	0.1472	0	1	0.714	64	0	0
148	1	133	1	1	1	0.2162	0.1472	1	1	0.734	62	0	82
148	1	134	0	1	3	0.2162	0.1472	1	1	0.748	6	82	0
148	1	135	1	2	3	0.2162	0.1472	0	1	0.521	83	0	0
148	1	136	0	2	3	0.2162	0.1472	1	1	0.541	8	0	82
148	1	137	9	2	1	0.2162	0.1472	0	1	0.513	0	0	0
148	1	138	1	2	1	0.2162	0.1472	1	1	0.612	74	82	0
148	1	139	0	2	3	0.2162	0.1472	0	1	0.437	9	82	82
148	1	140	0	2	3	0.2162	0.1472	0	1	0.470	9	82	82
148	1	141	1	1	2	0.2162	0.1472	1	1	0.500	85	0	82
148	1	142	0	2	2	0.2162	0.1472	1	1	0.626	7	0	82
148	1	143	0	2	3	0.2162	0.1472	1	1	0.609	7	0	82
148	1	144	0	2	3	0.2162	0.1472	0	1	0.505	8	82	82
148	1	145	1	2	3	0.2162	0.1472	1	1	0.504	85	82	0
148	1	146	0	2	3	0.2162	0.1472	1	1	0.627	7	0	82
148	1	147	1	1	1	0.2162	0.1472	0	0	0.842	0	0	0
148	1	148	9	1	3	0.2162	0.1472	0	1	0.721	0	0	0
148	1	149	9	1	1	0.2162	0.1472	0	1	0.830	0	0	0
148	1	150	1	2	2	0.2162	0.1472	1	0	1.255	0	82	0
148	1	151	0	1	1	0.2162	0.1472	1	0	0.767	0	82	0
148	1	152	0	1	1	0.2162	0.1472	1	1	0.497	9	82	0
148	1	153	0	1	1	0.2162	0.1472	1	1	0.679	7	82	0
148	1	154	0	2	1	0.2162	0.1472	1	1	1.004	5	0	82
148	1	155	9	2	1	0.2162	0.1472	0	1	0.606	0	82	82
148	1	156	1	1	3	0.2162	0.1472	1	1	0.561	79	0	82
148	1	157	0	1	3	0.2162	0.1472	0	1	0.941	5	82	82
148	1	158	0	2	2	0.2162	0.1472	0	1	0.720	6	82	82
148	1	159	1	2	3	0.2162	0.1472	0	1	0.509	84	0	0
148	1	160	0	1	3	0.2162	0.1472	1	1	0.562	8	82	0
148	1	161	9	1	3	0.2162	0.1472	1	1	0.598	0	82	0
148	1	162	1	1	1	0.2162	0.1472	0	1	0.510	84	0	0
148	1	163	1	1	1	0.2162	0.1472	1	1	0.491	86	0	82
148	1	164	0	2	3	0.2162	0.1472	0	1	0.601	7	82	82
148	1	165	1	1	3	0.2162	0.1472	0	1	0.857	50	0	0
148	1	166	1	1	1	0.2162	0.1472	1	1	0.665	68	0	82
148	1	167	0	2	1	0.2162	0.1472	0	1	0.498	9	82	82
148	1	168	1	2	2	0.2162	0.1472	0	1	0.503	85	0	0
148	1	169	0	1	1	0.2162	0.1472	1	1	0.654	7	82	0
148	1	170	9	1	1	0.2162	0.1472	1	1	0.630	0	82	0
148	1	171	9	1	3	0.2162	0.1472	1	1	0.584	0	82	0
148	1	172	0	1	3	0.2162	0.1472	1	1	0.512	8	82	0
148	1	173	1	2	1	0.2162	0.1472	0	1	0.886	50	0	0
148	1	174	1	2	2	0.2162	0.1472	1	1	0.675	67	82	0
148	1	175	0	1	2	0.2162	0.1472	1	1	0.603	7	82	0
148	1	176	0	1	1	0.2162	0.1472	1	1	0.508	8	82	0
148	1	177	1	2	2	0.2162	0.1472	0	1	0.552	80	0	0
148	1	178	0	2	2	0.2162	0.1472	1	1	0.691	7	0	82
148	1	179	1	2	3	0.2162	0.1472	1	1	0.618	73	82	0
148	1	180	9	2	2	0.2162	0.1472	0	1	0.570	0	82	82
148	1	181	1	2	3	0.2162	0.1472	0	1	0.646	70	0	0
148	1	182	0	2	2	0.2162	0.1472	1	1	0.566	8	0	82
148	1	183	0	2	3	0.2162	0.1472	1	1	0.576	8	0	82
148	1	184	1	1	3	0.2162	0.1472	1	0	1.010	0	0	82
148	1	185	0	1	3	0.2162	0.1472	0	1	0.682	7	82	82
148	1	186	9	2	3	0.2162	0.1472	0	1	0.826	0	0	0
148	1	187	0	2	3	0.2162	0.1472	1	1	0.585	8	0	82
148	1	188	9	1	1	0.2162	0.1472	1	1	1.005	0	0	82
148	1	189	0	1	1	0.2162	0.1472	1	1	0.598	8	82	0
148	1	190	9	2	2	0.2162	0.1472	1	1	0.631	0	82	0
148	1	191	9	2	2	0.2162	0.1472	0	1	0.592	0	0	0
148	1	192	9	2	3	0.2162	0.1472	0	1	0.441	0	0	0
148	1	193	0	1	1	0.2162	0.1472	0	0	0.568	0	82	82
148	1	194	0	2	3	0.2162	0.1472	1	1	0.978	5	0	82
148	1	195	9	1	3	0.2162	0.1472	0	1	0.678	0	82	82
148	1	196	1	1	1	0.2162	0.1472	1	1	0.731	62	0	82
148	1	197	0	2	3	0.2162	0.1472	1	0	0.671	0	0	82
148	1	198	0	1	1	0.2162	0.1472	1	1	0.727	6	82	0
148	1	199	0	2	3	0.2162	0.1472	0	1	0.665	7	82	82
148	1	200	1	2	3	0.2162	0.1472	1	1	1.072	50	82	0
148	1	201	1	1	2	0.2162	0.1472	1	1	0.641	71	0	82
148	1	202	1	1	3	0.2162	0.1472	1	1	0.560	79	0	82
148	1	203	0	1	1	0.2162	0.1472	0	1	0.682	7	82	82
148	1	204	1	1	3	0.2162	0.1472	1	1	0.720	63	0	82
148	1	205	1	2	3	0.2162	0.1472	1	1	0.814	54	82	0
148	1	206	1	1	3	0.2162	0.1472	1	1	0.742	61	0	82
148	1	207	9	2	3	0.2162	0.1472	1	1	0.720	0	0	82
148	1	208	0	2	3	0.2162	0.1472	1	1	0.895	5	0	82
148	1	209	1	2	2	0.2162	0.1472	1	1	0.715	63	82	0
148	1	210	1	2	3	0.2162	0.1472	1	1	0.839	51	82	0
148	1	211	1	2	1	0.2162	0.1472	1	1	0.774	58	82	0
148	1	212	0	2	3	0.2162	0.1472	1	1	0.776	6	0	82
148	1	213	0	2	2	0.2162	0.1472	0	0	0.849	0	82	82
148	1	214	0	1	1	0.2162	0.1472	0	0	1.017	0	82	82
148	1	215	1	1	1	0.2162	0.1472	1	1	1.072	50	0	82
148	1	216	0	1	1	0.2162	0.1472	1	0	0.847	0	82	0
148	1	217	9	1	3	0.2162	0.1472	1	1	0.613	0	82	0
148	1	218	1	1	3	0.2162	0.1472	0	1	0.607	74	0	0
148	1	219	1	2	2	0.2162	0.1472	1	1	0.719	63	82	0
148	1	220	1	1	1	0.2162	0.1472	0	1	0.661	69	0	0
148	1	221	1	2	1	0.2162	0.1472	1	1	0.820	53	82	0
148	1	222	1	2	2	0.2162	0.1472	1	1	0.638	71	82	0
148	1	223	1	1	3	0.2162	0.1472	0	1	0.775	58	0	0
148	1	224	0	2	2	0.2162	0.1472	0	0	0.769	0	82	82
148	1	225	1	2	3	0.2162	0.1472	0	1	0.515	83	0	0
148	1	226	1	1	2	0.2162	0.1472	1	1	1.145	50	0	82
148	1	227	0	1	1	0.2162	0.1472	1	1	0.572	8	82	0
148	1	228	9	2	2	0.2162	0.1472	1	1	1.406	0	0	82
148	1	229	1	2	3	0.2162	0.1472	0	1	0.727	62	0	0
148	1	230	1	1	1	0.2162	0.1472	0	1	0.850	50	0	0
148	1	231	1	2	2	0.2162	0.1472	1	1	0.698	65	82	0
148	1	232	0	1	2	0.2162	0.1472	1	1	0.704	6	82	0
148	1	233	1	1	1	0.2162	0.1472	0	1	0.607	74	0	0
148	1	234	0	1	1	0.2162	0.1472	0	1	0.690	7	82	82
148	1	235	1	2	3	0.2162	0.1472	0	1	0.726	62	0	0
148	1	236	9	2	3	0.2162	0.1472	1	1	0.586	0	82	0
148	1	237	0	2	2	0.2162	0.1472	0	1	0.572	8	82	82
148	1	238	0	2	3	0.2162	0.1472	1	1	1.496	5	0	82
148	1	239	9	1	1	0.2162	0.1472	0	1	1.046	0	82	82
148	1	240	0	1	1	0.2162	0.1472	0	1	0.718	6	82	82
148	1	241	0	2	2	0.2162	0.1472	0	1	0.670	7	82	82
148	1	242	0	2	2	0.2162	0.1472	0	1	0.516	8	82	82
148	1	243	9	2	3	0.2162	0.1472	0	1	0.520	0	82	82
148	1	244	0	1	1	0.2162	0.1472	1	1	0.509	8	82	0
148	1	245	1	2	3	0.2162	0.1472	1	1	0.617	73	82	0
148	1	246	9	1	3	0.2162	0.1472	1	1	0.649	0	0	82
148	1	247	9	2	3	0.2162	0.1472	1	1	0.785	0	82	0
148	1	248	9	1	3	0.2162	0.1472	1	1	0.876	0	0	82
148	1	249	0	2	3	0.2162	0.1472	1	1	1.105	5	0	82
148	1	250	0	2	3	0.2162	0.1472	0	1	0.680	7	82	82
148	1	251	1	2	3	0.2162	0.1472	0	1	0.527	82	0	0
148	1	252	1	1	1	0.2162	0.1472	0	1	0.835	52	0	0
148	1	253	9	1	3	0.2162	0.1472	1	1	0.939	0	0	82
148	1	254	9	1	1	0.2162	0.1472	1	0	0.753	0	82	0
148	1	255	1	1	3	0.2162	0.1472	0	0	0.707	0	0	0
148	1	256	0	1	3	0.2162	0.1472	0	1	0.999	5	82	82
148	1	257	9	2	2	0.2162	0.1472	1	1	2.002	0	0	82
148	1	258	0	2	1	0.2162	0.1472	1	1	0.722	6	0	82
148	1	259	0	1	2	0.2162	0.1472	0	1	0.817	5	82	82
148	1	260	0	1	3	0.2162	0.1472	0	1	0.601	7	82	82
148	1	261	1	1	1	0.2162	0.1472	1	1	1.092	50	0	82
148	1	262	0	1	1	0.2162	0.1472	0	1	0.706	6	82	82
148	1	263	0	2	2	0.2162	0.1472	0	1	0.624	7	82	82
148	1	264	1	1	1	0.2162	0.1472	1	1	0.598	75	0	82
148	1	265	9	2	3	0.2162	0.1472	0	1	0.585	0	82	82
148	1	266	9	2	2	0.2162	0.1472	0	1	0.452	0	82	82
148	1	267	1	2	2	0.2162	0.1472	1	1	0.539	81	82	0
148	1	268	0	1	1	0.2162	0.1472	0	1	0.879	5	82	82
148	1	269	1	1	3	0.2162	0.1472	0	1	0.734	62	0	0
148	1	270	0	1	3	0.2162	0.1472	0	1	0.682	7	82	82
148	1	271	0	2	2	0.2162	0.1472	1	0	1.335	0	0	82
148	1	272	0	2	3	0.2162	0.1472	1	1	0.924	5	0	82
148	1	273	0	1	3	0.2162	0.1472	1	1	0.904	5	82	0
148	1	274	9	2	3	0.2162	0.1472	1	0	0.869	0	0	82
148	1	275	9	2	2	0.2162	0.1472	0	1	0.557	0	82	82
148	1	276	9	1	1	0.2162	0.1472	1	1	0.664	0	0	82
148	1	277	1	2	2	0.2162	0.1472	1	1	0.632	72	82	0
148	1	278	0	2	2	0.2162	0.1472	0	1	0.626	7	82	82
148	1	279	0	1	3	0.2162	0.1472	1	1	0.987	5	82	0
148	1	280	1	2	1	0.2162	0.1472	1	1	0.644	71	82	0
148	1	281	1	1	1	0.2162	0.1472	1	1	0.641	71	0	82
148	1	282	1	1	1	0.2162	0.1472	0	1	0.585	77	0	0
148	1	283	1	2	2	0.2162	0.1472	0	1	0.636	71	0	0
148	1	284	0	1	1	0.2162	0.1472	1	1	0.588	8	82	0
148	1	285	9	2	2	0.2162	0.1472	1	1	0.622	0	0	82
148	1	286	1	2	3	0.2162	0.1472	1	1	0.526	82	82	0
148	1	287	0	1	3	0.2162	0.1472	1	1	0.802	5	82	0
148	1	288	0	2	2	0.2162	0.1472	0	1	0.460	9	82	82
148	1	289	0	1	1	0.2162	0.1472	0	1	0.626	7	82	82
148	1	290	1	1	1	0.2162	0.1472	1	1	0.585	77	0	82
148	1	291	9	2	1	0.2162	0.1472	1	1	0.891	0	82	0
148	1	292	9	2	2	0.2162	0.1472	1	1	0.584	0	82	0
148	1	293	9	1	2	0.2162	0.1472	1	1	0.586	0	0	82
148	1	294	0	1	3	0.2162	0.1472	1	1	0.469	9	82	0
148	1	295	0	2	2	0.2162	0.1472	0	1	0.747	6	82	82
148	1	296	0	2	1	0.2162	0.1472	1	1	0.886	5	0	82
148	1	297	1	2	2	0.2162	0.1472	0	1	0.539	81	0	0
148	1	298	9	1	3	0.2162	0.1472	0	1	0.791	0	82	82
148	1	299	0	2	1	0.2162	0.1472	1	1	0.833	5	0	82
148	1	300	0	1	3	0.2162	0.1472	1	1	0.897	5	82	0
148	1	301	0	2	2	0.2162	0.1472	1	1	0.729	6	0	82
148	1	302	1	2	2	0.2162	0.1472	1	1	0.606	74	82	0
148	1	303	1	2	2	0.2162	0.1472	0	0	0.647	0	0	0
148	1	304	0	2	2	0.2162	0.1472	1	1	0.936	5	0	82
148	1	305	1	1	1	0.2162	0.1472	0	1	0.598	75	0	0
148	1	306	9	2	3	0.2162	0.1472	0	1	0.784	0	0	0
148	1	307	0	2	2	0.2162	0.1472	1	1	0.593	8	0	82
148	1	308	1	2	2	0.2162	0.1472	1	1	0.595	76	82	0
148	1	309	9	1	1	0.2162	0.1472	0	1	0.700	0	0	0
148	1	310	1	2	2	0.2162	0.1472	0	1	0.911	50	0	0
148	1	311	0	1	3	0.2162	0.1472	1	1	0.852	5	82	0
148	1	312	9	2	2	0.2162	0.1472	0	1	0.579	0	0	0
148	1	313	1	2	3	0.2162	0.1472	0	1	0.564	79	0	0
148	1	314	9	2	3	0.2162	0.1472	0	1	0.600	0	0	0
148	1	315	9	2	3	0.2162	0.1472	0	1	0.503	0	82	82
148	1	316	9	2	3	0.2162	0.1472	1	1	0.642	0	82	0
148	1	317	0	1	3	0.2162	0.1472	0	0	0.633	0	82	82
148	1	318	0	2	3	0.2162	0.1472	0	1	0.511	8	82	82
148	1	319	0	2	3	0.2162	0.1472	0	1	0.541	8	82	82
148	1	320	0	2	3	0.2162	0.1472	0	1	0.471	9	82	82
148	1	321	1	2	3	0.2162	0.1472	0	1	0.624	73	0	0
148	1	322	1	1	1	0.2162	0.1472	0	1	0.496	85	0	0
148	1	323	1	1	2	0.2162	0.1472	0	0	0.629	0	0	0
148	1	324	1	1	1	0.2162	0.1472	1	1	0.621	73	0	82
148	1	325	0	2	2	0.2162	0.1472	1	0	0.519	0	0	82
148	1	326	1	2	3	0.2162	0.1472	0	1	0.588	76	0	0
148	1	327	9	1	3	0.2162	0.1472	0	1	0.678	0	0	0
148	1	328	1	1	1	0.2162	0.1472	1	1	0.548	80	0	82
148	1	329	0	2	3	0.2162	0.1472	1	1	0.712	6	0	82
148	1	330	0	2	2	0.2162	0.1472	1	1	0.676	7	0	82
148	1	331	1	2	3	0.2162	0.1472	1	1	0.754	60	82	0
148	1	332	1	1	3	0.2162	0.1472	0	1	0.813	54	0	0
148	1	333	1	2	2	0.2162	0.1472	1	1	0.648	70	82	0
148	1	334	1	1	1	0.2162	0.1472	0	1	0.663	69	0	0
148	1	335	1	2	3	0.2162	0.1472	1	1	1.119	50	82	0
148	1	336	9	2	3	0.2162	0.1472	1	1	0.769	0	0	82
148	1	337	0	2	2	0.2162	0.1472	1	1	0.621	7	0	82
148	1	338	1	1	1	0.2162	0.1472	0	1	1.048	50	0	0
148	1	339	1	2	2	0.2162	0.1472	0	0	0.621	0	0	0
148	1	340	0	1	3	0.2162	0.1472	0	0	0.967	0	82	82
148	1	341	1	1	1	0.2162	0.1472	1	1	0.838	51	0	82
148	1	342	1	1	1	0.2162	0.1472	1	1	0.608	74	0	82
148	1	343	9	2	2	0.2162	0.1472	1	1	0.784	0	82	0
148	1	344	1	1	3	0.2162	0.1472	1	1	0.746	60	0	82
148	1	345	0	2	2	0.2162	0.1472	1	1	0.798	6	0	82
148	1	346	9	2	2	0.2162	0.1472	0	1	1.009	0	0	0
148	1	347	0	1	1	0.2162	0.1472	0	1	0.700	7	82	82
148	1	348	1	1	3	0.2162	0.1472	0	1	1.354	50	0	0
148	1	349	0	2	3	0.2162	0.1472	0	1	0.693	7	82	82
148	1	350	1	1	3	0.2162	0.1472	0	1	0.723	63	0	0
148	1	351	0	1	1	0.2162	0.1472	0	1	0.618	7	82	82
148	1	352	0	1	1	0.2162	0.1472	1	0	0.691	0	82	0
148	1	353	0	1	3	0.2162	0.1472	1	1	0.615	7	82	0
148	1	354	9	2	3	0.2162	0.1472	0	1	0.599	0	82	82
148	1	355	1	1	1	0.2162	0.1472	1	1	0.569	78	0	82
148	1	356	1	2	3	0.2162	0.1472	1	1	0.772	58	82	0
148	1	357	9	1	2	0.2162	0.1472	0	1	0.671	0	82	82
148	1	358	9	2	1	0.2162	0.1472	1	1	0.684	0	0	82
148	1	359	0	2	2	0.2162	0.1472	0	1	0.620	7	82	82
148	1	360	0	2	3	0.2162	0.1472	0	1	0.595	8	82	82
148	1	361	1	2	3	0.2162	0.1472	1	1	0.671	68	82	0
148	1	362	0	2	3	0.2162	0.1472	1	1	0.612	7	0	82
148	1	363	0	2	2	0.2162	0.1472	1	1	0.653	7	0	82
148	1	364	1	1	3	0.2162	0.1472	1	1	0.998	50	0	82
148	1	365	1	2	2	0.2162	0.1472	1	1	0.911	50	82	0
148	1	366	1	2	2	0.2162	0.1472	1	1	0.700	65	82	0
148	1	367	1	1	3	0.2162	0.1472	0	1	0.721	63	0	0
148	1	368	1	2	3	0.2162	0.1472	1	1	0.646	70	82	0
148	1	369	0	2	2	0.2162	0.1472	0	1	0.549	8	82	82
148	1	370	1	2	2	0.2162	0.1472	0	1	0.585	76	0	0
148	1	371	1	1	1	0.2162	0.1472	0	1	0.546	80	0	0
148	1	372	9	2	3	0.2162	0.1472	0	1	0.510	0	82	82
148	1	373	9	2	1	0.2162	0.1472	0	1	0.450	0	82	82
148	1	374	1	2	1	0.2162	0.1472	0	1	0.536	81	0	0
148	1	375	0	2	1	0.2162	0.1472	1	1	0.725	6	0	82
148	1	376	9	1	1	0.2162	0.1472	1	1	0.632	0	0	82
148	1	377	1	2	2	0.2162	0.1472	1	1	0.575	78	82	0
148	1	378	0	1	3	0.2162	0.1472	0	1	0.791	6	82	82
148	1	379	0	2	3	0.2162	0.1472	0	0	0.688	0	82	82
148	1	380	1	1	1	0.2162	0.1472	1	1	0.580	77	0	82
148	1	381	0	1	1	0.2162	0.1472	1	1	0.588	8	82	0
148	1	382	1	1	1	0.2162	0.1472	0	1	0.574	78	0	0
148	1	383	0	1	3	0.2162	0.1472	0	1	0.633	7	82	82
148	1	384	0	2	1	0.2162	0.1472	1	1	0.938	5	0	82
148	1	385	9	1	1	0.2162	0.1472	0	1	0.566	0	82	82
148	1	386	1	2	3	0.2162	0.1472	0	1	0.682	67	0	0
148	1	387	1	2	2	0.2162	0.1472	1	1	0.630	72	82	0
148	1	388	0	2	2	0.2162	0.1472	0	1	0.520	8	82	82
148	1	389	0	1	1	0.2162	0.1472	0	1	0.587	8	82	82
148	1	390	1	1	1	0.2162	0.1472	0	1	0.611	74	0	0
148	1	391	0	1	3	0.2162	0.1472	0	1	0.589	8	82	82
148	1	392	9	2	2	0.2162	0.1472	0	1	0.601	0	82	82
148	1	393	1	2	3	0.2162	0.1472	1	1	0.689	66	82	0
148	1	394	0	2	3	0.2162	0.1472	0	1	0.496	9	82	82
148	1	395	1	2	3	0.2162	0.1472	1	1	0.660	69	82	0
148	1	396	1	1	1	0.2162	0.1472	1	0	0.638	0	0	82
148	1	397	1	2	3	0.2162	0.1472	1	1	0.638	71	82	0
148	1	398	1	1	3	0.2162	0.1472	1	1	0.637	71	0	82
148	1	399	0	2	2	0.2162	0.1472	1	1	0.812	5	0	82
148	1	400	9	1	1	0.2162	0.1472	0	1	0.567	0	0	0
148	1	401	0	1	1	0.2162	0.1472	1	1	0.571	8	82	0
148	1	402	0	1	2	0.2162	0.1472	1	1	0.543	8	82	0
148	1	403	9	2	2	0.2162	0.1472	0	1	0.507	0	82	82
148	1	404	1	2	2	0.2162	0.1472	0	1	0.512	84	0	0
148	1	405	9	1	3	0.2162	0.1472	0	0	0.587	0	82	82
148	1	406	1	1	1	0.2162	0.1472	0	1	0.533	82	0	0
148	1	407	0	1	3	0.2162	0.1472	0	1	0.752	6	82	82
148	1	408	1	1	3	0.2162	0.1472	1	1	0.660	69	0	82
148	1	409	0	1	2	0.2162	0.1472	1	1	0.515	8	82	0
148	1	410	1	1	1	0.2162	0.1472	1	1	0.391	96	0	82
148	1	411	0	2	3	0.2162	0.1472	1	1	0.849	5	0	82
148	1	412	0	2	3	0.2162	0.1472	1	1	0.737	6	0	82
148	1	413	1	1	1	0.2162	0.1472	1	1	0.549	80	0	82
148	1	414	1	2	3	0.2162	0.1472	0	1	0.576	77	0	0
148	1	415	1	1	3	0.2162	0.1472	1	1	0.595	75	0	82
148	1	416	1	1	3	0.2162	0.1472	1	1	0.532	82	0	82
148	1	417	1	2	2	0.2162	0.1472	0	1	0.576	77	0	0
148	1	418	0	1	1	0.2162	0.1472	0	1	0.572	8	82	82
148	1	419	1	2	2	0.2162	0.1472	0	1	0.477	87	0	0
148	1	420	1	1	1	0.2162	0.1472	1	1	0.531	82	0	82
148	1	421	0	1	1	0.2162	0.1472	0	1	0.544	8	82	82
148	1	422	0	1	1	0.2162	0.1472	1	0	0.826	0	82	0
148	1	423	9	1	1	0.2162	0.1472	1	1	0.690	0	0	82
148	1	424	0	1	1	0.2162	0.1472	1	1	0.585	8	82	0
148	1	425	1	2	3	0.2162	0.1472	0	1	0.579	77	0	0
148	1	426	1	2	3	0.2162	0.1472	0	1	0.636	71	0	0
148	1	427	9	1	1	0.2162	0.1472	1	1	0.517	0	82	0
148	1	428	0	1	3	0.2162	0.1472	0	1	0.665	7	82	82
148	1	429	0	2	3	0.2162	0.1472	1	1	0.687	7	0	82
148	1	430	0	1	3	0.2162	0.1472	0	1	0.621	7	82	82
148	1	431	0	2	2	0.2162	0.1472	0	1	0.566	8	82	82
148	1	432	1	2	3	0.2162	0.1472	1	1	0.528	82	82	0
148	1	433	9	2	3	0.2162	0.1472	1	1	0.629	0	0	82
148	1	434	1	2	2	0.2162	0.1472	0	1	0.509	84	0	0
148	1	435	9	1	3	0.2162	0.1472	1	1	0.489	0	82	0
148	1	436	0	2	3	0.2162	0.1472	0	1	0.685	7	82	82
148	1	437	1	2	3	0.2162	0.1472	1	1	0.690	66	82	0
148	1	438	1	2	2	0.2162	0.1472	1	1	0.520	83	82	0
148	1	439	9	2	3	0.2162	0.1472	0	0	0.766	0	0	0
148	1	440	0	2	3	0.2162	0.1472	0	1	0.482	9	82	82
148	1	441	0	1	2	0.2162	0.1472	1	1	0.597	8	82	0
148	1	442	0	1	1	0.2162	0.1472	1	1	0.518	8	82	0
148	1	443	0	1	3	0.2162	0.1472	0	1	0.618	7	82	82
148	1	444	1	1	2	0.2162	0.1472	0	1	0.724	63	0	0
148	1	445	1	2	2	0.2162	0.1472	1	0	0.561	0	82	0
148	1	446	9	1	3	0.2162	0.1472	0	1	0.802	0	0	0
148	1	447	9	2	3	0.2162	0.1472	1	1	0.563	0	82	0
148	1	448	9	2	2	0.2162	0.1472	1	1	0.533	0	0	82
148	1	449	1	2	2	0.2162	0.1472	0	1	0.544	81	0	0
148	1	450	0	1	3	0.2162	0.1472	1	1	0.692	7	82	0
148	1	451	0	1	1	0.2162	0.1472	1	1	0.592	8	82	0
148	1	452	9	2	1	0.2162	0.1472	1	1	0.664	0	82	0
148	1	453	1	1	3	0.2162	0.1472	0	1	0.782	57	0	0
148	1	454	0	2	3	0.2162	0.1472	1	1	0.863	5	0	82
148	1	455	0	1	1	0.2162	0.1472	0	1	0.670	7	82	82
148	1	456	0	2	2	0.2162	0.1472	1	1	0.895	5	0	82
148	1	457	0	2	2	0.2162	0.1472	0	1	0.653	7	82	82
148	1	458	0	1	1	0.2162	0.1472	0	1	0.614	7	82	82
148	1	459	1	2	3	0.2162	0.1472	1	1	0.752	60	82	0
148	1	460	9	2	2	0.2162	0.1472	1	1	0.573	0	82	0
148	1	461	0	2	2	0.2162	0.1472	1	1	0.744	6	0	82
148	1	462	0	1	1	0.2162	0.1472	1	1	0.674	7	82	0
148	1	463	1	2	2	0.2162	0.1472	0	1	0.542	81	0	0
148	1	464	1	2	2	0.2162	0.1472	0	1	0.476	87	0	0
148	1	465	0	2	1	0.2162	0.1472	1	0	0.594	0	0	82
148	1	466	1	2	3	0.2162	0.1472	0	1	0.474	88	0	0
148	1	467	0	2	3	0.2162	0.1472	0	1	0.471	9	82	82
148	1	468	9	1	2	0.2162	0.1472	0	0	0.701	0	0	0
148	1	469	1	1	3	0.2162	0.1472	1	1	0.610	74	0	82
148	1	470	1	1	1	0.2162	0.1472	1	1	0.549	80	0	82
148	1	471	1	1	2	0.2162	0.1472	1	1	0.682	67	0	82
148	1	472	1	2	2	0.2162	0.1472	1	1	0.599	75	82	0
148	1	473	0	2	2	0.2162	0.1472	0	1	0.546	8	82	82
148	1	474	9	2	3	0.2162	0.1472	1	1	0.765	0	0	82
148	1	475	0	2	2	0.2162	0.1472	0	1	0.535	8	82	82
148	1	476	1	1	1	0.2162	0.1472	0	1	0.675	67	0	0
148	1	477	9	1	1	0.2162	0.1472	0	1	0.713	0	0	0
148	1	478	9	2	3	0.2162	0.1472	0	1	0.623	0	82	82
148	1	479	1	2	3	0.2162	0.1472	0	1	0.488	86	0	0
148	1	480	0	1	3	0.2162	0.1472	1	1	0.831	5	82	0
148	1	481	1	1	1	0.2162	0.1472	0	1	0.582	77	0	0
148	1	482	0	2	3	0.2162	0.1472	0	1	0.479	9	82	82
148	1	483	0	2	2	0.2162	0.1472	1	1	0.508	8	0	82
148	1	484	9	2	3	0.2162	0.1472	1	1	0.591	0	0	82
148	1	485	0	1	1	0.2162	0.1472	1	0	0.615	0	82	0
148	1	486	0	2	2	0.2162	0.1472	0	1	0.623	7	82	82
148	1	487	1	1	1	0.2162	0.1472	0	1	0.624	73	0	0
148	1	488	1	1	3	0.2162	0.1472	0	1	0.769	58	0	0
148	1	489	1	1	2	0.2162	0.1472	1	1	0.594	76	0	82
148	1	490	0	2	3	0.2162	0.1472	0	1	0.587	8	82	82
148	1	491	9	2	3	0.2162	0.1472	1	1	1.151	0	0	82
148	1	492	0	1	3	0.2162	0.1472	1	1	0.714	6	82	0
148	1	493	9	2	3	0.2162	0.1472	0	1	0.655	0	0	0
148	1	494	1	1	1	0.2162	0.1472	1	1	0.871	50	0	82
148	1	495	0	1	1	0.2162	0.1472	0	1	0.748	6	82	82
148	1	496	0	1	2	0.2162	0.1472	0	1	0.697	7	82	82
148	1	497	0	1	1	0.2162	0.1472	1	1	0.656	7	82	0
148	1	498	0	1	2	0.2162	0.1472	0	1	0.753	6	82	82
148	1	499	9	2	3	0.2162	0.1472	1	1	0.779	0	82	0
148	1	500	1	1	3	0.2162	0.1472	0	1	0.789	56	0	0
148	1	501	1	1	3	0.2162	0.1472	1	1	0.603	75	0	82
148	1	502	1	2	2	0.2162	0.1472	1	0	0.701	0	82	0
148	1	503	1	2	2	0.2162	0.1472	1	1	0.578	77	82	0
148	1	504	1	2	2	0.2162	0.1472	0	1	0.737	61	0	0
148	1	505	1	1	2	0.2162	0.1472	1	1	0.751	60	0	82
148	1	506	1	1	1	0.2162	0.1472	1	1	0.553	80	0	82
148	1	507	0	1	1	0.2162	0.1472	0	1	0.604	7	82	82
148	1	508	1	1	3	0.2162	0.1472	1	1	0.596	75	0	82
148	1	509	9	1	3	0.2162	0.1472	0	1	0.542	0	82	82
148	1	510	0	2	3	0.2162	0.1472	1	1	0.714	6	0	82
148	1	511	1	1	3	0.2162	0.1472	1	1	0.616	73	0	82
148	1	512	0	1	3	0.2162	0.1472	0	1	0.503	8	82	82
148	1	513	9	2	2	0.2162	0.1472	1	1	0.900	0	82	0
148	1	514	0	1	2	0.2162	0.1472	1	1	0.545	8	82	0
148	1	515	9	1	1	0.2162	0.1472	0	1	0.565	0	82	82
148	1	516	0	1	3	0.2162	0.1472	1	1	0.489	9	82	0
148	1	517	0	1	3	0.2162	0.1472	1	1	0.449	9	82	0
148	1	518	1	2	2	0.2162	0.1472	1	1	0.822	53	82	0
148	1	519	1	2	3	0.2162	0.1472	0	0	0.536	0	0	0
148	1	520	0	2	3	0.2162	0.1472	1	1	0.702	6	0	82
148	1	521	9	1	1	0.2162	0.1472	0	1	0.645	0	0	0
148	1	522	1	2	3	0.2162	0.1472	1	1	0.611	74	82	0
148	1	523	1	1	3	0.2162	0.1472	0	1	0.641	71	0	0
148	1	524	9	2	2	0.2162	0.1472	1	1	0.631	0	82	0
148	1	525	1	1	1	0.2162	0.1472	1	0	1.662	0	0	82
148	1	526	1	2	3	0.2162	0.1472	0	0	0.492	0	0	0
148	1	527	9	2	3	0.2162	0.1472	0	1	0.624	0	0	0
148	1	528	0	2	2	0.2162	0.1472	0	1	0.601	7	82	82
148	1	529	1	2	3	0.2162	0.1472	0	1	0.523	83	0	0
148	1	530	1	1	3	0.2162	0.1472	0	1	0.926	50	0	0
148	1	531	0	1	3	0.2162	0.1472	0	1	0.721	6	82	82
148	1	532	0	2	3	0.2162	0.1472	0	1	0.540	8	82	82
148	1	533	0	2	2	0.2162	0.1472	1	1	0.712	6	0	82
148	1	534	0	1	2	0.2162	0.1472	0	1	0.716	6	82	82
148	1	535	0	1	3	0.2162	0.1472	1	1	0.871	5	82	0
148	1	536	0	1	3	0.2162	0.1472	0	1	0.758	6	82	82
148	1	537	0	2	3	0.2162	0.1472	1	1	0.808	5	0	82
148	1	538	1	2	1	0.2162	0.1472	0	1	0.537	81	0	0
148	1	539	0	1	1	0.2162	0.1472	1	1	0.716	6	82	0
148	1	540	9	1	3	0.2162	0.1472	1	1	0.722	0	0	82
148	1	541	0	1	3	0.2162	0.1472	0	1	0.744	6	82	82
148	1	542	0	1	1	0.2162	0.1472	0	1	0.650	7	82	82
148	1	543	1	2	3	0.2162	0.1472	0	1	0.539	81	0	0
148	1	544	0	1	3	0.2162	0.1472	1	1	0.857	5	82	0
148	1	545	0	2	3	0.2162	0.1472	1	1	0.736	6	0	82
148	1	546	0	2	2	0.2162	0.1472	0	1	0.493	9	82	82
148	1	547	1	2	1	0.2162	0.1472	0	1	0.538	81	0	0
148	1	548	1	2	1	0.2162	0.1472	1	1	0.600	75	82	0
148	1	549	1	2	2	0.2162	0.1472	1	1	0.522	83	82	0
148	1	550	1	1	1	0.2162	0.1472	0	1	0.854	50	0	0
148	1	551	1	1	1	0.2162	0.1472	1	1	0.668	68	0	82
148	1	552	9	2	3	0.2162	0.1472	0	1	0.525	0	0	0
148	1	553	0	2	2	0.2162	0.1472	1	1	0.671	7	0	82
148	1	554	1	2	3	0.2162	0.1472	1	1	0.711	64	82	0
148	1	555	9	2	2	0.2162	0.1472	1	1	0.694	0	0	82
148	1	556	0	2	3	0.2162	0.1472	0	1	0.442	9	82	82
148	1	557	9	1	1	0.2162	0.1472	1	1	0.801	0	0	82
148	1	558	1	2	3	0.2162	0.1472	0	1	0.536	81	0	0
148	1	559	1	2	2	0.2162	0.1472	0	1	0.466	88	0	0
148	1	560	1	1	1	0.2162	0.1472	1	1	0.634	72	0	82
148	1	561	1	2	1	0.2162	0.1472	1	1	0.621	73	82	0
148	1	562	0	2	2	0.2162	0.1472	0	1	0.589	8	82	82
148	1	563	0	1	1	0.2162	0.1472	0	0	0.535	0	82	82
148	1	564	9	1	3	0.2162	0.1472	1	1	0.781	0	0	82
148	1	565	1	1	3	0.2162	0.1472	1	1	0.542	81	0	82
148	1	566	0	1	3	0.2162	0.1472	0	1	0.552	8	82	82
148	1	567	1	2	3	0.2162	0.1472	0	1	0.706	64	0	0
148	1	568	9	1	2	0.2162	0.1472	0	1	0.808	0	82	82
148	1	569	1	1	3	0.2162	0.1472	0	1	1.399	50	0	0
148	1	570	0	1	1	0.2162	0.1472	1	1	0.735	6	82	0
148	1	571	0	2	2	0.2162	0.1472	0	1	0.540	8	82	82
148	1	572	0	1	1	0.2162	0.1472	0	1	0.664	7	82	82
148	1	573	1	1	1	0.2162	0.1472	1	1	0.814	54	0	82
148	1	574	1	1	1	0.2162	0.1472	0	1	0.558	79	0	0
148	1	575	1	2	2	0.2162	0.1472	1	1	0.714	64	82	0
148	1	576	9	2	3	0.2162	0.1472	0	1	0.581	0	82	82
148	1	577	0	2	3	0.2162	0.1472	0	1	0.461	9	82	82
148	1	578	0	2	3	0.2162	0.1472	0	1	0.491	9	82	82
148	1	579	1	2	2	0.2162	0.1472	0	1	0.449	90	0	0
148	1	580	0	2	2	0.2162	0.1472	0	1	0.487	9	82	82
148	1	581	0	1	3	0.2162	0.1472	1	1	0.638	7	82	0
148	1	582	1	1	3	0.2162	0.1472	0	1	0.772	58	0	0
148	1	583	0	1	3	0.2162	0.1472	1	1	0.655	7	82	0
148	1	584	1	2	3	0.2162	0.1472	1	1	0.885	50	82	0
148	1	585	9	1	3	0.2162	0.1472	0	1	0.748	0	0	0
148	1	586	9	2	2	0.2162	0.1472	0	1	0.521	0	0	0
148	1	587	1	1	1	0.2162	0.1472	1	1	0.510	84	0	82
148	1	588	0	2	3	0.2162	0.1472	1	1	0.636	7	0	82
148	1	589	0	2	2	0.2162	0.1472	1	1	0.556	8	0	82
148	1	590	9	1	3	0.2162	0.1472	0	1	0.615	0	0	0
148	1	591	1	1	2	0.2162	0.1472	0	1	0.504	85	0	0
148	1	592	9	1	1	0.2162	0.1472	0	1	0.693	0	82	82
148	1	593	0	1	2	0.2162	0.1472	0	1	0.770	6	82	82
148	1	594	0	2	2	0.2162	0.1472	0	1	0.636	7	82	82
148	1	595	9	1	3	0.2162	0.1472	1	1	0.662	0	82	0
148	1	596	0	1	1	0.2162	0.1472	0	1	0.574	8	82	82
148	1	597	1	1	1	0.2162	0.1472	1	0	0.698	0	0	82
148	1	598	9	1	3	0.2162	0.1472	1	1	0.552	0	0	82
148	1	599	9	1	3	0.2162	0.1472	1	1	0.427	0	0	82
148	1	600	1	1	3	0.2162	0.1472	0	1	0.611	74	0	0
148	1	601	9	1	1	0.2162	0.1472	1	0	0.568	0	82	0
148	1	602	1	1	1	0.2162	0.1472	0	1	0.481	87	0	0
148	1	603	9	1	2	0.2162	0.1472	1	0	0.544	0	0	82
148	1	604	9	1	1	0.2162	0.1472	0	1	0.585	0	82	82
148	1	605	0	1	1	0.2162	0.1472	1	1	0.428	9	82	0
148	1	606	1	1	3	0.2162	0.1472	1	1	0.597	75	0	82
148	1	607	0	1	1	0.2162	0.1472	1	1	0.527	8	82	0
148	1	608	1	1	1	0.2162	0.1472	0	1	0.442	91	0	0
148	1	609	9	2	1	0.2162	0.1472	0	1	0.481	0	0	0
148	1	610	0	1	1	0.2162	0.1472	0	1	0.744	6	82	82
148	1	611	9	1	3	0.2162	0.1472	0	1	0.698	0	82	82
148	1	612	0	2	2	0.2162	0.1472	1	1	0.622	7	0	82
148	1	613	0	1	3	0.2162	0.1472	1	1	1.334	5	82	0
148	1	614	1	1	3	0.2162	0.1472	0	1	0.738	61	0	0
148	1	615	0	2	1	0.2162	0.1472	1	1	0.655	7	0	82
148	1	616	0	1	1	0.2162	0.1472	0	1	0.589	8	82	82
148	1	617	0	1	3	0.2162	0.1472	1	1	0.789	6	82	0
148	1	618	1	2	3	0.2162	0.1472	0	1	0.478	87	0	0
148	1	619	0	1	1	0.2162	0.1472	1	1	0.818	5	82	0
148	1	620	9	2	1	0.2162	0.1472	1	1	0.706	0	0	82
148	1	621	1	1	2	0.2162	0.1472	1	1	0.469	88	0	82
148	1	622	1	1	3	0.2162	0.1472	0	1	0.451	90	0	0
148	1	623	0	2	3	0.2162	0.1472	1	1	0.618	7	0	82
148	1	624	0	1	1	0.2162	0.1472	0	1	0.676	7	82	82
148	1	625	9	2	3	0.2162	0.1472	1	1	0.448	0	82	0
148	1	626	1	2	3	0.2162	0.1472	1	0	0.646	0	82	0
148	1	627	0	2	3	0.2162	0.1472	0	1	0.534	8	82	82
148	1	628	0	2	1	0.2162	0.1472	0	1	0.466	9	82	82
148	1	629	1	1	3	0.2162	0.1472	1	1	0.643	71	0	82
148	1	630	9	2	2	0.2162	0.1472	0	1	0.539	0	82	82
148	1	631	1	2	2	0.2162	0.1472	1	1	0.823	53	82	0
148	1	632	0	2	2	0.2162	0.1472	1	1	0.592	8	0	82
148	1	633	0	1	3	0.2162	0.1472	1	1	0.792	6	82	0
148	1	634	1	2	2	0.2162	0.1472	0	1	0.537	81	0	0
148	1	635	1	1	3	0.2162	0.1472	0	0	0.758	0	0	0
148	1	636	1	1	3	0.2162	0.1472	1	0	0.490	0	0	82
148	1	637	0	1	1	0.2162	0.1472	1	1	0.551	8	82	0
148	1	638	0	1	3	0.2162	0.1472	0	1	0.577	8	82	82
148	1	639	0	2	2	0.2162	0.1472	1	1	1.427	5	0	82
148	1	640	0	2	2	0.2162	0.1472	1	1	1.219	5	0	82
148	1	641	1	1	3	0.2162	0.1472	0	1	0.794	56	0	0
148	1	642	1	1	2	0.2162	0.1472	0	1	0.626	72	0	0
148	1	643	1	2	2	0.2162	0.1472	0	1	0.665	68	0	0
148	1	644	1	1	3	0.2162	0.1472	0	1	0.777	57	0	0
148	1	645	0	2	2	0.2162	0.1472	1	0	0.709	0	0	82
148	1	646	0	2	2	0.2162	0.1472	0	1	0.594	8	82	82
148	1	647	0	2	3	0.2162	0.1472	0	1	0.465	9	82	82
148	1	648	0	1	3	0.2162	0.1472	0	0	0.752	0	82	82
148	1	649	1	2	3	0.2162	0.1472	1	1	1.074	50	82	0
148	1	650	1	1	1	0.2162	0.1472	0	1	0.673	68	0	0
148	1	651	0	2	3	0.2162	0.1472	1	1	0.721	6	0	82
148	1	652	0	2	3	0.2162	0.1472	1	1	0.637	7	0	82
148	1	653	1	1	3	0.2162	0.1472	1	1	0.948	50	0	82
148	1	654	0	2	3	0.2162	0.1472	1	1	1.190	5	0	82
148	1	655	1	1	1	0.2162	0.1472	1	1	0.584	77	0	82
148	1	656	0	2	2	0.2162	0.1472	1	1	0.712	6	0	82
148	1	657	0	1	3	0.2162	0.1472	1	1	0.460	9	82	0
148	1	658	1	2	2	0.2162	0.1472	1	1	0.580	77	82	0
148	1	659	9	2	2	0.2162	0.1472	0	0	0.598	0	0	0
148	1	660	1	1	3	0.2162	0.1472	1	1	0.630	72	0	82
148	1	661	9	2	3	0.2162	0.1472	1	1	0.551	0	82	0
148	1	662	9	1	3	0.2162	0.1472	1	1	0.666	0	82	0
148	1	663	1	2	1	0.2162	0.1472	1	1	0.559	79	82	0
148	1	664	1	2	3	0.2162	0.1472	1	1	0.465	88	82	0
148	1	665	1	2	2	0.2162	0.1472	0	1	0.559	79	0	0
148	1	666	1	1	1	0.2162	0.1472	0	1	0.729	62	0	0
148	1	667	0	1	3	0.2162	0.1472	0	1	0.780	6	82	82
148	1	668	9	2	2	0.2162	0.1472	1	1	0.734	0	0	82
148	1	669	9	2	2	0.2162	0.1472	0	1	0.507	0	0	0
148	1	670	1	2	2	0.2162	0.1472	0	1	0.512	84	0	0
148	1	671	1	1	2	0.2162	0.1472	0	1	0.650	70	0	0
148	1	672	1	2	3	0.2162	0.1472	0	1	0.457	89	0	0
148	1	673	1	2	3	0.2162	0.1472	1	1	0.866	50	82	0
148	1	674	9	2	2	0.2162	0.1472	1	1	0.655	0	0	82
148	1	675	1	2	1	0.2162	0.1472	1	1	0.584	77	82	0
148	1	676	1	2	3	0.2162	0.1472	0	0	0.681	0	0	0
148	1	677	9	2	3	0.2162	0.1472	0	1	0.464	0	82	82
148	1	678	0	2	3	0.2162	0.1472	0	1	0.623	7	82	82
148	1	679	0	2	3	0.2162	0.1472	0	1	0.447	9	82	82
148	1	680	9	1	3	0.2162	0.1472	1	1	0.704	0	82	0
148	1	681	1	1	1	0.2162	0.1472	0	1	0.609	74	0	0
148	1	682	0	1	3	0.2162	0.1472	1	1	0.745	6	82	0
148	1	683	9	1	3	0.2162	0.1472	0	1	0.540	0	82	82
148	1	684	0	2	1	0.2162	0.1472	0	1	0.554	8	82	82
148	1	685	9	2	2	0.2162	0.1472	1	1	0.644	0	82	0
148	1	686	1	1	1	0.2162	0.1472	0	1	0.692	66	0	0
148	1	687	9	1	1	0.2162	0.1472	0	1	1.187	0	0	0
148	1	688	0	1	3	0.2162	0.1472	1	1	0.620	7	82	0
148	1	689	9	1	1	0.2162	0.1472	1	1	0.565	0	82	0
148	1	690	9	2	2	0.2162	0.1472	0	1	0.528	0	82	82
148	1	691	0	1	1	0.2162	0.1472	0	0	0.517	0	82	82
148	1	692	1	1	1	0.2162	0.1472	0	1	0.691	66	0	0
148	1	693	0	1	1	0.2162	0.1472	0	1	0.890	5	82	82
148	1	694	0	1	3	0.2162	0.1472	1	1	0.967	5	82	0
148	1	695	1	2	2	0.2162	0.1472	0	1	0.464	89	0	0
148	1	696	1	2	3	0.2162	0.1472	0	1	0.512	84	0	0
148	1	697	0	2	3	0.2162	0.1472	0	1	0.558	8	82	82
148	1	698	1	2	2	0.2162	0.1472	1	1	0.930	50	82	0
148	1	699	0	1	1	0.2162	0.1472	1	0	0.655	0	82	0
148	1	700	0	2	1	0.2162	0.1472	0	1	0.949	5	82	82
148	1	701	0	2	2	0.2162	0.1472	1	1	0.720	6	0	82
148	1	702	0	2	3	0.2162	0.1472	1	1	0.740	6	0	82
148	1	703	9	1	1	0.2162	0.1472	1	1	0.704	0	82	0
148	1	704	1	1	3	0.2162	0.1472	0	1	1.124	50	0	0
148	1	705	0	1	3	0.2162	0.1472	0	1	1.281	5	82	82
148	1	706	9	2	2	0.2162	0.1472	0	1	0.569	0	0	0
148	1	707	0	2	1	0.2162	0.1472	0	1	0.602	7	82	82
148	1	708	1	1	3	0.2162	0.1472	1	1	1.211	50	0	82
148	1	709	1	1	3	0.2162	0.1472	0	1	0.859	50	0	0
148	1	710	0	2	3	0.2162	0.1472	1	1	1.167	5	0	82
148	1	711	1	2	2	0.2162	0.1472	1	1	0.795	55	82	0
148	1	712	0	2	2	0.2162	0.1472	0	1	0.437	9	82	82
148	1	713	1	2	1	0.2162	0.1472	0	1	0.582	77	0	0
148	1	714	9	1	1	0.2162	0.1472	1	1	0.967	0	0	82
148	1	715	0	2	2	0.2162	0.1472	0	1	0.417	9	82	82
148	1	716	1	2	3	0.2162	0.1472	1	1	0.842	51	82	0
148	1	717	1	1	1	0.2162	0.1472	1	1	0.762	59	0	82
148	1	718	9	1	3	0.2162	0.1472	0	1	0.631	0	0	0
148	1	719	0	2	2	0.2162	0.1472	1	1	0.877	5	0	82
148	1	720	9	1	2	0.2162	0.1472	1	1	0.955	0	82	0
