sub	sess	t	rew	loc	cue	co1	co2	or	resp	rt	rew_tot	left_col	right_col
59	1	1	0	2	2	0.0500	0.0500	1	0	0.876	0	82	0
59	1	2	1	1	3	0.0500	0.0500	1	0	1.114	0	82	0
59	1	3	1	1	2	0.0500	0.0500	0	1	0.470	88	82	82
59	1	4	9	2	2	0.0500	0.0500	0	1	0.437	0	82	82
59	1	5	1	2	1	0.0500	0.0500	0	1	0.429	92	82	82
59	1	6	0	1	2	0.0500	0.0500	1	1	0.533	8	0	82
59	1	7	0	1	3	0.0500	0.0500	1	0	0.505	0	0	82
59	1	8	1	2	3	0.0500	0.0500	0	1	0.550	80	82	82
59	1	9	9	1	3	0.0500	0.0500	0	0	0.732	0	82	82
59	1	10	9	2	2	0.0500	0.0500	1	1	0.553	0	0	82
59	1	11	0	1	2	0.0500	0.0500	0	1	0.540	8	0	0
59	1	12	0	1	3	0.0500	0.0500	0	1	0.625	7	0	0
59	1	13	0	1	1	0.0500	0.0500	0	1	0.449	9	0	0
59	1	14	0	1	1	0.0500	0.0500	1	0	0.455	0	0	82
59	1	15	1	1	1	0.0500	0.0500	0	1	0.632	72	82	82
59	1	16	9	2	1	0.0500	0.0500	1	0	0.473	0	82	0
59	1	17	0	2	3	0.0500	0.0500	0	1	0.474	9	0	0
59	1	18	1	1	1	0.0500	0.0500	0	1	0.459	89	82	82
59	1	19	0	2	3	0.0500	0.0500	0	1	0.507	8	0	0
59	1	20	9	1	1	0.0500	0.0500	0	1	0.481	0	82	82
59	1	21	0	1	3	0.0500	0.0500	0	1	0.509	8	0	0
59	1	22	1	2	1	0.0500	0.0500	0	1	0.596	75	82	82
59	1	23	1	2	2	0.0500	0.0500	0	1	0.422	93	82	82
59	1	24	0	2	2	0.0500	0.0500	1	1	0.518	8	82	0
59	1	25	0	2	2	0.0500	0.0500	0	1	0.492	9	0	0
59	1	26	0	2	2	0.0500	0.0500	1	1	0.692	7	82	0
59	1	27	1	1	3	0.0500	0.0500	1	1	0.760	59	82	0
59	1	28	9	1	3	0.0500	0.0500	1	1	0.530	0	0	82
59	1	29	0	1	3	0.0500	0.0500	1	1	0.558	8	0	82
59	1	30	9	2	2	0.0500	0.0500	0	1	0.617	0	82	82
59	1	31	1	2	2	0.0500	0.0500	0	0	0.603	0	82	82
59	1	32	9	2	3	0.0500	0.0500	0	1	0.998	0	0	0
59	1	33	0	1	3	0.0500	0.0500	1	1	0.526	8	0	82
59	1	34	0	1	1	0.0500	0.0500	0	1	0.505	8	0	0
59	1	35	1	2	2	0.0500	0.0500	1	0	0.686	0	0	82
59	1	36	9	2	3	0.0500	0.0500	0	1	0.466	0	82	82
59	1	37	1	1	3	0.0500	0.0500	0	0	0.464	0	82	82
59	1	38	1	1	3	0.0500	0.0500	0	1	0.560	79	82	82
59	1	39	9	2	3	0.0500	0.0500	1	1	0.500	0	0	82
59	1	40	0	2	3	0.0500	0.0500	1	0	0.665	0	82	0
59	1	41	1	2	2	0.0500	0.0500	1	1	0.573	78	0	82
59	1	42	0	2	2	0.0500	0.0500	1	1	0.512	8	82	0
59	1	43	0	2	2	0.0500	0.0500	1	1	0.486	9	82	0
59	1	44	9	2	3	0.0500	0.0500	0	1	0.557	0	0	0
59	1	45	0	1	1	0.0500	0.0500	1	1	0.567	8	0	82
59	1	46	0	1	1	0.0500	0.0500	0	0	0.784	0	0	0
59	1	47	1	2	3	0.0500	0.0500	0	1	0.426	92	82	82
59	1	48	0	1	3	0.0500	0.0500	0	1	0.499	9	0	0
59	1	49	1	1	1	0.0500	0.0500	0	1	0.462	89	82	82
59	1	50	9	1	1	0.0500	0.0500	1	1	0.612	0	0	82
59	1	51	1	1	3	0.0500	0.0500	0	1	0.495	86	82	82
59	1	52	0	2	2	0.0500	0.0500	0	1	0.437	9	0	0
59	1	53	9	1	1	0.0500	0.0500	0	1	0.467	0	82	82
59	1	54	9	1	1	0.0500	0.0500	0	1	0.419	0	0	0
59	1	55	1	2	2	0.0500	0.0500	0	1	0.681	67	82	82
59	1	56	1	1	3	0.0500	0.0500	1	0	0.479	0	82	0
59	1	57	1	2	2	0.0500	0.0500	1	1	0.454	90	0	82
59	1	58	1	1	1	0.0500	0.0500	0	1	0.388	96	82	82
59	1	59	0	1	1	0.0500	0.0500	0	1	0.437	9	0	0
59	1	60	1	2	1	0.0500	0.0500	1	0	0.677	0	0	82
59	1	61	1	2	2	0.0500	0.0500	1	1	0.536	81	0	82
59	1	62	1	2	1	0.0500	0.0500	1	0	0.661	0	0	82
59	1	63	9	1	1	0.0500	0.0500	1	1	0.587	0	82	0
59	1	64	0	1	1	0.0500	0.0500	0	1	0.461	9	0	0
59	1	65	1	1	1	0.0500	0.0500	1	0	0.471	0	82	0
59	1	66	0	2	3	0.0500	0.0500	0	1	0.471	9	0	0
59	1	67	0	2	3	0.0500	0.0500	1	0	0.701	0	82	0
59	1	68	1	1	3	0.0500	0.0500	0	1	0.874	50	82	82
59	1	69	9	1	1	0.0500	0.0500	1	0	0.617	0	82	0
59	1	70	1	2	3	0.0500	0.0500	1	1	0.778	57	0	82
59	1	71	1	2	3	0.0500	0.0500	0	1	0.443	91	82	82
59	1	72	1	1	3	0.0500	0.0500	0	1	0.556	79	82	82
59	1	73	1	2	2	0.0500	0.0500	1	1	0.631	72	0	82
59	1	74	1	2	2	0.0500	0.0500	1	1	0.465	89	0	82
59	1	75	9	2	1	0.0500	0.0500	1	1	0.535	0	0	82
59	1	76	1	2	3	0.0500	0.0500	1	1	0.502	85	0	82
59	1	77	9	2	3	0.0500	0.0500	0	1	0.507	0	82	82
59	1	78	0	1	1	0.0500	0.0500	0	1	0.512	8	0	0
59	1	79	1	2	3	0.0500	0.0500	1	1	0.549	80	0	82
59	1	80	0	1	1	0.0500	0.0500	0	1	0.587	8	0	0
59	1	81	9	1	3	0.0500	0.0500	0	1	0.562	0	0	0
59	1	82	1	1	1	0.0500	0.0500	1	1	0.518	83	82	0
59	1	83	0	2	3	0.0500	0.0500	1	0	0.827	0	82	0
59	1	84	1	1	1	0.0500	0.0500	1	1	0.549	80	82	0
59	1	85	0	1	3	0.0500	0.0500	1	0	0.495	0	0	82
59	1	86	9	1	3	0.0500	0.0500	0	1	0.711	0	82	82
59	1	87	1	1	2	0.0500	0.0500	0	1	0.388	96	82	82
59	1	88	1	2	2	0.0500	0.0500	1	0	0.815	0	0	82
59	1	89	0	2	3	0.0500	0.0500	1	1	0.590	8	82	0
59	1	90	0	2	1	0.0500	0.0500	1	1	0.570	8	82	0
59	1	91	1	2	2	0.0500	0.0500	0	1	0.502	85	82	82
59	1	92	1	2	3	0.0500	0.0500	0	1	0.434	92	82	82
59	1	93	0	1	3	0.0500	0.0500	0	1	0.656	7	0	0
59	1	94	0	1	1	0.0500	0.0500	0	1	0.440	9	0	0
59	1	95	9	2	3	0.0500	0.0500	1	1	0.766	0	0	82
59	1	96	0	2	2	0.0500	0.0500	1	1	0.491	9	82	0
59	1	97	0	2	2	0.0500	0.0500	0	1	0.697	7	0	0
59	1	98	9	2	2	0.0500	0.0500	0	1	0.431	0	82	82
59	1	99	1	2	3	0.0500	0.0500	1	1	0.496	85	0	82
59	1	100	0	2	3	0.0500	0.0500	0	1	0.836	5	0	0
59	1	101	0	1	2	0.0500	0.0500	1	1	0.595	8	0	82
59	1	102	0	2	2	0.0500	0.0500	0	1	0.453	9	0	0
59	1	103	9	1	2	0.0500	0.0500	1	0	0.779	0	0	82
59	1	104	0	2	2	0.0500	0.0500	0	1	0.535	8	0	0
59	1	105	1	2	3	0.0500	0.0500	0	1	0.723	63	82	82
59	1	106	0	2	3	0.0500	0.0500	0	1	0.536	8	0	0
59	1	107	0	2	1	0.0500	0.0500	1	0	0.461	0	82	0
59	1	108	1	1	3	0.0500	0.0500	0	0	0.485	0	82	82
59	1	109	1	2	1	0.0500	0.0500	1	1	0.611	74	0	82
59	1	110	1	1	1	0.0500	0.0500	0	1	0.468	88	82	82
59	1	111	0	1	3	0.0500	0.0500	1	1	0.673	7	0	82
59	1	112	1	2	3	0.0500	0.0500	0	1	0.502	85	82	82
59	1	113	0	2	2	0.0500	0.0500	0	1	0.425	9	0	0
59	1	114	0	2	2	0.0500	0.0500	1	1	0.674	7	82	0
59	1	115	1	2	3	0.0500	0.0500	1	1	0.809	54	0	82
59	1	116	1	1	3	0.0500	0.0500	0	1	0.674	68	82	82
59	1	117	1	2	2	0.0500	0.0500	1	1	0.482	87	0	82
59	1	118	0	2	2	0.0500	0.0500	1	1	0.504	8	82	0
59	1	119	1	2	1	0.0500	0.0500	0	0	0.591	0	82	82
59	1	120	0	1	1	0.0500	0.0500	1	0	0.544	0	0	82
59	1	121	0	1	3	0.0500	0.0500	1	1	0.761	6	0	82
59	1	122	9	2	3	0.0500	0.0500	0	1	0.629	0	82	82
59	1	123	1	2	2	0.0500	0.0500	0	1	0.469	88	82	82
59	1	124	9	2	3	0.0500	0.0500	1	1	0.716	0	82	0
59	1	125	0	1	3	0.0500	0.0500	0	1	0.497	9	0	0
59	1	126	0	2	1	0.0500	0.0500	0	1	0.823	5	0	0
59	1	127	1	1	1	0.0500	0.0500	0	1	0.615	73	82	82
59	1	128	0	1	1	0.0500	0.0500	1	0	0.750	0	0	82
59	1	129	1	1	1	0.0500	0.0500	0	1	0.475	87	82	82
59	1	130	1	1	3	0.0500	0.0500	0	1	0.546	80	82	82
59	1	131	9	1	3	0.0500	0.0500	1	1	0.846	0	0	82
59	1	132	0	1	3	0.0500	0.0500	0	1	0.630	7	0	0
59	1	133	0	1	1	0.0500	0.0500	1	1	0.756	6	0	82
59	1	134	1	1	3	0.0500	0.0500	1	0	0.530	0	82	0
59	1	135	0	1	1	0.0500	0.0500	1	1	0.768	6	0	82
59	1	136	0	2	3	0.0500	0.0500	0	0	0.754	0	0	0
59	1	137	0	1	3	0.0500	0.0500	1	1	0.534	8	0	82
59	1	138	0	1	1	0.0500	0.0500	1	1	0.596	8	0	82
59	1	139	0	2	3	0.0500	0.0500	0	1	0.526	8	0	0
59	1	140	1	2	3	0.0500	0.0500	0	1	0.538	81	82	82
59	1	141	1	2	3	0.0500	0.0500	1	1	0.514	84	0	82
59	1	142	1	1	1	0.0500	0.0500	0	0	0.663	0	82	82
59	1	143	1	1	2	0.0500	0.0500	1	0	0.621	0	82	0
59	1	144	9	2	2	0.0500	0.0500	1	1	0.663	0	82	0
59	1	145	0	2	3	0.0500	0.0500	0	1	0.445	9	0	0
59	1	146	0	2	3	0.0500	0.0500	0	1	0.782	6	0	0
59	1	147	0	1	1	0.0500	0.0500	1	0	0.654	0	0	82
59	1	148	9	2	2	0.0500	0.0500	0	1	0.510	0	0	0
59	1	149	0	2	2	0.0500	0.0500	0	1	0.509	8	0	0
59	1	150	9	1	3	0.0500	0.0500	0	1	1.523	0	0	0
59	1	151	9	1	3	0.0500	0.0500	0	0	0.694	0	0	0
59	1	152	1	2	2	0.0500	0.0500	0	1	0.710	64	82	82
59	1	153	1	1	1	0.0500	0.0500	0	1	0.675	68	82	82
59	1	154	9	2	3	0.0500	0.0500	1	1	0.706	0	82	0
59	1	155	0	1	1	0.0500	0.0500	0	1	0.433	9	0	0
59	1	156	0	1	2	0.0500	0.0500	0	1	0.416	9	0	0
59	1	157	1	2	2	0.0500	0.0500	0	1	0.626	72	82	82
59	1	158	1	1	3	0.0500	0.0500	0	1	0.642	71	82	82
59	1	159	9	1	2	0.0500	0.0500	0	1	0.441	0	0	0
59	1	160	1	2	2	0.0500	0.0500	1	1	0.428	92	0	82
59	1	161	1	1	2	0.0500	0.0500	1	1	0.592	76	82	0
59	1	162	0	2	2	0.0500	0.0500	1	1	0.538	8	82	0
59	1	163	1	2	2	0.0500	0.0500	0	1	0.422	93	82	82
59	1	164	0	1	1	0.0500	0.0500	0	1	0.520	8	0	0
59	1	165	0	1	1	0.0500	0.0500	1	0	0.556	0	0	82
59	1	166	0	1	3	0.0500	0.0500	1	1	0.551	8	0	82
59	1	167	0	2	2	0.0500	0.0500	1	1	0.507	8	82	0
59	1	168	9	2	3	0.0500	0.0500	1	1	0.723	0	82	0
59	1	169	1	1	2	0.0500	0.0500	0	1	0.599	75	82	82
59	1	170	0	1	1	0.0500	0.0500	0	1	0.688	7	0	0
59	1	171	0	1	1	0.0500	0.0500	1	1	0.550	8	0	82
59	1	172	0	2	2	0.0500	0.0500	1	1	0.489	9	82	0
59	1	173	1	2	2	0.0500	0.0500	1	0	0.662	0	0	82
59	1	174	1	2	3	0.0500	0.0500	1	1	0.406	94	0	82
59	1	175	0	1	1	0.0500	0.0500	0	0	0.614	0	0	0
59	1	176	9	2	3	0.0500	0.0500	1	1	0.472	0	0	82
59	1	177	1	1	1	0.0500	0.0500	1	1	0.825	53	82	0
59	1	178	0	2	3	0.0500	0.0500	0	0	0.739	0	0	0
59	1	179	0	1	3	0.0500	0.0500	0	1	0.488	9	0	0
59	1	180	1	1	3	0.0500	0.0500	0	1	0.504	85	82	82
59	1	181	0	2	1	0.0500	0.0500	0	1	0.444	9	0	0
59	1	182	1	2	2	0.0500	0.0500	1	1	0.525	83	0	82
59	1	183	9	2	2	0.0500	0.0500	1	0	0.490	0	82	0
59	1	184	0	1	1	0.0500	0.0500	1	1	0.823	5	0	82
59	1	185	1	1	1	0.0500	0.0500	1	0	0.609	0	82	0
59	1	186	1	2	2	0.0500	0.0500	0	1	0.467	88	82	82
59	1	187	1	2	2	0.0500	0.0500	1	1	0.536	81	0	82
59	1	188	9	2	2	0.0500	0.0500	1	1	0.436	0	0	82
59	1	189	0	2	3	0.0500	0.0500	0	1	0.451	9	0	0
59	1	190	9	1	1	0.0500	0.0500	1	0	0.761	0	0	82
59	1	191	0	1	1	0.0500	0.0500	1	1	0.547	8	0	82
59	1	192	1	2	2	0.0500	0.0500	0	1	0.597	75	82	82
59	1	193	1	1	3	0.0500	0.0500	0	1	0.959	50	82	82
59	1	194	9	1	1	0.0500	0.0500	0	1	0.426	0	0	0
59	1	195	9	1	1	0.0500	0.0500	0	1	0.460	0	0	0
59	1	196	0	2	3	0.0500	0.0500	0	1	0.517	8	0	0
59	1	197	1	1	3	0.0500	0.0500	0	1	0.466	88	82	82
59	1	198	1	2	2	0.0500	0.0500	1	1	0.385	96	0	82
59	1	199	0	2	3	0.0500	0.0500	1	1	0.545	8	82	0
59	1	200	1	1	3	0.0500	0.0500	1	0	0.750	0	82	0
59	1	201	1	2	3	0.0500	0.0500	1	1	0.471	88	0	82
59	1	202	1	2	3	0.0500	0.0500	0	0	0.535	0	82	82
59	1	203	1	2	3	0.0500	0.0500	1	0	0.660	0	0	82
59	1	204	0	2	1	0.0500	0.0500	1	1	0.653	7	82	0
59	1	205	1	1	1	0.0500	0.0500	0	1	0.534	82	82	82
59	1	206	1	1	1	0.0500	0.0500	0	1	0.497	85	82	82
59	1	207	0	2	2	0.0500	0.0500	0	1	0.471	9	0	0
59	1	208	0	2	2	0.0500	0.0500	0	1	0.462	9	0	0
59	1	209	1	1	3	0.0500	0.0500	0	1	0.558	79	82	82
59	1	210	1	1	3	0.0500	0.0500	0	1	0.527	82	82	82
59	1	211	9	1	3	0.0500	0.0500	0	1	0.406	0	82	82
59	1	212	1	1	1	0.0500	0.0500	1	0	0.527	0	82	0
59	1	213	1	2	3	0.0500	0.0500	0	1	0.571	78	82	82
59	1	214	0	1	2	0.0500	0.0500	1	1	0.533	8	0	82
59	1	215	0	1	1	0.0500	0.0500	1	0	0.675	0	0	82
59	1	216	9	2	2	0.0500	0.0500	0	1	0.691	0	0	0
59	1	217	0	1	1	0.0500	0.0500	1	1	0.639	7	0	82
59	1	218	9	1	3	0.0500	0.0500	1	1	0.718	0	82	0
59	1	219	9	1	1	0.0500	0.0500	1	0	0.602	0	0	82
59	1	220	1	1	1	0.0500	0.0500	1	1	0.469	88	82	0
59	1	221	0	1	2	0.0500	0.0500	1	1	0.659	7	0	82
59	1	222	9	1	3	0.0500	0.0500	0	1	0.513	0	0	0
59	1	223	9	2	3	0.0500	0.0500	0	1	0.656	0	0	0
59	1	224	1	1	3	0.0500	0.0500	1	1	0.487	86	82	0
59	1	225	9	1	3	0.0500	0.0500	1	0	0.510	0	82	0
59	1	226	0	2	3	0.0500	0.0500	1	0	0.531	0	82	0
59	1	227	9	2	3	0.0500	0.0500	1	0	1.225	0	0	82
59	1	228	0	2	2	0.0500	0.0500	0	1	0.465	9	0	0
59	1	229	0	2	2	0.0500	0.0500	0	1	0.674	7	0	0
59	1	230	1	2	3	0.0500	0.0500	1	1	0.755	60	0	82
59	1	231	9	2	3	0.0500	0.0500	1	0	0.727	0	82	0
59	1	232	0	2	3	0.0500	0.0500	1	0	0.724	0	82	0
59	1	233	1	1	1	0.0500	0.0500	0	1	0.527	82	82	82
59	1	234	0	1	3	0.0500	0.0500	1	1	0.629	7	0	82
59	1	235	9	2	2	0.0500	0.0500	1	0	0.524	0	82	0
59	1	236	1	1	3	0.0500	0.0500	1	0	0.567	0	82	0
59	1	237	1	2	3	0.0500	0.0500	0	1	0.668	68	82	82
59	1	238	0	2	3	0.0500	0.0500	0	1	0.481	9	0	0
59	1	239	1	1	1	0.0500	0.0500	1	0	0.625	0	82	0
59	1	240	1	2	2	0.0500	0.0500	0	1	0.507	84	82	82
59	1	241	9	2	2	0.0500	0.0500	1	1	0.615	0	0	82
59	1	242	9	1	2	0.0500	0.0500	0	1	0.513	0	82	82
59	1	243	0	1	1	0.0500	0.0500	0	1	0.453	9	0	0
59	1	244	9	2	2	0.0500	0.0500	1	1	0.636	0	82	0
59	1	245	1	1	3	0.0500	0.0500	1	1	0.652	70	82	0
59	1	246	0	2	2	0.0500	0.0500	0	1	0.421	9	0	0
59	1	247	1	1	2	0.0500	0.0500	0	0	0.652	0	82	82
59	1	248	0	2	2	0.0500	0.0500	0	1	0.428	9	0	0
59	1	249	0	2	3	0.0500	0.0500	0	1	0.612	7	0	0
59	1	250	0	1	1	0.0500	0.0500	0	1	0.460	9	0	0
59	1	251	9	1	3	0.0500	0.0500	0	1	0.693	0	82	82
59	1	252	0	1	1	0.0500	0.0500	1	0	0.482	0	0	82
59	1	253	0	2	3	0.0500	0.0500	0	1	0.534	8	0	0
59	1	254	9	1	3	0.0500	0.0500	1	1	0.674	0	0	82
59	1	255	1	2	1	0.0500	0.0500	0	1	0.499	85	82	82
59	1	256	1	2	3	0.0500	0.0500	1	1	0.632	72	0	82
59	1	257	9	1	1	0.0500	0.0500	1	1	0.561	0	82	0
59	1	258	0	2	2	0.0500	0.0500	0	1	0.572	8	0	0
59	1	259	9	2	3	0.0500	0.0500	0	1	0.504	0	0	0
59	1	260	1	2	3	0.0500	0.0500	0	1	0.518	83	82	82
59	1	261	0	2	1	0.0500	0.0500	0	1	0.376	10	0	0
59	1	262	9	1	1	0.0500	0.0500	1	1	0.427	0	0	82
59	1	263	0	1	3	0.0500	0.0500	0	1	0.418	9	0	0
59	1	264	0	1	3	0.0500	0.0500	1	0	0.845	0	0	82
59	1	265	1	1	3	0.0500	0.0500	1	1	0.415	93	82	0
59	1	266	1	1	1	0.0500	0.0500	1	0	0.600	0	82	0
59	1	267	9	2	2	0.0500	0.0500	0	0	0.641	0	0	0
59	1	268	0	2	2	0.0500	0.0500	1	0	0.610	0	82	0
59	1	269	9	2	2	0.0500	0.0500	1	1	0.477	0	0	82
59	1	270	1	2	3	0.0500	0.0500	0	1	0.484	87	82	82
59	1	271	1	2	3	0.0500	0.0500	0	0	0.683	0	82	82
59	1	272	1	1	3	0.0500	0.0500	1	0	0.553	0	82	0
59	1	273	0	1	3	0.0500	0.0500	0	0	0.652	0	0	0
59	1	274	1	2	2	0.0500	0.0500	1	1	0.443	91	0	82
59	1	275	1	2	3	0.0500	0.0500	1	1	0.461	89	0	82
59	1	276	1	1	1	0.0500	0.0500	1	1	0.605	75	82	0
59	1	277	0	2	2	0.0500	0.0500	0	1	0.471	9	0	0
59	1	278	0	2	3	0.0500	0.0500	1	1	0.645	7	82	0
59	1	279	0	1	3	0.0500	0.0500	1	1	0.710	6	0	82
59	1	280	1	2	3	0.0500	0.0500	1	0	0.694	0	0	82
59	1	281	9	1	1	0.0500	0.0500	1	1	0.540	0	82	0
59	1	282	1	1	3	0.0500	0.0500	1	1	0.689	66	82	0
59	1	283	0	1	3	0.0500	0.0500	0	0	0.694	0	0	0
59	1	284	1	2	3	0.0500	0.0500	0	1	0.620	73	82	82
59	1	285	1	1	1	0.0500	0.0500	1	1	0.763	59	82	0
59	1	286	9	2	2	0.0500	0.0500	0	1	0.525	0	82	82
59	1	287	0	1	1	0.0500	0.0500	0	1	0.556	8	0	0
59	1	288	1	1	2	0.0500	0.0500	1	1	0.687	66	82	0
59	1	289	0	2	3	0.0500	0.0500	1	0	1.277	0	82	0
59	1	290	9	1	1	0.0500	0.0500	0	1	0.508	0	82	82
59	1	291	9	1	1	0.0500	0.0500	0	1	0.408	0	82	82
59	1	292	1	1	1	0.0500	0.0500	0	1	0.443	91	82	82
59	1	293	9	2	1	0.0500	0.0500	0	1	0.464	0	82	82
59	1	294	9	2	1	0.0500	0.0500	0	1	0.408	0	0	0
59	1	295	9	1	1	0.0500	0.0500	0	1	0.451	0	0	0
59	1	296	9	1	3	0.0500	0.0500	1	1	0.800	0	0	82
59	1	297	0	1	3	0.0500	0.0500	1	1	0.513	8	0	82
59	1	298	0	2	2	0.0500	0.0500	1	1	0.615	7	82	0
59	1	299	9	2	3	0.0500	0.0500	0	1	0.607	0	82	82
59	1	300	1	2	3	0.0500	0.0500	1	1	0.598	75	0	82
59	1	301	1	2	3	0.0500	0.0500	0	1	0.448	90	82	82
59	1	302	0	1	3	0.0500	0.0500	1	1	0.602	7	0	82
59	1	303	0	2	3	0.0500	0.0500	1	1	0.604	7	82	0
59	1	304	1	1	1	0.0500	0.0500	1	0	0.750	0	82	0
59	1	305	0	2	3	0.0500	0.0500	1	0	0.482	0	82	0
59	1	306	0	2	2	0.0500	0.0500	1	1	0.376	10	82	0
59	1	307	0	2	3	0.0500	0.0500	1	1	0.501	8	82	0
59	1	308	0	1	1	0.0500	0.0500	1	1	0.467	9	0	82
59	1	309	9	2	2	0.0500	0.0500	0	1	0.515	0	0	0
59	1	310	1	1	1	0.0500	0.0500	1	1	0.542	81	82	0
59	1	311	0	1	3	0.0500	0.0500	1	1	1.083	5	0	82
59	1	312	1	2	2	0.0500	0.0500	1	0	0.609	0	0	82
59	1	313	0	1	3	0.0500	0.0500	0	1	0.611	7	0	0
59	1	314	1	1	3	0.0500	0.0500	0	1	0.399	95	82	82
59	1	315	1	1	2	0.0500	0.0500	1	0	0.767	0	82	0
59	1	316	1	1	1	0.0500	0.0500	0	1	0.388	96	82	82
59	1	317	0	1	3	0.0500	0.0500	0	1	0.573	8	0	0
59	1	318	1	2	3	0.0500	0.0500	1	1	0.376	97	0	82
59	1	319	0	1	2	0.0500	0.0500	0	0	1.089	0	0	0
59	1	320	0	2	2	0.0500	0.0500	1	0	0.381	0	82	0
59	1	321	1	1	1	0.0500	0.0500	1	1	0.586	76	82	0
59	1	322	9	1	2	0.0500	0.0500	1	1	0.541	0	82	0
59	1	323	9	1	3	0.0500	0.0500	1	1	0.474	0	82	0
59	1	324	0	2	3	0.0500	0.0500	0	1	0.537	8	0	0
59	1	325	1	2	2	0.0500	0.0500	0	1	0.438	91	82	82
59	1	326	1	1	3	0.0500	0.0500	1	1	0.487	86	82	0
59	1	327	1	1	3	0.0500	0.0500	1	1	0.693	66	82	0
59	1	328	1	2	3	0.0500	0.0500	1	1	0.460	89	0	82
59	1	329	0	2	1	0.0500	0.0500	0	1	0.410	9	0	0
59	1	330	0	2	3	0.0500	0.0500	1	0	0.598	0	82	0
59	1	331	0	1	3	0.0500	0.0500	1	1	0.525	8	0	82
59	1	332	0	1	3	0.0500	0.0500	0	1	0.496	9	0	0
59	1	333	0	1	3	0.0500	0.0500	0	1	0.528	8	0	0
59	1	334	1	2	3	0.0500	0.0500	0	1	0.396	95	82	82
59	1	335	1	1	3	0.0500	0.0500	1	0	0.661	0	82	0
59	1	336	1	2	1	0.0500	0.0500	1	1	0.516	83	0	82
59	1	337	0	2	3	0.0500	0.0500	1	1	0.609	7	82	0
59	1	338	1	1	1	0.0500	0.0500	0	1	0.540	81	82	82
59	1	339	1	2	2	0.0500	0.0500	0	1	0.673	68	82	82
59	1	340	1	2	2	0.0500	0.0500	0	1	0.472	88	82	82
59	1	341	0	1	3	0.0500	0.0500	1	1	0.489	9	0	82
59	1	342	0	1	2	0.0500	0.0500	0	1	0.584	8	0	0
59	1	343	1	1	1	0.0500	0.0500	1	1	0.580	77	82	0
59	1	344	1	2	2	0.0500	0.0500	0	1	0.437	91	82	82
59	1	345	0	1	3	0.0500	0.0500	0	1	0.526	8	0	0
59	1	346	1	2	2	0.0500	0.0500	0	0	0.700	0	82	82
59	1	347	1	1	3	0.0500	0.0500	1	0	0.498	0	82	0
59	1	348	1	2	2	0.0500	0.0500	1	1	0.496	85	0	82
59	1	349	0	2	2	0.0500	0.0500	0	1	0.462	9	0	0
59	1	350	0	2	3	0.0500	0.0500	1	1	0.572	8	82	0
59	1	351	1	1	3	0.0500	0.0500	1	1	1.053	50	82	0
59	1	352	9	1	3	0.0500	0.0500	1	0	0.548	0	82	0
59	1	353	1	1	1	0.0500	0.0500	0	1	0.586	76	82	82
59	1	354	0	2	1	0.0500	0.0500	1	1	0.562	8	82	0
59	1	355	0	2	2	0.0500	0.0500	1	1	0.502	8	82	0
59	1	356	0	1	3	0.0500	0.0500	0	1	0.508	8	0	0
59	1	357	0	2	3	0.0500	0.0500	1	1	0.610	7	82	0
59	1	358	0	1	1	0.0500	0.0500	0	1	0.474	9	0	0
59	1	359	1	1	3	0.0500	0.0500	0	1	0.433	92	82	82
59	1	360	1	1	1	0.0500	0.0500	1	1	0.570	78	82	0
59	1	361	0	1	3	0.0500	0.0500	0	1	0.521	8	0	0
59	1	362	1	2	2	0.0500	0.0500	1	1	0.556	79	0	82
59	1	363	1	1	3	0.0500	0.0500	0	1	0.448	90	82	82
59	1	364	1	2	2	0.0500	0.0500	1	1	0.702	65	0	82
59	1	365	0	1	3	0.0500	0.0500	0	1	0.498	9	0	0
59	1	366	1	2	2	0.0500	0.0500	0	1	0.441	91	82	82
59	1	367	9	1	3	0.0500	0.0500	1	1	0.511	0	82	0
59	1	368	1	2	3	0.0500	0.0500	1	1	0.604	75	0	82
59	1	369	9	2	1	0.0500	0.0500	0	1	0.439	0	0	0
59	1	370	9	1	1	0.0500	0.0500	1	0	0.583	0	82	0
59	1	371	1	2	2	0.0500	0.0500	0	1	0.434	92	82	82
59	1	372	0	1	2	0.0500	0.0500	0	0	0.450	0	0	0
59	1	373	0	2	1	0.0500	0.0500	1	1	0.690	7	82	0
59	1	374	9	2	3	0.0500	0.0500	1	1	0.481	0	0	82
59	1	375	0	1	3	0.0500	0.0500	0	1	0.408	9	0	0
59	1	376	9	2	3	0.0500	0.0500	1	1	0.362	0	0	82
59	1	377	9	1	1	0.0500	0.0500	0	1	0.423	0	0	0
59	1	378	9	1	3	0.0500	0.0500	1	0	0.519	0	0	82
59	1	379	1	1	1	0.0500	0.0500	1	1	0.658	69	82	0
59	1	380	1	2	3	0.0500	0.0500	0	0	1.138	0	82	82
59	1	381	1	1	1	0.0500	0.0500	0	1	0.443	91	82	82
59	1	382	9	1	1	0.0500	0.0500	1	0	0.482	0	0	82
59	1	383	9	1	1	0.0500	0.0500	0	1	0.504	0	0	0
59	1	384	1	1	3	0.0500	0.0500	0	1	0.438	91	82	82
59	1	385	1	1	3	0.0500	0.0500	0	1	0.456	89	82	82
59	1	386	1	1	1	0.0500	0.0500	1	1	0.543	81	82	0
59	1	387	9	2	2	0.0500	0.0500	0	1	0.412	0	0	0
59	1	388	1	1	1	0.0500	0.0500	0	1	0.487	86	82	82
59	1	389	0	2	2	0.0500	0.0500	1	1	0.623	7	82	0
59	1	390	0	2	2	0.0500	0.0500	1	1	0.505	8	82	0
59	1	391	0	2	2	0.0500	0.0500	1	1	0.583	8	82	0
59	1	392	1	2	1	0.0500	0.0500	0	1	0.473	88	82	82
59	1	393	9	2	3	0.0500	0.0500	1	1	0.456	0	82	0
59	1	394	9	2	2	0.0500	0.0500	1	1	0.624	0	0	82
59	1	395	1	2	3	0.0500	0.0500	1	1	0.463	89	0	82
59	1	396	1	1	1	0.0500	0.0500	0	0	3.086	0	82	82
59	1	397	1	2	3	0.0500	0.0500	0	1	0.484	87	82	82
59	1	398	0	2	3	0.0500	0.0500	1	1	0.651	7	82	0
59	1	399	9	1	3	0.0500	0.0500	1	1	0.507	0	82	0
59	1	400	1	1	1	0.0500	0.0500	0	1	0.487	86	82	82
59	1	401	0	2	3	0.0500	0.0500	1	1	0.580	8	82	0
59	1	402	0	2	1	0.0500	0.0500	1	1	0.460	9	82	0
59	1	403	1	2	3	0.0500	0.0500	0	1	0.412	94	82	82
59	1	404	1	1	1	0.0500	0.0500	0	1	0.743	61	82	82
59	1	405	1	2	2	0.0500	0.0500	0	1	0.619	73	82	82
59	1	406	1	1	1	0.0500	0.0500	1	1	0.483	87	82	0
59	1	407	1	1	3	0.0500	0.0500	0	1	0.586	76	82	82
59	1	408	9	2	3	0.0500	0.0500	0	1	0.427	0	82	82
59	1	409	9	2	3	0.0500	0.0500	0	1	0.460	0	0	0
59	1	410	1	2	2	0.0500	0.0500	0	1	0.354	100	82	82
59	1	411	0	1	3	0.0500	0.0500	1	1	0.758	6	0	82
59	1	412	9	1	3	0.0500	0.0500	1	0	0.575	0	82	0
59	1	413	0	2	3	0.0500	0.0500	0	1	0.427	9	0	0
59	1	414	9	1	3	0.0500	0.0500	1	0	0.340	0	0	82
59	1	415	1	1	3	0.0500	0.0500	0	1	0.448	90	82	82
59	1	416	1	2	2	0.0500	0.0500	0	1	0.392	96	82	82
59	1	417	9	2	2	0.0500	0.0500	0	1	0.435	0	82	82
59	1	418	0	1	1	0.0500	0.0500	1	0	0.442	0	0	82
59	1	419	1	2	2	0.0500	0.0500	1	1	0.499	85	0	82
59	1	420	0	1	3	0.0500	0.0500	1	0	0.567	0	0	82
59	1	421	0	2	2	0.0500	0.0500	0	1	0.395	10	0	0
59	1	422	0	1	3	0.0500	0.0500	1	1	0.974	5	0	82
59	1	423	9	2	1	0.0500	0.0500	1	0	0.704	0	0	82
59	1	424	0	1	2	0.0500	0.0500	1	0	0.589	0	0	82
59	1	425	1	2	2	0.0500	0.0500	0	1	0.703	65	82	82
59	1	426	1	1	1	0.0500	0.0500	1	0	0.470	0	82	0
59	1	427	9	1	3	0.0500	0.0500	1	1	0.674	0	82	0
59	1	428	9	1	3	0.0500	0.0500	0	1	0.434	0	82	82
59	1	429	1	1	1	0.0500	0.0500	0	1	0.418	93	82	82
59	1	430	0	1	1	0.0500	0.0500	0	1	0.570	8	0	0
59	1	431	0	2	3	0.0500	0.0500	1	0	0.542	0	82	0
59	1	432	1	1	2	0.0500	0.0500	1	1	0.751	60	82	0
59	1	433	0	2	3	0.0500	0.0500	1	0	0.402	0	82	0
59	1	434	9	1	1	0.0500	0.0500	1	1	0.499	0	82	0
59	1	435	1	2	1	0.0500	0.0500	0	1	0.448	90	82	82
59	1	436	1	1	3	0.0500	0.0500	0	1	0.472	88	82	82
59	1	437	1	2	3	0.0500	0.0500	0	1	0.525	82	82	82
59	1	438	0	2	2	0.0500	0.0500	0	1	0.658	7	0	0
59	1	439	0	1	3	0.0500	0.0500	0	1	0.472	9	0	0
59	1	440	1	1	3	0.0500	0.0500	0	1	0.637	71	82	82
59	1	441	0	2	2	0.0500	0.0500	0	1	0.459	9	0	0
59	1	442	1	2	2	0.0500	0.0500	1	1	0.490	86	0	82
59	1	443	1	1	1	0.0500	0.0500	0	1	0.567	78	82	82
59	1	444	0	1	2	0.0500	0.0500	0	1	0.650	7	0	0
59	1	445	9	2	3	0.0500	0.0500	1	0	0.617	0	0	82
59	1	446	1	2	2	0.0500	0.0500	0	1	0.420	93	82	82
59	1	447	9	1	2	0.0500	0.0500	0	1	2.326	0	0	0
59	1	448	1	1	3	0.0500	0.0500	0	1	0.523	83	82	82
59	1	449	1	1	3	0.0500	0.0500	1	0	0.696	0	82	0
59	1	450	1	1	1	0.0500	0.0500	0	1	0.574	78	82	82
59	1	451	1	2	3	0.0500	0.0500	1	0	0.671	0	0	82
59	1	452	1	2	3	0.0500	0.0500	1	1	0.533	82	0	82
59	1	453	1	2	3	0.0500	0.0500	0	1	0.457	89	82	82
59	1	454	1	2	2	0.0500	0.0500	0	1	0.416	93	82	82
59	1	455	1	1	1	0.0500	0.0500	1	1	0.554	80	82	0
59	1	456	9	2	2	0.0500	0.0500	0	1	0.421	0	0	0
59	1	457	0	2	3	0.0500	0.0500	0	1	0.396	10	0	0
59	1	458	1	1	3	0.0500	0.0500	1	0	0.749	0	82	0
59	1	459	0	1	3	0.0500	0.0500	1	1	0.545	8	0	82
59	1	460	0	2	3	0.0500	0.0500	0	1	0.422	9	0	0
59	1	461	0	2	3	0.0500	0.0500	1	1	0.523	8	82	0
59	1	462	0	1	1	0.0500	0.0500	0	1	0.488	9	0	0
59	1	463	0	2	2	0.0500	0.0500	1	1	0.488	9	82	0
59	1	464	9	1	1	0.0500	0.0500	0	0	0.565	0	82	82
59	1	465	1	1	1	0.0500	0.0500	1	1	0.562	79	82	0
59	1	466	0	1	3	0.0500	0.0500	1	1	0.541	8	0	82
59	1	467	1	2	3	0.0500	0.0500	1	1	0.482	87	0	82
59	1	468	1	2	2	0.0500	0.0500	1	1	0.527	82	0	82
59	1	469	0	1	1	0.0500	0.0500	0	1	0.525	8	0	0
59	1	470	1	2	2	0.0500	0.0500	0	1	0.473	88	82	82
59	1	471	1	1	3	0.0500	0.0500	0	1	0.505	84	82	82
59	1	472	1	2	2	0.0500	0.0500	0	1	0.415	94	82	82
59	1	473	1	2	1	0.0500	0.0500	1	1	0.415	94	0	82
59	1	474	9	1	1	0.0500	0.0500	1	0	0.503	0	0	82
59	1	475	0	1	1	0.0500	0.0500	1	1	0.620	7	0	82
59	1	476	0	2	3	0.0500	0.0500	1	1	0.517	8	82	0
59	1	477	1	1	2	0.0500	0.0500	1	1	0.672	68	82	0
59	1	478	1	1	3	0.0500	0.0500	1	1	0.543	81	82	0
59	1	479	0	2	2	0.0500	0.0500	0	1	0.386	10	0	0
59	1	480	9	1	1	0.0500	0.0500	1	1	0.506	0	0	82
59	1	481	0	2	3	0.0500	0.0500	1	0	0.635	0	82	0
59	1	482	0	2	3	0.0500	0.0500	0	1	0.429	9	0	0
59	1	483	0	1	2	0.0500	0.0500	0	1	0.382	10	0	0
59	1	484	1	1	1	0.0500	0.0500	1	1	0.418	93	82	0
59	1	485	1	1	1	0.0500	0.0500	0	1	0.442	91	82	82
59	1	486	0	2	2	0.0500	0.0500	1	1	0.572	8	82	0
59	1	487	1	1	1	0.0500	0.0500	1	1	0.429	92	82	0
59	1	488	9	2	2	0.0500	0.0500	1	1	0.574	0	0	82
59	1	489	1	2	2	0.0500	0.0500	0	1	0.440	91	82	82
59	1	490	9	2	3	0.0500	0.0500	0	1	0.423	0	82	82
59	1	491	9	1	3	0.0500	0.0500	0	0	0.582	0	82	82
59	1	492	0	2	2	0.0500	0.0500	1	1	0.610	7	82	0
59	1	493	0	2	2	0.0500	0.0500	1	1	0.508	8	82	0
59	1	494	9	1	3	0.0500	0.0500	1	0	0.617	0	0	82
59	1	495	1	2	2	0.0500	0.0500	0	1	0.426	92	82	82
59	1	496	0	1	3	0.0500	0.0500	1	1	0.692	7	0	82
59	1	497	9	2	3	0.0500	0.0500	0	1	0.457	0	0	0
59	1	498	0	1	1	0.0500	0.0500	1	1	0.545	8	0	82
59	1	499	9	2	1	0.0500	0.0500	0	1	0.358	0	82	82
59	1	500	1	1	1	0.0500	0.0500	0	1	0.544	81	82	82
59	1	501	1	2	3	0.0500	0.0500	0	1	0.438	91	82	82
59	1	502	1	2	3	0.0500	0.0500	0	1	0.400	95	82	82
59	1	503	1	1	3	0.0500	0.0500	1	1	0.810	54	82	0
59	1	504	9	1	1	0.0500	0.0500	0	1	0.494	0	82	82
59	1	505	0	2	2	0.0500	0.0500	0	1	0.421	9	0	0
59	1	506	1	2	2	0.0500	0.0500	0	1	0.373	98	82	82
59	1	507	1	1	1	0.0500	0.0500	0	1	0.358	99	82	82
59	1	508	1	1	3	0.0500	0.0500	0	1	0.376	97	82	82
59	1	509	1	2	2	0.0500	0.0500	1	1	0.588	76	0	82
59	1	510	0	2	2	0.0500	0.0500	0	1	0.438	9	0	0
59	1	511	1	1	3	0.0500	0.0500	1	1	0.471	88	82	0
59	1	512	0	2	3	0.0500	0.0500	0	1	0.461	9	0	0
59	1	513	9	2	2	0.0500	0.0500	1	1	0.455	0	82	0
59	1	514	1	1	3	0.0500	0.0500	1	1	0.509	84	82	0
59	1	515	1	2	3	0.0500	0.0500	1	1	0.482	87	0	82
59	1	516	1	1	3	0.0500	0.0500	1	1	0.536	81	82	0
59	1	517	1	1	3	0.0500	0.0500	1	1	0.668	68	82	0
59	1	518	1	2	3	0.0500	0.0500	0	1	0.379	97	82	82
59	1	519	1	2	3	0.0500	0.0500	1	0	0.645	0	0	82
59	1	520	1	2	1	0.0500	0.0500	1	1	0.594	76	0	82
59	1	521	9	2	2	0.0500	0.0500	1	1	0.507	0	82	0
59	1	522	1	2	3	0.0500	0.0500	1	1	0.423	93	0	82
59	1	523	1	2	2	0.0500	0.0500	1	1	0.503	85	0	82
59	1	524	9	2	2	0.0500	0.0500	1	1	0.565	0	82	0
59	1	525	0	2	2	0.0500	0.0500	0	1	0.537	8	0	0
59	1	526	1	1	3	0.0500	0.0500	1	1	0.631	72	82	0
59	1	527	1	2	3	0.0500	0.0500	1	1	0.495	86	0	82
59	1	528	1	1	1	0.0500	0.0500	1	0	0.580	0	82	0
59	1	529	0	1	2	0.0500	0.0500	0	1	0.477	9	0	0
59	1	530	9	1	3	0.0500	0.0500	0	1	0.469	0	82	82
59	1	531	0	1	1	0.0500	0.0500	0	1	0.429	9	0	0
59	1	532	0	1	1	0.0500	0.0500	1	0	0.654	0	0	82
59	1	533	1	1	1	0.0500	0.0500	0	1	0.525	82	82	82
59	1	534	0	1	2	0.0500	0.0500	1	1	0.668	7	0	82
59	1	535	1	1	1	0.0500	0.0500	1	1	0.580	77	82	0
59	1	536	1	1	3	0.0500	0.0500	0	0	0.670	0	82	82
59	1	537	0	1	1	0.0500	0.0500	0	1	0.452	9	0	0
59	1	538	0	1	3	0.0500	0.0500	0	1	0.421	9	0	0
59	1	539	0	1	3	0.0500	0.0500	0	1	0.392	10	0	0
59	1	540	0	1	3	0.0500	0.0500	0	1	0.697	7	0	0
59	1	541	0	2	3	0.0500	0.0500	1	0	0.543	0	82	0
59	1	542	1	2	2	0.0500	0.0500	1	1	0.491	86	0	82
59	1	543	0	1	1	0.0500	0.0500	0	1	0.625	7	0	0
59	1	544	0	1	1	0.0500	0.0500	1	1	0.632	7	0	82
59	1	545	0	1	1	0.0500	0.0500	0	1	0.513	8	0	0
59	1	546	9	1	2	0.0500	0.0500	1	1	0.576	0	0	82
59	1	547	1	1	1	0.0500	0.0500	0	1	0.634	72	82	82
59	1	548	0	2	2	0.0500	0.0500	0	1	0.458	9	0	0
59	1	549	0	2	3	0.0500	0.0500	0	1	0.474	9	0	0
59	1	550	1	1	1	0.0500	0.0500	1	0	0.791	0	82	0
59	1	551	1	1	1	0.0500	0.0500	0	1	0.378	97	82	82
59	1	552	0	2	2	0.0500	0.0500	0	1	0.444	9	0	0
59	1	553	9	1	3	0.0500	0.0500	0	1	0.514	0	0	0
59	1	554	0	1	3	0.0500	0.0500	1	1	0.647	7	0	82
59	1	555	0	2	3	0.0500	0.0500	1	0	0.814	0	82	0
59	1	556	0	2	3	0.0500	0.0500	0	1	0.433	9	0	0
59	1	557	1	2	3	0.0500	0.0500	0	1	0.456	89	82	82
59	1	558	0	2	3	0.0500	0.0500	0	1	0.415	9	0	0
59	1	559	9	1	1	0.0500	0.0500	1	0	0.537	0	82	0
59	1	560	0	2	3	0.0500	0.0500	0	1	0.516	8	0	0
59	1	561	0	1	3	0.0500	0.0500	1	0	0.802	0	0	82
59	1	562	0	1	3	0.0500	0.0500	1	0	0.773	0	0	82
59	1	563	0	2	3	0.0500	0.0500	0	1	0.503	8	0	0
59	1	564	0	2	2	0.0500	0.0500	1	1	0.501	8	82	0
59	1	565	0	2	1	0.0500	0.0500	1	1	0.555	8	82	0
59	1	566	0	1	1	0.0500	0.0500	1	1	0.509	8	0	82
59	1	567	9	1	1	0.0500	0.0500	0	1	0.442	0	0	0
59	1	568	0	2	3	0.0500	0.0500	0	1	0.466	9	0	0
59	1	569	9	2	1	0.0500	0.0500	1	1	0.520	0	82	0
59	1	570	0	2	2	0.0500	0.0500	0	1	0.677	7	0	0
59	1	571	1	2	2	0.0500	0.0500	1	1	0.459	89	0	82
59	1	572	0	1	1	0.0500	0.0500	1	0	0.744	0	0	82
59	1	573	1	2	2	0.0500	0.0500	1	1	0.468	88	0	82
59	1	574	1	1	2	0.0500	0.0500	0	0	0.569	0	82	82
59	1	575	0	1	3	0.0500	0.0500	1	0	0.605	0	0	82
59	1	576	1	1	1	0.0500	0.0500	1	1	0.543	81	82	0
59	1	577	9	2	3	0.0500	0.0500	0	1	0.586	0	0	0
59	1	578	0	1	3	0.0500	0.0500	0	1	0.420	9	0	0
59	1	579	1	2	2	0.0500	0.0500	1	1	0.438	91	0	82
59	1	580	0	1	3	0.0500	0.0500	0	1	0.395	10	0	0
59	1	581	9	1	1	0.0500	0.0500	1	1	0.508	0	82	0
59	1	582	1	1	1	0.0500	0.0500	0	1	0.539	81	82	82
59	1	583	0	2	1	0.0500	0.0500	0	1	0.405	9	0	0
59	1	584	1	2	3	0.0500	0.0500	0	1	0.496	85	82	82
59	1	585	1	2	2	0.0500	0.0500	0	1	0.447	90	82	82
59	1	586	0	1	1	0.0500	0.0500	1	0	0.605	0	0	82
59	1	587	0	1	1	0.0500	0.0500	1	0	0.760	0	0	82
59	1	588	1	1	3	0.0500	0.0500	1	1	0.580	77	82	0
59	1	589	1	1	2	0.0500	0.0500	1	1	0.382	97	82	0
59	1	590	0	2	2	0.0500	0.0500	1	1	0.630	7	82	0
59	1	591	1	2	2	0.0500	0.0500	1	1	0.470	88	0	82
59	1	592	1	2	3	0.0500	0.0500	1	1	0.562	79	0	82
59	1	593	1	1	2	0.0500	0.0500	0	0	0.440	0	82	82
59	1	594	1	2	1	0.0500	0.0500	1	1	0.391	96	0	82
59	1	595	1	1	3	0.0500	0.0500	0	1	0.435	92	82	82
59	1	596	9	1	3	0.0500	0.0500	0	1	0.525	0	0	0
59	1	597	1	2	2	0.0500	0.0500	1	1	0.450	90	0	82
59	1	598	1	1	1	0.0500	0.0500	0	1	0.443	91	82	82
59	1	599	1	2	3	0.0500	0.0500	1	1	0.371	98	0	82
59	1	600	9	2	3	0.0500	0.0500	1	1	0.607	0	82	0
59	1	601	0	1	1	0.0500	0.0500	1	1	0.483	9	0	82
59	1	602	0	2	2	0.0500	0.0500	0	1	0.482	9	0	0
59	1	603	1	2	3	0.0500	0.0500	1	1	0.351	100	0	82
59	1	604	1	2	3	0.0500	0.0500	0	1	0.556	79	82	82
59	1	605	9	2	3	0.0500	0.0500	0	1	0.425	0	82	82
59	1	606	0	2	2	0.0500	0.0500	1	1	0.620	7	82	0
59	1	607	0	2	2	0.0500	0.0500	0	0	0.718	0	0	0
59	1	608	0	1	1	0.0500	0.0500	1	1	0.579	8	0	82
59	1	609	1	2	1	0.0500	0.0500	1	1	0.565	79	0	82
59	1	610	9	1	1	0.0500	0.0500	1	1	0.679	0	0	82
59	1	611	9	2	2	0.0500	0.0500	0	1	0.413	0	82	82
59	1	612	0	2	2	0.0500	0.0500	1	1	0.582	8	82	0
59	1	613	1	1	3	0.0500	0.0500	1	0	0.465	0	82	0
59	1	614	1	2	1	0.0500	0.0500	0	1	0.528	82	82	82
59	1	615	0	2	3	0.0500	0.0500	1	1	0.669	7	82	0
59	1	616	1	2	2	0.0500	0.0500	1	1	0.389	96	0	82
59	1	617	0	1	1	0.0500	0.0500	0	0	0.462	0	0	0
59	1	618	0	1	3	0.0500	0.0500	0	1	0.624	7	0	0
59	1	619	0	1	3	0.0500	0.0500	1	0	0.462	0	0	82
59	1	620	1	2	1	0.0500	0.0500	0	1	0.462	89	82	82
59	1	621	0	2	3	0.0500	0.0500	1	1	0.567	8	82	0
59	1	622	1	2	3	0.0500	0.0500	1	1	0.618	73	0	82
59	1	623	0	1	1	0.0500	0.0500	0	1	0.396	10	0	0
59	1	624	9	1	1	0.0500	0.0500	0	1	0.511	0	82	82
59	1	625	0	1	2	0.0500	0.0500	1	0	0.622	0	0	82
59	1	626	0	1	1	0.0500	0.0500	1	0	0.886	0	0	82
59	1	627	0	2	2	0.0500	0.0500	1	1	0.556	8	82	0
59	1	628	9	2	3	0.0500	0.0500	1	1	0.501	0	82	0
59	1	629	0	1	3	0.0500	0.0500	0	1	0.467	9	0	0
59	1	630	0	2	1	0.0500	0.0500	0	1	0.584	8	0	0
59	1	631	0	2	1	0.0500	0.0500	0	1	0.522	8	0	0
59	1	632	1	1	1	0.0500	0.0500	1	0	0.541	0	82	0
59	1	633	1	1	2	0.0500	0.0500	0	1	0.641	71	82	82
59	1	634	9	1	2	0.0500	0.0500	0	1	0.482	0	82	82
59	1	635	0	2	2	0.0500	0.0500	1	1	0.425	9	82	0
59	1	636	0	2	3	0.0500	0.0500	0	1	0.545	8	0	0
59	1	637	0	1	1	0.0500	0.0500	0	1	0.484	9	0	0
59	1	638	0	1	1	0.0500	0.0500	0	1	0.579	8	0	0
59	1	639	0	1	3	0.0500	0.0500	0	1	0.670	7	0	0
59	1	640	9	2	3	0.0500	0.0500	0	1	0.535	0	82	82
59	1	641	9	2	2	0.0500	0.0500	0	1	0.428	0	0	0
59	1	642	0	1	3	0.0500	0.0500	0	1	0.486	9	0	0
59	1	643	0	1	1	0.0500	0.0500	1	1	0.718	6	0	82
59	1	644	9	2	3	0.0500	0.0500	0	1	0.506	0	0	0
59	1	645	0	1	3	0.0500	0.0500	1	1	0.848	5	0	82
59	1	646	0	2	2	0.0500	0.0500	0	0	0.640	0	0	0
59	1	647	9	1	3	0.0500	0.0500	0	1	0.463	0	82	82
59	1	648	1	2	2	0.0500	0.0500	1	1	0.439	91	0	82
59	1	649	9	1	1	0.0500	0.0500	0	1	0.487	0	82	82
59	1	650	0	1	3	0.0500	0.0500	1	1	0.748	6	0	82
59	1	651	1	1	2	0.0500	0.0500	0	1	0.552	80	82	82
59	1	652	0	1	1	0.0500	0.0500	0	1	0.972	5	0	0
59	1	653	9	1	1	0.0500	0.0500	0	1	0.711	0	0	0
59	1	654	0	1	1	0.0500	0.0500	0	1	0.451	9	0	0
59	1	655	1	1	1	0.0500	0.0500	1	0	0.731	0	82	0
59	1	656	9	2	2	0.0500	0.0500	1	1	0.447	0	0	82
59	1	657	1	2	3	0.0500	0.0500	1	1	0.518	83	0	82
59	1	658	1	2	3	0.0500	0.0500	1	0	0.556	0	0	82
59	1	659	0	2	2	0.0500	0.0500	0	1	0.585	8	0	0
59	1	660	1	2	3	0.0500	0.0500	0	1	0.428	92	82	82
59	1	661	0	2	2	0.0500	0.0500	1	1	0.625	7	82	0
59	1	662	0	1	1	0.0500	0.0500	0	1	0.665	7	0	0
59	1	663	0	2	3	0.0500	0.0500	1	1	0.577	8	82	0
59	1	664	0	2	2	0.0500	0.0500	0	1	0.493	9	0	0
59	1	665	0	1	1	0.0500	0.0500	1	0	0.636	0	0	82
59	1	666	1	2	3	0.0500	0.0500	0	1	0.500	85	82	82
59	1	667	0	1	1	0.0500	0.0500	0	1	0.521	8	0	0
59	1	668	0	2	3	0.0500	0.0500	0	1	0.606	7	0	0
59	1	669	0	2	3	0.0500	0.0500	0	1	0.399	10	0	0
59	1	670	0	1	3	0.0500	0.0500	0	0	0.527	0	0	0
59	1	671	0	2	3	0.0500	0.0500	1	1	0.637	7	82	0
59	1	672	1	1	3	0.0500	0.0500	1	1	0.661	69	82	0
59	1	673	0	1	3	0.0500	0.0500	0	1	0.500	8	0	0
59	1	674	0	1	3	0.0500	0.0500	0	1	0.471	9	0	0
59	1	675	1	2	3	0.0500	0.0500	0	1	0.566	78	82	82
59	1	676	1	1	3	0.0500	0.0500	1	1	0.887	50	82	0
59	1	677	9	1	3	0.0500	0.0500	0	1	0.516	0	0	0
59	1	678	9	2	2	0.0500	0.0500	0	1	0.496	0	82	82
59	1	679	1	1	1	0.0500	0.0500	1	0	0.574	0	82	0
59	1	680	0	1	1	0.0500	0.0500	1	0	0.521	0	0	82
59	1	681	1	1	2	0.0500	0.0500	1	1	1.688	50	82	0
59	1	682	1	2	2	0.0500	0.0500	1	1	0.495	85	0	82
59	1	683	9	1	3	0.0500	0.0500	0	0	0.669	0	0	0
59	1	684	0	2	2	0.0500	0.0500	0	1	0.435	9	0	0
59	1	685	9	2	2	0.0500	0.0500	0	1	0.643	0	0	0
59	1	686	1	2	3	0.0500	0.0500	0	1	0.474	88	82	82
59	1	687	0	2	3	0.0500	0.0500	0	1	0.672	7	0	0
59	1	688	1	1	1	0.0500	0.0500	1	0	0.503	0	82	0
59	1	689	1	1	3	0.0500	0.0500	1	0	0.523	0	82	0
59	1	690	1	2	3	0.0500	0.0500	1	1	0.440	91	0	82
59	1	691	0	1	3	0.0500	0.0500	1	1	0.681	7	0	82
59	1	692	0	2	3	0.0500	0.0500	1	0	0.545	0	82	0
59	1	693	0	2	1	0.0500	0.0500	1	1	0.750	6	82	0
59	1	694	0	1	1	0.0500	0.0500	0	1	0.675	7	0	0
59	1	695	0	2	1	0.0500	0.0500	0	0	0.633	0	0	0
59	1	696	1	1	3	0.0500	0.0500	0	1	0.968	50	82	82
59	1	697	1	1	3	0.0500	0.0500	1	0	0.643	0	82	0
59	1	698	9	2	3	0.0500	0.0500	1	1	0.562	0	82	0
59	1	699	1	2	3	0.0500	0.0500	0	1	0.861	50	82	82
59	1	700	9	1	2	0.0500	0.0500	1	1	0.548	0	82	0
59	1	701	1	2	2	0.0500	0.0500	0	1	0.481	87	82	82
59	1	702	0	1	1	0.0500	0.0500	1	0	0.750	0	0	82
59	1	703	9	2	3	0.0500	0.0500	1	1	0.668	0	0	82
59	1	704	1	1	3	0.0500	0.0500	0	1	0.996	50	82	82
59	1	705	9	2	2	0.0500	0.0500	0	1	0.479	0	82	82
59	1	706	1	1	3	0.0500	0.0500	0	1	0.839	51	82	82
59	1	707	1	2	2	0.0500	0.0500	0	1	0.695	65	82	82
59	1	708	0	1	3	0.0500	0.0500	1	1	0.765	6	0	82
59	1	709	0	1	3	0.0500	0.0500	1	0	0.727	0	0	82
59	1	710	0	2	3	0.0500	0.0500	1	0	0.629	0	82	0
59	1	711	9	2	2	0.0500	0.0500	1	1	0.485	0	0	82
59	1	712	1	1	3	0.0500	0.0500	1	0	0.676	0	82	0
59	1	713	0	2	3	0.0500	0.0500	0	1	0.634	7	0	0
59	1	714	0	2	2	0.0500	0.0500	1	0	0.745	0	82	0
59	1	715	1	1	3	0.0500	0.0500	0	0	0.637	0	82	82
59	1	716	9	2	2	0.0500	0.0500	1	1	0.653	0	82	0
59	1	717	9	1	3	0.0500	0.0500	1	1	0.702	0	0	82
59	1	718	0	1	2	0.0500	0.0500	1	1	0.661	7	0	82
59	1	719	0	2	2	0.0500	0.0500	1	1	0.733	6	82	0
59	1	720	0	2	3	0.0500	0.0500	1	1	0.747	6	82	0
