sub	sess	t	loc	cue	co1	co2	or	resp	rt
134	1	1	1	1	0.2236	0.1162	1	0	1.575
134	1	2	1	3	0.2236	0.1162	1	1	1.178
134	1	3	1	1	0.2236	0.1162	0	1	0.949
134	1	4	2	3	0.2236	0.1162	0	0	0.770
134	1	5	2	3	0.2236	0.1162	1	1	0.829
134	1	6	2	1	0.2236	0.1162	0	0	2.157
134	1	7	2	2	0.2236	0.1162	1	1	0.702
134	1	8	1	1	0.2236	0.1162	1	1	2.553
134	1	9	1	3	0.2236	0.1162	0	1	2.715
134	1	10	2	2	0.2236	0.1162	1	1	0.824
134	1	11	2	2	0.2236	0.1162	0	0	2.057
134	1	12	2	3	0.2236	0.1162	1	1	1.305
134	1	13	2	3	0.2236	0.1162	0	0	1.616
134	1	14	2	2	0.2236	0.1162	0	1	2.473
134	1	15	2	1	0.2236	0.1162	1	0	0.782
134	1	16	1	2	0.2236	0.1162	0	1	1.814
134	1	17	2	2	0.2236	0.1162	0	0	3.024
134	1	18	1	3	0.2236	0.1162	1	1	3.474
134	1	19	2	2	0.2236	0.1162	0	1	2.550
134	1	20	1	1	0.2236	0.1162	1	1	1.417
134	1	21	1	1	0.2236	0.1162	1	1	1.016
134	1	22	2	2	0.2236	0.1162	1	1	1.083
134	1	23	1	1	0.2236	0.1162	0	1	0.793
134	1	24	1	3	0.2236	0.1162	0	1	0.708
134	1	25	1	1	0.2236	0.1162	1	1	0.767
134	1	26	1	3	0.2236	0.1162	0	1	0.552
134	1	27	2	3	0.2236	0.1162	0	1	2.210
134	1	28	1	1	0.2236	0.1162	0	1	0.593
134	1	29	1	2	0.2236	0.1162	1	1	0.580
134	1	30	1	3	0.2236	0.1162	1	1	0.494
134	1	31	2	2	0.2236	0.1162	0	1	1.211
134	1	32	2	2	0.2236	0.1162	1	1	0.741
134	1	33	2	2	0.2236	0.1162	1	1	0.738
134	1	34	1	1	0.2236	0.1162	0	1	0.679
134	1	35	2	2	0.2236	0.1162	0	1	0.667
134	1	36	1	1	0.2236	0.1162	0	1	0.593
134	1	37	2	2	0.2236	0.1162	0	1	0.795
134	1	38	1	2	0.2236	0.1162	0	1	0.629
134	1	39	2	3	0.2236	0.1162	1	1	0.725
134	1	40	2	1	0.2236	0.1162	0	1	0.496
134	1	41	2	3	0.2236	0.1162	0	1	1.165
134	1	42	1	1	0.2236	0.1162	0	1	0.823
134	1	43	1	3	0.2236	0.1162	0	1	0.705
134	1	44	1	1	0.2236	0.1162	1	1	0.838
134	1	45	2	2	0.2236	0.1162	1	1	0.758
134	1	46	2	3	0.2236	0.1162	1	1	0.626
134	1	47	1	3	0.2236	0.1162	1	1	0.612
134	1	48	1	1	0.2236	0.1162	0	1	0.604
134	1	49	1	1	0.2236	0.1162	0	1	0.510
134	1	50	2	2	0.2236	0.1162	0	1	0.962
134	1	51	2	2	0.2236	0.1162	1	1	0.719
134	1	52	1	1	0.2236	0.1162	1	1	0.665
134	1	53	2	2	0.2236	0.1162	1	1	0.599
134	1	54	1	1	0.2236	0.1162	1	1	0.640
134	1	55	1	2	0.2236	0.1162	1	1	0.522
134	1	56	2	1	0.2236	0.1162	1	1	0.629
134	1	57	1	1	0.2236	0.1162	0	1	0.733
134	1	58	2	2	0.2236	0.1162	0	1	0.609
134	1	59	1	1	0.2236	0.1162	1	1	0.547
134	1	60	1	1	0.2236	0.1162	1	1	0.615
134	1	61	2	2	0.2236	0.1162	0	1	0.670
134	1	62	1	2	0.2236	0.1162	1	1	0.484
134	1	63	1	3	0.2236	0.1162	1	1	0.820
134	1	64	1	1	0.2236	0.1162	1	1	0.531
134	1	65	1	1	0.2236	0.1162	1	1	0.517
134	1	66	2	1	0.2236	0.1162	1	1	0.655
134	1	67	2	2	0.2236	0.1162	0	1	0.783
134	1	68	2	1	0.2236	0.1162	1	1	0.563
134	1	69	1	3	0.2236	0.1162	0	1	0.870
134	1	70	2	2	0.2236	0.1162	1	1	0.620
134	1	71	1	1	0.2236	0.1162	1	1	0.831
134	1	72	1	1	0.2236	0.1162	0	1	0.640
134	1	73	1	3	0.2236	0.1162	1	1	0.511
134	1	74	2	3	0.2236	0.1162	0	1	0.779
134	1	75	1	2	0.2236	0.1162	1	1	0.509
134	1	76	2	2	0.2236	0.1162	0	1	0.585
134	1	77	1	3	0.2236	0.1162	1	1	0.564
134	1	78	1	1	0.2236	0.1162	0	1	0.590
134	1	79	1	1	0.2236	0.1162	0	1	0.614
134	1	80	2	2	0.2236	0.1162	0	1	0.686
134	1	81	2	3	0.2236	0.1162	1	1	0.709
134	1	82	2	3	0.2236	0.1162	1	1	0.516
134	1	83	1	1	0.2236	0.1162	1	1	0.745
134	1	84	2	2	0.2236	0.1162	0	1	0.533
134	1	85	2	2	0.2236	0.1162	1	1	0.435
134	1	86	2	2	0.2236	0.1162	1	1	0.445
134	1	87	2	2	0.2236	0.1162	1	1	0.411
134	1	88	2	2	0.2236	0.1162	1	1	0.461
134	1	89	2	2	0.2236	0.1162	1	1	0.445
134	1	90	2	3	0.2236	0.1162	0	1	0.619
134	1	91	1	1	0.2236	0.1162	0	0	0.788
134	1	92	2	2	0.2236	0.1162	1	1	0.511
134	1	93	2	3	0.2236	0.1162	1	1	0.498
134	1	94	2	3	0.2236	0.1162	0	1	0.493
134	1	95	1	1	0.2236	0.1162	1	1	0.636
134	1	96	1	3	0.2236	0.1162	0	1	0.555
134	1	97	2	2	0.2236	0.1162	0	1	0.581
134	1	98	1	1	0.2236	0.1162	0	1	0.574
134	1	99	1	2	0.2236	0.1162	0	1	0.514
134	1	100	1	1	0.2236	0.1162	0	1	0.470
134	1	101	2	2	0.2236	0.1162	1	1	0.607
134	1	102	1	3	0.2236	0.1162	0	1	0.519
134	1	103	1	3	0.2236	0.1162	1	1	0.451
134	1	104	1	1	0.2236	0.1162	1	0	0.425
134	1	105	2	2	0.2236	0.1162	0	1	0.513
134	1	106	2	1	0.2236	0.1162	0	1	0.661
134	1	107	2	3	0.2236	0.1162	0	1	0.709
134	1	108	1	3	0.2236	0.1162	0	1	0.722
134	1	109	2	1	0.2236	0.1162	0	1	0.453
134	1	110	1	2	0.2236	0.1162	0	1	0.558
134	1	111	1	1	0.2236	0.1162	0	1	0.415
134	1	112	2	3	0.2236	0.1162	1	1	0.593
