sub	sess	t	loc	cue	co1	co2	or	resp	rt
116	1	1	1	2	0.0500	0.0924	0	1	1.120
116	1	2	1	2	0.0500	0.0924	1	1	0.644
116	1	3	2	1	0.0500	0.0924	0	1	0.717
116	1	4	2	1	0.0500	0.0924	1	1	1.447
116	1	5	1	1	0.0500	0.0924	1	1	0.873
116	1	6	2	2	0.0500	0.0924	1	1	1.004
116	1	7	1	3	0.0500	0.0924	0	1	0.901
116	1	8	2	2	0.0500	0.0924	1	0	0.822
116	1	9	2	2	0.0500	0.0924	0	1	1.257
116	1	10	1	3	0.0500	0.0924	1	0	0.756
116	1	11	1	3	0.0500	0.0924	0	1	0.789
116	1	12	2	1	0.0500	0.0924	0	1	1.062
116	1	13	2	3	0.0500	0.0924	1	1	0.938
116	1	14	1	1	0.0500	0.0924	1	0	1.462
116	1	15	2	2	0.0500	0.0924	1	0	0.976
116	1	16	2	3	0.0500	0.0924	1	1	0.841
116	1	17	2	3	0.0500	0.0924	0	1	1.127
116	1	18	1	1	0.0500	0.0924	1	1	0.895
116	1	19	1	1	0.0500	0.0924	1	1	0.718
116	1	20	1	3	0.0500	0.0924	0	1	0.749
116	1	21	2	2	0.0500	0.0924	0	1	0.775
116	1	22	2	3	0.0500	0.0924	0	1	0.786
116	1	23	1	1	0.0500	0.0924	0	1	0.625
116	1	24	1	1	0.0500	0.0924	0	1	0.735
116	1	25	2	2	0.0500	0.0924	0	1	0.831
116	1	26	1	1	0.0500	0.0924	0	1	0.652
116	1	27	2	2	0.0500	0.0924	1	0	0.777
116	1	28	2	3	0.0500	0.0924	0	1	0.682
116	1	29	1	3	0.0500	0.0924	1	0	0.706
116	1	30	2	1	0.0500	0.0924	1	1	0.619
116	1	31	2	2	0.0500	0.0924	1	0	0.797
116	1	32	1	3	0.0500	0.0924	1	0	0.825
116	1	33	2	2	0.0500	0.0924	0	0	0.764
116	1	34	1	1	0.0500	0.0924	1	1	1.109
116	1	35	2	3	0.0500	0.0924	1	1	0.713
116	1	36	1	1	0.0500	0.0924	1	1	1.081
116	1	37	1	1	0.0500	0.0924	0	1	0.681
116	1	38	2	2	0.0500	0.0924	0	1	1.166
116	1	39	1	1	0.0500	0.0924	0	1	0.783
116	1	40	1	1	0.0500	0.0924	1	1	0.671
116	1	41	1	3	0.0500	0.0924	1	1	0.647
116	1	42	2	2	0.0500	0.0924	1	0	1.017
116	1	43	1	3	0.0500	0.0924	0	1	0.662
116	1	44	1	2	0.0500	0.0924	1	1	0.632
116	1	45	2	3	0.0500	0.0924	0	1	0.848
116	1	46	2	2	0.0500	0.0924	0	1	1.421
116	1	47	2	3	0.0500	0.0924	1	1	0.663
116	1	48	1	2	0.0500	0.0924	0	1	0.805
116	1	49	1	1	0.0500	0.0924	0	1	0.955
116	1	50	1	1	0.0500	0.0924	1	1	0.645
116	1	51	2	2	0.0500	0.0924	1	1	0.745
116	1	52	1	1	0.0500	0.0924	0	1	0.656
116	1	53	1	1	0.0500	0.0924	0	1	0.639
116	1	54	2	2	0.0500	0.0924	1	0	0.825
116	1	55	2	2	0.0500	0.0924	0	0	0.790
116	1	56	2	2	0.0500	0.0924	0	1	0.798
116	1	57	2	2	0.0500	0.0924	1	1	0.749
116	1	58	1	1	0.0500	0.0924	0	0	1.030
116	1	59	2	2	0.0500	0.0924	0	0	1.211
116	1	60	2	2	0.0500	0.0924	0	1	0.923
116	1	61	1	1	0.0500	0.0924	1	1	0.649
116	1	62	1	1	0.0500	0.0924	1	0	1.438
116	1	63	2	1	0.0500	0.0924	1	1	0.744
116	1	64	1	2	0.0500	0.0924	0	1	0.830
116	1	65	1	3	0.0500	0.0924	1	1	0.794
116	1	66	2	2	0.0500	0.0924	1	1	0.746
116	1	67	2	3	0.0500	0.0924	0	1	0.777
116	1	68	1	1	0.0500	0.0924	1	1	0.900
116	1	69	1	1	0.0500	0.0924	1	1	0.658
116	1	70	2	2	0.0500	0.0924	1	1	0.794
116	1	71	2	1	0.0500	0.0924	0	1	0.956
116	1	72	2	3	0.0500	0.0924	0	1	0.766
116	1	73	2	2	0.0500	0.0924	0	1	0.703
116	1	74	1	3	0.0500	0.0924	1	0	1.459
116	1	75	1	3	0.0500	0.0924	0	1	1.049
116	1	76	2	2	0.0500	0.0924	0	1	1.720
116	1	77	2	2	0.0500	0.0924	1	1	0.691
116	1	78	1	1	0.0500	0.0924	0	1	0.784
116	1	79	1	1	0.0500	0.0924	0	1	1.780
116	1	80	2	3	0.0500	0.0924	0	1	1.115
116	1	81	2	2	0.0500	0.0924	1	1	0.671
116	1	82	1	3	0.0500	0.0924	1	1	0.845
116	1	83	1	1	0.0500	0.0924	0	1	0.581
116	1	84	2	3	0.0500	0.0924	1	1	0.586
116	1	85	1	1	0.0500	0.0924	1	1	0.801
116	1	86	1	2	0.0500	0.0924	1	1	1.004
116	1	87	1	3	0.0500	0.0924	0	1	0.849
116	1	88	2	2	0.0500	0.0924	0	1	0.767
116	1	89	1	3	0.0500	0.0924	0	1	0.746
116	1	90	2	3	0.0500	0.0924	0	1	0.664
116	1	91	1	2	0.0500	0.0924	1	0	0.658
116	1	92	1	1	0.0500	0.0924	0	1	0.717
116	1	93	2	3	0.0500	0.0924	1	1	1.231
116	1	94	1	1	0.0500	0.0924	1	0	0.640
116	1	95	2	3	0.0500	0.0924	1	1	0.746
116	1	96	1	1	0.0500	0.0924	0	0	1.026
116	1	97	2	1	0.0500	0.0924	1	0	0.832
116	1	98	2	2	0.0500	0.0924	0	1	0.954
116	1	99	2	2	0.0500	0.0924	0	1	0.838
116	1	100	2	1	0.0500	0.0924	0	1	1.319
116	1	101	1	1	0.0500	0.0924	0	1	0.736
116	1	102	1	3	0.0500	0.0924	1	1	0.634
116	1	103	2	2	0.0500	0.0924	1	0	1.028
116	1	104	2	2	0.0500	0.0924	0	1	1.222
116	1	105	2	2	0.0500	0.0924	1	0	0.979
116	1	106	1	1	0.0500	0.0924	1	0	0.812
116	1	107	1	1	0.0500	0.0924	0	0	1.057
116	1	108	1	1	0.0500	0.0924	1	1	0.925
116	1	109	2	2	0.0500	0.0924	1	1	0.869
116	1	110	1	3	0.0500	0.0924	0	1	0.774
116	1	111	1	2	0.0500	0.0924	0	1	1.025
116	1	112	2	3	0.0500	0.0924	1	1	0.909
