sub	sess	t	rew	loc	cue	co1	co2	or	resp	rt	rew_tot	left_col	right_col
71	1	1	1	2	3	0.1384	0.0763	1	1	0.814	54	0	82
71	1	2	0	1	1	0.1384	0.0763	0	1	0.614	7	0	0
71	1	3	9	2	3	0.1384	0.0763	0	1	0.553	0	82	82
71	1	4	0	1	1	0.1384	0.0763	1	0	0.742	0	0	82
71	1	5	1	1	1	0.1384	0.0763	1	0	0.869	0	82	0
71	1	6	0	1	1	0.1384	0.0763	1	0	1.237	0	0	82
71	1	7	0	1	2	0.1384	0.0763	1	1	1.144	5	0	82
71	1	8	0	2	3	0.1384	0.0763	1	1	0.703	6	82	0
71	1	9	0	1	3	0.1384	0.0763	0	1	0.610	7	0	0
71	1	10	9	2	1	0.1384	0.0763	0	1	0.780	0	0	0
71	1	11	9	1	1	0.1384	0.0763	1	1	0.918	0	82	0
71	1	12	0	1	3	0.1384	0.0763	1	1	0.857	5	0	82
71	1	13	1	1	3	0.1384	0.0763	0	1	0.892	50	82	82
71	1	14	9	1	1	0.1384	0.0763	0	1	0.556	0	0	0
71	1	15	0	1	2	0.1384	0.0763	1	0	0.798	0	0	82
71	1	16	1	1	1	0.1384	0.0763	0	1	0.560	79	82	82
71	1	17	9	2	2	0.1384	0.0763	1	1	0.615	0	82	0
71	1	18	1	1	2	0.1384	0.0763	0	1	0.686	66	82	82
71	1	19	1	1	1	0.1384	0.0763	1	0	0.777	0	82	0
71	1	20	0	1	2	0.1384	0.0763	1	1	0.867	5	0	82
71	1	21	1	2	1	0.1384	0.0763	0	1	1.137	50	82	82
71	1	22	0	2	2	0.1384	0.0763	0	1	0.742	6	0	0
71	1	23	9	1	3	0.1384	0.0763	1	1	0.673	0	0	82
71	1	24	0	2	2	0.1384	0.0763	1	1	0.728	6	82	0
71	1	25	1	1	3	0.1384	0.0763	0	1	0.669	68	82	82
71	1	26	9	1	1	0.1384	0.0763	1	1	0.737	0	82	0
71	1	27	1	2	2	0.1384	0.0763	1	1	0.768	58	0	82
71	1	28	1	2	1	0.1384	0.0763	0	1	1.096	50	82	82
71	1	29	0	2	3	0.1384	0.0763	0	1	0.956	5	0	0
71	1	30	0	2	2	0.1384	0.0763	1	0	1.189	0	82	0
71	1	31	1	1	1	0.1384	0.0763	0	1	1.227	50	82	82
71	1	32	1	1	3	0.1384	0.0763	0	1	0.956	50	82	82
71	1	33	9	2	2	0.1384	0.0763	0	0	0.859	0	82	82
71	1	34	1	2	1	0.1384	0.0763	1	1	1.215	50	0	82
71	1	35	0	2	3	0.1384	0.0763	0	0	1.066	0	0	0
71	1	36	9	1	1	0.1384	0.0763	1	1	1.721	0	0	82
71	1	37	0	2	2	0.1384	0.0763	0	1	0.639	7	0	0
71	1	38	1	2	3	0.1384	0.0763	0	1	0.652	70	82	82
71	1	39	0	1	3	0.1384	0.0763	1	0	1.935	0	0	82
71	1	40	1	2	2	0.1384	0.0763	1	1	1.024	50	0	82
71	1	41	1	1	3	0.1384	0.0763	1	1	0.991	50	82	0
71	1	42	9	1	1	0.1384	0.0763	1	1	1.299	0	82	0
71	1	43	0	2	2	0.1384	0.0763	1	1	0.771	6	82	0
71	1	44	1	1	1	0.1384	0.0763	0	1	0.486	86	82	82
71	1	45	0	1	1	0.1384	0.0763	0	1	0.697	7	0	0
71	1	46	1	1	1	0.1384	0.0763	1	1	1.503	50	82	0
71	1	47	1	1	3	0.1384	0.0763	1	1	0.725	62	82	0
71	1	48	0	1	1	0.1384	0.0763	0	1	0.809	5	0	0
71	1	49	1	2	3	0.1384	0.0763	1	1	1.410	50	0	82
71	1	50	1	2	3	0.1384	0.0763	0	1	1.250	50	82	82
71	1	51	1	2	3	0.1384	0.0763	1	1	0.714	64	0	82
71	1	52	9	1	3	0.1384	0.0763	1	0	1.328	0	0	82
71	1	53	0	2	3	0.1384	0.0763	1	1	0.816	5	82	0
71	1	54	1	2	3	0.1384	0.0763	0	1	0.868	50	82	82
71	1	55	0	1	1	0.1384	0.0763	1	1	1.146	5	0	82
71	1	56	1	1	3	0.1384	0.0763	1	0	1.298	0	82	0
71	1	57	1	2	3	0.1384	0.0763	1	1	1.304	50	0	82
71	1	58	9	1	1	0.1384	0.0763	0	1	0.721	0	0	0
71	1	59	9	2	2	0.1384	0.0763	0	1	0.737	0	0	0
71	1	60	1	2	1	0.1384	0.0763	1	1	1.040	50	0	82
71	1	61	0	1	1	0.1384	0.0763	1	1	0.948	5	0	82
71	1	62	0	2	1	0.1384	0.0763	1	1	0.681	7	82	0
71	1	63	1	1	1	0.1384	0.0763	0	0	1.519	0	82	82
71	1	64	1	2	3	0.1384	0.0763	1	1	0.641	71	0	82
71	1	65	1	2	2	0.1384	0.0763	1	1	0.780	57	0	82
71	1	66	0	1	2	0.1384	0.0763	0	1	0.632	7	0	0
71	1	67	1	1	3	0.1384	0.0763	0	1	0.801	55	82	82
71	1	68	0	2	2	0.1384	0.0763	0	1	0.863	5	0	0
71	1	69	1	1	1	0.1384	0.0763	1	1	0.624	73	82	0
71	1	70	1	2	3	0.1384	0.0763	0	1	0.778	57	82	82
71	1	71	1	2	2	0.1384	0.0763	1	1	0.610	74	0	82
71	1	72	1	1	3	0.1384	0.0763	0	0	1.432	0	82	82
71	1	73	0	1	3	0.1384	0.0763	1	1	0.835	5	0	82
71	1	74	1	2	2	0.1384	0.0763	1	1	0.703	65	0	82
71	1	75	0	2	3	0.1384	0.0763	0	1	0.678	7	0	0
71	1	76	0	1	3	0.1384	0.0763	1	1	0.813	5	0	82
71	1	77	0	1	3	0.1384	0.0763	1	1	1.663	5	0	82
71	1	78	1	1	3	0.1384	0.0763	0	1	0.752	60	82	82
71	1	79	9	1	3	0.1384	0.0763	1	1	0.952	0	82	0
71	1	80	9	1	3	0.1384	0.0763	0	0	0.981	0	0	0
71	1	81	1	2	2	0.1384	0.0763	0	1	0.779	57	82	82
71	1	82	1	2	3	0.1384	0.0763	1	1	0.780	57	0	82
71	1	83	0	1	1	0.1384	0.0763	0	1	0.745	6	0	0
71	1	84	1	1	1	0.1384	0.0763	1	1	0.556	79	82	0
71	1	85	9	1	3	0.1384	0.0763	0	1	0.607	0	82	82
71	1	86	1	1	3	0.1384	0.0763	1	1	0.617	73	82	0
71	1	87	0	2	2	0.1384	0.0763	0	1	1.367	5	0	0
71	1	88	0	2	2	0.1384	0.0763	0	1	0.936	5	0	0
71	1	89	9	2	2	0.1384	0.0763	1	1	0.831	0	0	82
71	1	90	0	1	1	0.1384	0.0763	0	1	0.698	7	0	0
71	1	91	0	2	3	0.1384	0.0763	0	1	0.906	5	0	0
71	1	92	0	1	1	0.1384	0.0763	1	1	1.057	5	0	82
71	1	93	0	2	3	0.1384	0.0763	1	1	0.731	6	82	0
71	1	94	1	2	3	0.1384	0.0763	0	1	1.240	50	82	82
71	1	95	0	2	3	0.1384	0.0763	0	1	0.630	7	0	0
71	1	96	1	2	2	0.1384	0.0763	1	1	0.712	64	0	82
71	1	97	0	2	3	0.1384	0.0763	1	1	0.723	6	82	0
71	1	98	0	1	3	0.1384	0.0763	1	1	0.787	6	0	82
71	1	99	0	2	3	0.1384	0.0763	1	1	1.097	5	82	0
71	1	100	0	1	1	0.1384	0.0763	0	1	0.691	7	0	0
71	1	101	0	2	2	0.1384	0.0763	0	1	1.109	5	0	0
71	1	102	1	2	3	0.1384	0.0763	0	1	0.852	50	82	82
71	1	103	0	1	2	0.1384	0.0763	0	1	0.605	7	0	0
71	1	104	0	1	3	0.1384	0.0763	0	1	0.812	5	0	0
71	1	105	1	1	3	0.1384	0.0763	1	1	1.073	50	82	0
71	1	106	0	1	1	0.1384	0.0763	1	1	0.806	5	0	82
71	1	107	0	2	3	0.1384	0.0763	1	1	0.758	6	82	0
71	1	108	1	1	3	0.1384	0.0763	1	1	0.999	50	82	0
71	1	109	9	1	3	0.1384	0.0763	1	1	1.057	0	82	0
71	1	110	0	2	3	0.1384	0.0763	0	1	1.235	5	0	0
71	1	111	1	1	1	0.1384	0.0763	0	1	0.707	64	82	82
71	1	112	0	2	2	0.1384	0.0763	1	1	0.858	5	82	0
71	1	113	9	1	1	0.1384	0.0763	1	0	1.176	0	82	0
71	1	114	0	1	3	0.1384	0.0763	0	1	0.762	6	0	0
71	1	115	9	2	3	0.1384	0.0763	0	1	1.025	0	0	0
71	1	116	9	1	1	0.1384	0.0763	0	1	0.765	0	0	0
71	1	117	0	2	3	0.1384	0.0763	0	1	0.798	6	0	0
71	1	118	1	1	1	0.1384	0.0763	0	0	0.769	0	82	82
71	1	119	1	1	2	0.1384	0.0763	1	1	0.863	50	82	0
71	1	120	1	2	2	0.1384	0.0763	0	1	0.958	50	82	82
71	1	121	9	2	3	0.1384	0.0763	1	1	0.757	0	82	0
71	1	122	0	2	2	0.1384	0.0763	1	1	0.719	6	82	0
71	1	123	0	2	3	0.1384	0.0763	0	1	1.102	5	0	0
71	1	124	1	2	1	0.1384	0.0763	0	1	0.723	63	82	82
71	1	125	0	2	2	0.1384	0.0763	1	1	1.743	5	82	0
71	1	126	0	2	3	0.1384	0.0763	1	1	1.001	5	82	0
71	1	127	0	1	1	0.1384	0.0763	0	1	0.579	8	0	0
71	1	128	0	1	1	0.1384	0.0763	1	1	0.811	5	0	82
71	1	129	0	2	2	0.1384	0.0763	1	1	0.635	7	82	0
71	1	130	1	1	1	0.1384	0.0763	0	1	0.780	57	82	82
71	1	131	1	2	2	0.1384	0.0763	0	1	0.720	63	82	82
71	1	132	1	2	3	0.1384	0.0763	1	1	0.775	57	0	82
71	1	133	1	1	3	0.1384	0.0763	1	1	0.968	50	82	0
71	1	134	1	1	3	0.1384	0.0763	0	1	0.607	74	82	82
71	1	135	9	2	2	0.1384	0.0763	1	1	0.984	0	82	0
71	1	136	0	1	3	0.1384	0.0763	0	1	0.636	7	0	0
71	1	137	9	2	2	0.1384	0.0763	1	1	0.751	0	0	82
71	1	138	9	1	3	0.1384	0.0763	1	1	0.735	0	82	0
71	1	139	0	1	3	0.1384	0.0763	1	1	0.680	7	0	82
71	1	140	0	2	1	0.1384	0.0763	1	1	1.388	5	82	0
71	1	141	0	1	3	0.1384	0.0763	1	1	1.956	5	0	82
71	1	142	0	2	3	0.1384	0.0763	1	1	0.737	6	82	0
71	1	143	9	2	1	0.1384	0.0763	1	1	0.787	0	82	0
71	1	144	1	1	3	0.1384	0.0763	1	1	0.899	50	82	0
71	1	145	0	1	3	0.1384	0.0763	0	1	0.542	8	0	0
71	1	146	1	1	1	0.1384	0.0763	0	1	0.668	68	82	82
71	1	147	9	1	1	0.1384	0.0763	0	1	0.588	0	82	82
71	1	148	9	1	1	0.1384	0.0763	1	1	0.505	0	0	82
71	1	149	0	2	2	0.1384	0.0763	1	0	1.095	0	82	0
71	1	150	1	1	1	0.1384	0.0763	0	1	1.270	50	82	82
71	1	151	1	2	2	0.1384	0.0763	1	1	0.716	63	0	82
71	1	152	0	2	3	0.1384	0.0763	1	1	0.610	7	82	0
71	1	153	1	1	3	0.1384	0.0763	0	1	0.903	50	82	82
71	1	154	0	2	2	0.1384	0.0763	1	1	0.576	8	82	0
71	1	155	1	2	2	0.1384	0.0763	0	0	1.414	0	82	82
71	1	156	0	1	1	0.1384	0.0763	0	1	0.570	8	0	0
71	1	157	1	2	2	0.1384	0.0763	1	0	0.826	0	0	82
71	1	158	1	1	1	0.1384	0.0763	0	1	0.805	55	82	82
71	1	159	0	1	3	0.1384	0.0763	0	1	0.788	6	0	0
71	1	160	1	2	3	0.1384	0.0763	0	1	0.901	50	82	82
71	1	161	0	1	1	0.1384	0.0763	0	1	0.733	6	0	0
71	1	162	9	2	2	0.1384	0.0763	1	1	0.765	0	0	82
71	1	163	1	1	3	0.1384	0.0763	1	1	0.860	50	82	0
71	1	164	1	1	3	0.1384	0.0763	0	1	0.859	50	82	82
71	1	165	0	1	1	0.1384	0.0763	1	1	0.654	7	0	82
71	1	166	0	1	3	0.1384	0.0763	0	1	0.652	7	0	0
71	1	167	0	2	2	0.1384	0.0763	1	1	0.528	8	82	0
71	1	168	1	2	3	0.1384	0.0763	1	1	0.678	67	0	82
71	1	169	1	2	2	0.1384	0.0763	1	1	0.640	71	0	82
71	1	170	9	2	3	0.1384	0.0763	0	1	1.350	0	82	82
71	1	171	9	1	1	0.1384	0.0763	1	1	0.937	0	0	82
71	1	172	0	1	3	0.1384	0.0763	1	1	0.757	6	0	82
71	1	173	1	1	1	0.1384	0.0763	1	1	0.894	50	82	0
71	1	174	0	2	3	0.1384	0.0763	0	1	1.146	5	0	0
71	1	175	0	1	3	0.1384	0.0763	1	1	0.875	5	0	82
71	1	176	1	2	3	0.1384	0.0763	0	1	0.761	59	82	82
71	1	177	9	1	3	0.1384	0.0763	1	1	0.603	0	0	82
71	1	178	9	2	1	0.1384	0.0763	1	1	0.784	0	0	82
71	1	179	0	2	3	0.1384	0.0763	1	1	0.795	6	82	0
71	1	180	9	2	3	0.1384	0.0763	0	1	0.729	0	0	0
71	1	181	0	2	2	0.1384	0.0763	0	1	0.827	5	0	0
71	1	182	0	2	3	0.1384	0.0763	0	1	1.038	5	0	0
71	1	183	0	2	2	0.1384	0.0763	0	1	0.641	7	0	0
71	1	184	1	1	3	0.1384	0.0763	1	1	0.836	51	82	0
71	1	185	9	2	2	0.1384	0.0763	1	1	0.651	0	0	82
71	1	186	1	2	2	0.1384	0.0763	0	1	0.710	64	82	82
71	1	187	0	2	3	0.1384	0.0763	0	1	0.644	7	0	0
71	1	188	9	1	1	0.1384	0.0763	0	1	0.965	0	82	82
71	1	189	1	2	3	0.1384	0.0763	0	1	1.126	50	82	82
71	1	190	0	2	2	0.1384	0.0763	0	1	0.761	6	0	0
71	1	191	1	2	3	0.1384	0.0763	1	1	0.631	72	0	82
71	1	192	9	1	2	0.1384	0.0763	1	0	1.324	0	0	82
71	1	193	1	2	3	0.1384	0.0763	1	1	0.879	50	0	82
71	1	194	0	2	3	0.1384	0.0763	1	1	0.823	5	82	0
71	1	195	9	2	3	0.1384	0.0763	0	1	0.936	0	82	82
71	1	196	9	2	3	0.1384	0.0763	0	1	1.005	0	82	82
71	1	197	0	1	3	0.1384	0.0763	0	1	1.305	5	0	0
71	1	198	0	1	3	0.1384	0.0763	0	1	0.689	7	0	0
71	1	199	1	1	3	0.1384	0.0763	0	1	1.114	50	82	82
71	1	200	1	1	1	0.1384	0.0763	0	1	0.817	53	82	82
71	1	201	1	2	2	0.1384	0.0763	1	1	1.211	50	0	82
71	1	202	0	1	1	0.1384	0.0763	1	1	1.643	5	0	82
71	1	203	0	2	3	0.1384	0.0763	0	1	1.038	5	0	0
71	1	204	9	2	3	0.1384	0.0763	0	1	0.988	0	0	0
71	1	205	1	1	2	0.1384	0.0763	0	1	1.548	50	82	82
71	1	206	9	2	2	0.1384	0.0763	0	1	0.718	0	0	0
71	1	207	1	2	2	0.1384	0.0763	0	1	0.802	55	82	82
71	1	208	1	1	2	0.1384	0.0763	1	1	0.845	50	82	0
71	1	209	0	2	2	0.1384	0.0763	1	1	0.859	5	82	0
71	1	210	9	2	3	0.1384	0.0763	1	1	1.150	0	82	0
71	1	211	1	2	3	0.1384	0.0763	1	0	1.497	0	0	82
71	1	212	0	2	2	0.1384	0.0763	1	1	0.957	5	82	0
71	1	213	0	2	3	0.1384	0.0763	0	0	1.927	0	0	0
71	1	214	0	1	1	0.1384	0.0763	0	1	0.910	5	0	0
71	1	215	0	2	2	0.1384	0.0763	0	1	1.288	5	0	0
71	1	216	9	2	2	0.1384	0.0763	1	1	1.674	0	82	0
71	1	217	1	2	3	0.1384	0.0763	1	0	1.601	0	0	82
71	1	218	1	2	2	0.1384	0.0763	1	1	1.998	50	0	82
71	1	219	1	2	2	0.1384	0.0763	0	1	0.946	50	82	82
71	1	220	0	2	3	0.1384	0.0763	1	1	2.044	5	82	0
71	1	221	1	2	3	0.1384	0.0763	0	1	1.766	50	82	82
71	1	222	9	2	2	0.1384	0.0763	0	1	0.705	0	82	82
71	1	223	0	2	3	0.1384	0.0763	0	1	1.578	5	0	0
71	1	224	0	1	3	0.1384	0.0763	0	1	1.233	5	0	0
71	1	225	1	1	1	0.1384	0.0763	1	1	0.962	50	82	0
71	1	226	0	2	1	0.1384	0.0763	0	1	1.378	5	0	0
71	1	227	0	2	2	0.1384	0.0763	0	1	0.981	5	0	0
71	1	228	1	1	3	0.1384	0.0763	1	1	0.876	50	82	0
71	1	229	9	2	3	0.1384	0.0763	1	0	1.305	0	0	82
71	1	230	0	1	1	0.1384	0.0763	1	1	0.759	6	0	82
71	1	231	0	2	3	0.1384	0.0763	1	1	0.979	5	82	0
71	1	232	1	2	3	0.1384	0.0763	1	1	0.693	66	0	82
71	1	233	0	2	2	0.1384	0.0763	0	1	1.012	5	0	0
71	1	234	1	2	2	0.1384	0.0763	0	1	1.249	50	82	82
71	1	235	1	1	1	0.1384	0.0763	0	1	0.883	50	82	82
71	1	236	9	2	2	0.1384	0.0763	0	1	0.918	0	0	0
71	1	237	9	2	3	0.1384	0.0763	1	1	0.977	0	82	0
71	1	238	9	1	3	0.1384	0.0763	0	0	1.505	0	82	82
71	1	239	9	1	1	0.1384	0.0763	1	1	1.094	0	0	82
71	1	240	0	2	3	0.1384	0.0763	1	1	0.755	6	82	0
71	1	241	1	2	3	0.1384	0.0763	0	1	1.180	50	82	82
71	1	242	1	1	2	0.1384	0.0763	1	1	0.941	50	82	0
71	1	243	9	2	3	0.1384	0.0763	1	1	0.626	0	82	0
71	1	244	1	2	2	0.1384	0.0763	0	1	0.957	50	82	82
71	1	245	0	1	3	0.1384	0.0763	0	1	0.651	7	0	0
71	1	246	1	2	1	0.1384	0.0763	1	0	0.766	0	0	82
71	1	247	1	2	3	0.1384	0.0763	0	1	0.864	50	82	82
71	1	248	9	1	3	0.1384	0.0763	0	1	0.758	0	0	0
71	1	249	1	2	3	0.1384	0.0763	0	1	1.088	50	82	82
71	1	250	1	2	2	0.1384	0.0763	1	1	1.028	50	0	82
71	1	251	9	2	3	0.1384	0.0763	1	0	1.363	0	0	82
71	1	252	0	2	2	0.1384	0.0763	1	1	1.006	5	82	0
71	1	253	0	1	1	0.1384	0.0763	1	1	0.621	7	0	82
71	1	254	0	2	2	0.1384	0.0763	0	1	1.030	5	0	0
71	1	255	1	1	1	0.1384	0.0763	1	1	1.190	50	82	0
71	1	256	0	1	1	0.1384	0.0763	1	1	0.757	6	0	82
71	1	257	1	1	1	0.1384	0.0763	1	1	0.764	59	82	0
71	1	258	1	1	1	0.1384	0.0763	1	1	0.642	71	82	0
71	1	259	0	1	1	0.1384	0.0763	1	1	0.542	8	0	82
71	1	260	0	1	1	0.1384	0.0763	1	1	0.542	8	0	82
71	1	261	0	1	1	0.1384	0.0763	0	1	0.669	7	0	0
71	1	262	9	1	3	0.1384	0.0763	0	1	0.676	0	82	82
71	1	263	0	1	2	0.1384	0.0763	0	0	1.259	0	0	0
71	1	264	1	2	2	0.1384	0.0763	0	1	1.650	50	82	82
71	1	265	9	2	2	0.1384	0.0763	0	1	1.046	0	82	82
71	1	266	1	1	1	0.1384	0.0763	1	1	1.245	50	82	0
71	1	267	1	1	2	0.1384	0.0763	0	1	1.252	50	82	82
71	1	268	0	2	2	0.1384	0.0763	0	1	0.844	5	0	0
71	1	269	0	2	1	0.1384	0.0763	0	1	1.417	5	0	0
71	1	270	0	1	2	0.1384	0.0763	0	1	0.718	6	0	0
71	1	271	0	1	3	0.1384	0.0763	1	1	0.783	6	0	82
71	1	272	9	2	2	0.1384	0.0763	0	1	1.041	0	82	82
71	1	273	9	1	1	0.1384	0.0763	0	1	0.941	0	82	82
71	1	274	0	2	1	0.1384	0.0763	1	1	1.003	5	82	0
71	1	275	0	1	3	0.1384	0.0763	1	1	0.724	6	0	82
71	1	276	9	2	2	0.1384	0.0763	0	1	1.348	0	0	0
71	1	277	9	1	3	0.1384	0.0763	0	1	1.004	0	0	0
71	1	278	0	1	3	0.1384	0.0763	0	1	0.939	5	0	0
71	1	279	0	1	3	0.1384	0.0763	1	1	0.770	6	0	82
71	1	280	9	2	2	0.1384	0.0763	1	1	1.118	0	82	0
71	1	281	1	1	3	0.1384	0.0763	0	1	1.746	50	82	82
71	1	282	1	1	3	0.1384	0.0763	0	1	0.722	63	82	82
71	1	283	1	1	1	0.1384	0.0763	0	1	0.633	72	82	82
71	1	284	0	1	1	0.1384	0.0763	1	1	0.884	5	0	82
71	1	285	1	1	1	0.1384	0.0763	0	1	0.687	66	82	82
71	1	286	0	2	3	0.1384	0.0763	1	1	0.971	5	82	0
71	1	287	0	2	3	0.1384	0.0763	0	1	1.355	5	0	0
71	1	288	1	2	3	0.1384	0.0763	1	1	0.802	55	0	82
71	1	289	9	1	3	0.1384	0.0763	0	0	1.223	0	82	82
71	1	290	0	1	1	0.1384	0.0763	0	1	1.250	5	0	0
71	1	291	1	1	1	0.1384	0.0763	1	1	1.610	50	82	0
71	1	292	9	1	2	0.1384	0.0763	0	1	0.678	0	82	82
71	1	293	1	2	3	0.1384	0.0763	0	1	0.986	50	82	82
71	1	294	1	1	3	0.1384	0.0763	0	1	0.828	52	82	82
71	1	295	1	2	2	0.1384	0.0763	0	1	1.189	50	82	82
71	1	296	0	2	2	0.1384	0.0763	0	1	0.891	5	0	0
71	1	297	1	1	2	0.1384	0.0763	0	1	1.424	50	82	82
71	1	298	1	2	2	0.1384	0.0763	1	1	0.746	60	0	82
71	1	299	0	2	2	0.1384	0.0763	1	1	0.803	5	82	0
71	1	300	1	1	3	0.1384	0.0763	0	0	0.863	0	82	82
71	1	301	1	1	1	0.1384	0.0763	0	1	0.932	50	82	82
71	1	302	0	2	1	0.1384	0.0763	0	1	0.590	8	0	0
71	1	303	1	1	3	0.1384	0.0763	1	1	1.151	50	82	0
71	1	304	1	2	2	0.1384	0.0763	1	1	0.700	65	0	82
71	1	305	0	1	1	0.1384	0.0763	0	1	0.918	5	0	0
71	1	306	0	1	3	0.1384	0.0763	1	0	1.093	0	0	82
71	1	307	0	1	2	0.1384	0.0763	1	1	1.068	5	0	82
71	1	308	9	1	3	0.1384	0.0763	1	0	1.310	0	82	0
71	1	309	9	1	1	0.1384	0.0763	0	1	0.801	0	82	82
71	1	310	0	2	3	0.1384	0.0763	1	1	1.691	5	82	0
71	1	311	1	1	3	0.1384	0.0763	0	1	1.334	50	82	82
71	1	312	0	2	1	0.1384	0.0763	1	1	1.258	5	82	0
71	1	313	9	2	3	0.1384	0.0763	1	1	0.788	0	0	82
71	1	314	1	1	1	0.1384	0.0763	1	1	0.823	53	82	0
71	1	315	1	1	2	0.1384	0.0763	1	0	1.562	0	82	0
71	1	316	1	1	3	0.1384	0.0763	1	1	1.781	50	82	0
71	1	317	1	2	2	0.1384	0.0763	0	1	0.779	57	82	82
71	1	318	1	1	1	0.1384	0.0763	0	1	0.622	73	82	82
71	1	319	1	1	3	0.1384	0.0763	1	1	1.152	50	82	0
71	1	320	9	1	1	0.1384	0.0763	0	1	0.814	0	0	0
71	1	321	9	2	1	0.1384	0.0763	0	1	1.434	0	82	82
71	1	322	9	1	2	0.1384	0.0763	0	1	0.618	0	0	0
71	1	323	0	1	3	0.1384	0.0763	0	1	0.681	7	0	0
71	1	324	0	1	1	0.1384	0.0763	0	1	0.796	6	0	0
71	1	325	1	2	1	0.1384	0.0763	0	0	0.813	0	82	82
71	1	326	1	2	2	0.1384	0.0763	0	1	0.991	50	82	82
71	1	327	0	1	3	0.1384	0.0763	1	1	0.776	6	0	82
71	1	328	0	2	2	0.1384	0.0763	1	1	0.723	6	82	0
71	1	329	1	1	1	0.1384	0.0763	1	1	0.859	50	82	0
71	1	330	0	1	3	0.1384	0.0763	0	1	0.693	7	0	0
71	1	331	0	1	3	0.1384	0.0763	0	1	0.646	7	0	0
71	1	332	1	2	1	0.1384	0.0763	1	1	0.796	55	0	82
71	1	333	0	1	3	0.1384	0.0763	0	1	0.990	5	0	0
71	1	334	9	1	3	0.1384	0.0763	0	1	0.699	0	0	0
71	1	335	1	2	2	0.1384	0.0763	1	1	0.591	76	0	82
71	1	336	1	2	3	0.1384	0.0763	0	0	1.118	0	82	82
71	1	337	1	1	3	0.1384	0.0763	1	1	0.856	50	82	0
71	1	338	1	1	1	0.1384	0.0763	1	1	0.666	68	82	0
71	1	339	0	2	2	0.1384	0.0763	1	1	0.657	7	82	0
71	1	340	1	2	2	0.1384	0.0763	1	1	0.793	56	0	82
71	1	341	9	1	2	0.1384	0.0763	1	1	1.690	0	82	0
71	1	342	1	1	3	0.1384	0.0763	0	1	0.888	50	82	82
71	1	343	9	1	3	0.1384	0.0763	1	1	0.823	0	0	82
71	1	344	1	2	2	0.1384	0.0763	0	1	1.081	50	82	82
71	1	345	1	1	1	0.1384	0.0763	1	1	0.875	50	82	0
71	1	346	0	1	1	0.1384	0.0763	0	1	0.792	6	0	0
71	1	347	1	2	3	0.1384	0.0763	0	0	1.036	0	82	82
71	1	348	0	2	1	0.1384	0.0763	0	1	0.824	5	0	0
71	1	349	1	1	3	0.1384	0.0763	1	0	1.162	0	82	0
71	1	350	0	1	1	0.1384	0.0763	1	1	0.569	8	0	82
71	1	351	1	2	2	0.1384	0.0763	0	1	0.835	52	82	82
71	1	352	1	2	3	0.1384	0.0763	1	0	1.277	0	0	82
71	1	353	9	2	3	0.1384	0.0763	1	1	0.713	0	0	82
71	1	354	1	2	3	0.1384	0.0763	1	1	0.921	50	0	82
71	1	355	0	2	3	0.1384	0.0763	0	0	1.482	0	0	0
71	1	356	0	2	2	0.1384	0.0763	0	1	0.767	6	0	0
71	1	357	0	1	1	0.1384	0.0763	0	1	0.731	6	0	0
71	1	358	1	2	2	0.1384	0.0763	0	1	0.857	50	82	82
71	1	359	9	2	3	0.1384	0.0763	0	1	1.422	0	0	0
71	1	360	0	1	3	0.1384	0.0763	1	1	1.182	5	0	82
71	1	361	0	1	3	0.1384	0.0763	0	1	0.692	7	0	0
71	1	362	0	1	3	0.1384	0.0763	0	1	0.590	8	0	0
71	1	363	0	1	1	0.1384	0.0763	0	1	0.646	7	0	0
71	1	364	0	1	1	0.1384	0.0763	0	1	0.581	8	0	0
71	1	365	1	2	1	0.1384	0.0763	1	1	0.870	50	0	82
71	1	366	1	2	2	0.1384	0.0763	0	1	0.845	50	82	82
71	1	367	0	2	3	0.1384	0.0763	0	1	1.131	5	0	0
71	1	368	0	1	1	0.1384	0.0763	1	1	0.653	7	0	82
71	1	369	9	1	3	0.1384	0.0763	1	1	0.768	0	0	82
71	1	370	0	2	2	0.1384	0.0763	1	1	0.731	6	82	0
71	1	371	1	2	2	0.1384	0.0763	0	1	0.866	50	82	82
71	1	372	1	1	3	0.1384	0.0763	0	1	0.816	53	82	82
71	1	373	9	1	3	0.1384	0.0763	1	1	0.821	0	82	0
71	1	374	0	2	1	0.1384	0.0763	1	1	0.811	5	82	0
71	1	375	0	2	3	0.1384	0.0763	0	1	0.950	5	0	0
71	1	376	1	1	1	0.1384	0.0763	1	1	1.041	50	82	0
71	1	377	9	1	3	0.1384	0.0763	1	1	0.728	0	0	82
71	1	378	1	2	3	0.1384	0.0763	0	1	0.734	62	82	82
71	1	379	0	2	1	0.1384	0.0763	0	1	0.581	8	0	0
71	1	380	9	2	2	0.1384	0.0763	0	1	0.589	0	0	0
71	1	381	1	2	3	0.1384	0.0763	0	1	1.006	50	82	82
71	1	382	9	1	1	0.1384	0.0763	1	1	0.843	0	0	82
71	1	383	1	1	3	0.1384	0.0763	0	1	0.846	50	82	82
71	1	384	9	1	3	0.1384	0.0763	0	1	0.583	0	0	0
71	1	385	1	2	3	0.1384	0.0763	1	1	1.232	50	0	82
71	1	386	0	2	3	0.1384	0.0763	1	1	0.606	7	82	0
71	1	387	9	1	1	0.1384	0.0763	1	1	1.391	0	82	0
71	1	388	0	2	3	0.1384	0.0763	1	1	1.434	5	82	0
71	1	389	0	1	2	0.1384	0.0763	1	1	1.007	5	0	82
71	1	390	1	1	2	0.1384	0.0763	0	1	0.545	81	82	82
71	1	391	0	2	3	0.1384	0.0763	1	0	0.859	0	82	0
71	1	392	1	2	2	0.1384	0.0763	0	0	0.935	0	82	82
71	1	393	9	2	2	0.1384	0.0763	0	1	0.751	0	82	82
71	1	394	1	2	2	0.1384	0.0763	1	1	1.141	50	0	82
71	1	395	9	2	2	0.1384	0.0763	1	1	0.733	0	0	82
71	1	396	1	2	3	0.1384	0.0763	1	0	1.638	0	0	82
71	1	397	1	2	2	0.1384	0.0763	1	1	0.741	61	0	82
71	1	398	0	1	1	0.1384	0.0763	0	1	0.958	5	0	0
71	1	399	9	2	3	0.1384	0.0763	0	1	0.924	0	0	0
71	1	400	0	2	2	0.1384	0.0763	0	1	0.943	5	0	0
71	1	401	0	2	2	0.1384	0.0763	1	1	1.043	5	82	0
71	1	402	1	2	1	0.1384	0.0763	1	1	0.764	59	0	82
71	1	403	0	2	2	0.1384	0.0763	1	1	0.904	5	82	0
71	1	404	1	2	3	0.1384	0.0763	1	1	1.480	50	0	82
71	1	405	9	1	3	0.1384	0.0763	1	1	1.727	0	0	82
71	1	406	0	1	3	0.1384	0.0763	0	1	0.633	7	0	0
71	1	407	0	1	3	0.1384	0.0763	0	1	0.584	8	0	0
71	1	408	1	1	2	0.1384	0.0763	1	1	0.903	50	82	0
71	1	409	9	1	3	0.1384	0.0763	1	1	0.913	0	82	0
71	1	410	0	2	3	0.1384	0.0763	0	1	1.192	5	0	0
71	1	411	1	1	1	0.1384	0.0763	0	1	0.685	67	82	82
71	1	412	0	1	3	0.1384	0.0763	1	1	0.731	6	0	82
71	1	413	0	2	2	0.1384	0.0763	0	0	1.445	0	0	0
71	1	414	9	1	1	0.1384	0.0763	0	1	0.972	0	82	82
71	1	415	1	1	3	0.1384	0.0763	1	1	2.146	50	82	0
71	1	416	0	2	3	0.1384	0.0763	0	1	0.965	5	0	0
71	1	417	0	1	1	0.1384	0.0763	0	1	0.653	7	0	0
71	1	418	1	2	2	0.1384	0.0763	1	1	1.285	50	0	82
71	1	419	1	1	3	0.1384	0.0763	0	1	1.099	50	82	82
71	1	420	1	2	2	0.1384	0.0763	1	0	1.767	0	0	82
71	1	421	0	2	3	0.1384	0.0763	1	1	1.287	5	82	0
71	1	422	1	2	1	0.1384	0.0763	0	1	0.778	57	82	82
71	1	423	1	1	1	0.1384	0.0763	0	1	0.677	67	82	82
71	1	424	1	2	3	0.1384	0.0763	1	1	0.807	54	0	82
71	1	425	0	1	1	0.1384	0.0763	1	1	0.680	7	0	82
71	1	426	0	2	2	0.1384	0.0763	0	1	0.973	5	0	0
71	1	427	0	1	3	0.1384	0.0763	0	1	0.683	7	0	0
71	1	428	9	2	1	0.1384	0.0763	1	1	0.711	0	0	82
71	1	429	0	2	2	0.1384	0.0763	1	1	0.743	6	82	0
71	1	430	0	2	3	0.1384	0.0763	0	1	1.173	5	0	0
71	1	431	1	2	3	0.1384	0.0763	1	1	0.811	54	0	82
71	1	432	0	1	1	0.1384	0.0763	0	1	0.710	6	0	0
71	1	433	1	2	3	0.1384	0.0763	0	1	0.917	50	82	82
71	1	434	1	2	2	0.1384	0.0763	0	1	0.997	50	82	82
71	1	435	1	1	3	0.1384	0.0763	0	1	0.963	50	82	82
71	1	436	0	2	2	0.1384	0.0763	0	1	0.765	6	0	0
71	1	437	1	1	1	0.1384	0.0763	1	1	0.992	50	82	0
71	1	438	1	1	3	0.1384	0.0763	1	1	0.770	58	82	0
71	1	439	0	2	2	0.1384	0.0763	1	1	1.687	5	82	0
71	1	440	9	2	3	0.1384	0.0763	0	1	0.735	0	82	82
71	1	441	1	2	2	0.1384	0.0763	0	1	1.035	50	82	82
71	1	442	9	1	1	0.1384	0.0763	1	0	0.886	0	0	82
71	1	443	0	2	2	0.1384	0.0763	1	1	0.739	6	82	0
71	1	444	0	2	1	0.1384	0.0763	0	1	0.606	7	0	0
71	1	445	1	2	3	0.1384	0.0763	1	0	1.189	0	0	82
71	1	446	1	1	3	0.1384	0.0763	1	0	0.816	0	82	0
71	1	447	1	2	2	0.1384	0.0763	1	1	0.941	50	0	82
71	1	448	1	2	3	0.1384	0.0763	0	0	1.037	0	82	82
71	1	449	0	1	1	0.1384	0.0763	0	1	0.748	6	0	0
71	1	450	1	1	3	0.1384	0.0763	0	1	0.681	67	82	82
71	1	451	1	1	1	0.1384	0.0763	0	1	0.636	71	82	82
71	1	452	1	1	3	0.1384	0.0763	1	1	1.137	50	82	0
71	1	453	0	2	3	0.1384	0.0763	1	1	1.122	5	82	0
71	1	454	1	2	2	0.1384	0.0763	0	1	0.988	50	82	82
71	1	455	9	2	3	0.1384	0.0763	0	1	1.083	0	82	82
71	1	456	1	1	1	0.1384	0.0763	1	0	1.165	0	82	0
71	1	457	0	2	2	0.1384	0.0763	0	1	0.764	6	0	0
71	1	458	0	1	1	0.1384	0.0763	0	1	0.701	6	0	0
71	1	459	1	2	3	0.1384	0.0763	0	0	0.862	0	82	82
71	1	460	9	2	1	0.1384	0.0763	0	1	0.772	0	82	82
71	1	461	0	2	2	0.1384	0.0763	1	1	0.672	7	82	0
71	1	462	1	2	3	0.1384	0.0763	0	1	1.218	50	82	82
71	1	463	1	1	3	0.1384	0.0763	1	1	0.766	58	82	0
71	1	464	0	1	3	0.1384	0.0763	1	1	0.686	7	0	82
71	1	465	0	1	1	0.1384	0.0763	0	0	0.557	0	0	0
71	1	466	1	1	3	0.1384	0.0763	1	0	1.448	0	82	0
71	1	467	1	2	3	0.1384	0.0763	1	1	0.888	50	0	82
71	1	468	1	1	1	0.1384	0.0763	0	1	0.721	63	82	82
71	1	469	9	2	3	0.1384	0.0763	0	1	0.888	0	82	82
71	1	470	1	2	2	0.1384	0.0763	0	1	0.746	60	82	82
71	1	471	0	1	3	0.1384	0.0763	1	1	0.764	6	0	82
71	1	472	0	2	3	0.1384	0.0763	0	1	0.927	5	0	0
71	1	473	9	1	3	0.1384	0.0763	1	0	0.922	0	0	82
71	1	474	1	1	3	0.1384	0.0763	0	0	1.103	0	82	82
71	1	475	9	1	1	0.1384	0.0763	1	1	0.743	0	0	82
71	1	476	1	2	2	0.1384	0.0763	0	1	1.076	50	82	82
71	1	477	0	1	2	0.1384	0.0763	1	1	0.903	5	0	82
71	1	478	0	2	2	0.1384	0.0763	1	1	0.846	5	82	0
71	1	479	1	2	3	0.1384	0.0763	1	1	1.288	50	0	82
71	1	480	9	1	1	0.1384	0.0763	1	1	0.778	0	82	0
71	1	481	0	1	3	0.1384	0.0763	1	1	0.640	7	0	82
71	1	482	0	2	2	0.1384	0.0763	0	1	0.845	5	0	0
71	1	483	1	1	3	0.1384	0.0763	1	1	0.624	73	82	0
71	1	484	1	1	3	0.1384	0.0763	0	1	0.700	65	82	82
71	1	485	9	2	1	0.1384	0.0763	0	1	0.630	0	0	0
71	1	486	9	1	3	0.1384	0.0763	0	1	1.185	0	82	82
71	1	487	0	1	3	0.1384	0.0763	1	1	0.661	7	0	82
71	1	488	0	2	2	0.1384	0.0763	0	0	1.055	0	0	0
71	1	489	0	2	2	0.1384	0.0763	1	1	0.947	5	82	0
71	1	490	0	1	2	0.1384	0.0763	1	1	0.711	6	0	82
71	1	491	0	2	3	0.1384	0.0763	1	1	0.786	6	82	0
71	1	492	0	2	1	0.1384	0.0763	0	1	1.178	5	0	0
71	1	493	1	2	2	0.1384	0.0763	0	0	1.385	0	82	82
71	1	494	0	2	3	0.1384	0.0763	0	1	0.883	5	0	0
71	1	495	0	1	1	0.1384	0.0763	1	1	0.903	5	0	82
71	1	496	9	1	3	0.1384	0.0763	1	1	0.910	0	82	0
71	1	497	9	2	1	0.1384	0.0763	1	0	0.967	0	82	0
71	1	498	9	2	3	0.1384	0.0763	1	1	0.572	0	82	0
71	1	499	1	2	3	0.1384	0.0763	1	0	1.141	0	0	82
71	1	500	0	2	3	0.1384	0.0763	0	0	1.418	0	0	0
71	1	501	1	1	1	0.1384	0.0763	0	0	1.881	0	82	82
71	1	502	0	1	1	0.1384	0.0763	0	1	1.625	5	0	0
71	1	503	0	2	3	0.1384	0.0763	1	1	0.734	6	82	0
71	1	504	0	1	1	0.1384	0.0763	0	1	0.703	6	0	0
71	1	505	1	1	2	0.1384	0.0763	0	1	0.560	79	82	82
71	1	506	1	2	1	0.1384	0.0763	1	1	1.202	50	0	82
71	1	507	1	1	1	0.1384	0.0763	1	1	0.803	55	82	0
71	1	508	1	2	3	0.1384	0.0763	1	1	0.857	50	0	82
71	1	509	0	1	3	0.1384	0.0763	1	1	0.604	7	0	82
71	1	510	1	1	1	0.1384	0.0763	1	1	0.688	66	82	0
71	1	511	0	1	3	0.1384	0.0763	0	1	0.524	8	0	0
71	1	512	1	1	3	0.1384	0.0763	1	1	0.623	73	82	0
71	1	513	9	2	3	0.1384	0.0763	0	1	1.129	0	82	82
71	1	514	0	1	1	0.1384	0.0763	1	1	0.855	5	0	82
71	1	515	1	1	3	0.1384	0.0763	1	1	0.829	52	82	0
71	1	516	9	2	3	0.1384	0.0763	1	1	1.502	0	82	0
71	1	517	9	2	2	0.1384	0.0763	1	1	1.004	0	82	0
71	1	518	0	2	3	0.1384	0.0763	1	1	1.114	5	82	0
71	1	519	0	1	3	0.1384	0.0763	1	1	0.884	5	0	82
71	1	520	9	1	3	0.1384	0.0763	0	1	0.687	0	0	0
71	1	521	9	2	2	0.1384	0.0763	1	0	1.590	0	0	82
71	1	522	9	2	2	0.1384	0.0763	0	1	1.573	0	82	82
71	1	523	1	2	3	0.1384	0.0763	1	0	0.922	0	0	82
71	1	524	0	2	2	0.1384	0.0763	0	1	0.848	5	0	0
71	1	525	9	2	2	0.1384	0.0763	1	1	0.559	0	82	0
71	1	526	1	1	3	0.1384	0.0763	0	1	0.754	60	82	82
71	1	527	9	1	2	0.1384	0.0763	1	1	1.058	0	0	82
71	1	528	0	2	3	0.1384	0.0763	1	0	1.885	0	82	0
71	1	529	1	1	3	0.1384	0.0763	0	1	0.883	50	82	82
71	1	530	0	2	1	0.1384	0.0763	0	1	1.154	5	0	0
71	1	531	0	1	3	0.1384	0.0763	0	1	1.048	5	0	0
71	1	532	1	2	3	0.1384	0.0763	0	1	0.959	50	82	82
71	1	533	1	1	3	0.1384	0.0763	1	1	0.678	67	82	0
71	1	534	0	1	3	0.1384	0.0763	1	1	0.690	7	0	82
71	1	535	9	1	1	0.1384	0.0763	1	1	0.623	0	82	0
71	1	536	1	2	3	0.1384	0.0763	0	1	1.338	50	82	82
71	1	537	9	1	1	0.1384	0.0763	0	1	0.653	0	0	0
71	1	538	1	2	2	0.1384	0.0763	0	1	0.912	50	82	82
71	1	539	1	1	3	0.1384	0.0763	1	1	0.684	67	82	0
71	1	540	0	2	2	0.1384	0.0763	0	1	1.200	5	0	0
71	1	541	0	1	1	0.1384	0.0763	0	1	0.936	5	0	0
71	1	542	0	2	3	0.1384	0.0763	0	1	1.354	5	0	0
71	1	543	1	2	2	0.1384	0.0763	1	1	0.670	68	0	82
71	1	544	0	1	2	0.1384	0.0763	0	1	0.812	5	0	0
71	1	545	9	1	1	0.1384	0.0763	0	1	0.940	0	82	82
71	1	546	1	2	2	0.1384	0.0763	1	1	0.656	69	0	82
71	1	547	9	2	3	0.1384	0.0763	1	1	0.894	0	0	82
71	1	548	1	1	1	0.1384	0.0763	1	1	1.081	50	82	0
71	1	549	0	1	3	0.1384	0.0763	0	1	1.177	5	0	0
71	1	550	0	2	1	0.1384	0.0763	1	1	1.333	5	82	0
71	1	551	0	1	3	0.1384	0.0763	1	1	0.950	5	0	82
71	1	552	0	2	2	0.1384	0.0763	0	1	0.733	6	0	0
71	1	553	0	2	3	0.1384	0.0763	1	1	1.303	5	82	0
71	1	554	0	1	1	0.1384	0.0763	1	1	0.731	6	0	82
71	1	555	1	2	1	0.1384	0.0763	0	0	1.034	0	82	82
71	1	556	1	1	2	0.1384	0.0763	0	1	0.688	66	82	82
71	1	557	0	2	3	0.1384	0.0763	1	1	0.951	5	82	0
71	1	558	0	1	3	0.1384	0.0763	1	1	0.677	7	0	82
71	1	559	1	1	3	0.1384	0.0763	0	1	0.943	50	82	82
71	1	560	9	1	1	0.1384	0.0763	0	1	0.678	0	82	82
71	1	561	1	1	3	0.1384	0.0763	1	1	1.180	50	82	0
71	1	562	9	2	2	0.1384	0.0763	1	1	0.904	0	82	0
71	1	563	0	1	3	0.1384	0.0763	1	0	1.324	0	0	82
71	1	564	9	1	1	0.1384	0.0763	0	1	0.758	0	0	0
71	1	565	0	2	3	0.1384	0.0763	0	1	1.355	5	0	0
71	1	566	9	2	2	0.1384	0.0763	0	1	1.149	0	82	82
71	1	567	0	1	1	0.1384	0.0763	1	1	1.317	5	0	82
71	1	568	0	2	3	0.1384	0.0763	1	1	1.186	5	82	0
71	1	569	1	1	1	0.1384	0.0763	0	1	0.995	50	82	82
71	1	570	9	1	3	0.1384	0.0763	0	1	0.596	0	0	0
71	1	571	1	1	2	0.1384	0.0763	1	0	1.449	0	82	0
71	1	572	1	1	3	0.1384	0.0763	1	1	0.978	50	82	0
71	1	573	1	1	1	0.1384	0.0763	1	0	1.193	0	82	0
71	1	574	9	2	2	0.1384	0.0763	1	0	1.297	0	82	0
71	1	575	1	1	3	0.1384	0.0763	1	0	1.590	0	82	0
71	1	576	0	2	1	0.1384	0.0763	1	1	0.927	5	82	0
71	1	577	0	2	3	0.1384	0.0763	1	1	1.150	5	82	0
71	1	578	1	2	3	0.1384	0.0763	0	1	0.849	50	82	82
71	1	579	0	2	3	0.1384	0.0763	0	1	0.692	7	0	0
71	1	580	1	1	1	0.1384	0.0763	0	1	1.458	50	82	82
71	1	581	9	2	2	0.1384	0.0763	1	0	1.381	0	0	82
71	1	582	0	2	1	0.1384	0.0763	1	1	0.949	5	82	0
71	1	583	0	1	1	0.1384	0.0763	0	1	0.693	7	0	0
71	1	584	0	1	3	0.1384	0.0763	1	1	1.085	5	0	82
71	1	585	9	2	3	0.1384	0.0763	1	1	0.897	0	0	82
71	1	586	9	1	1	0.1384	0.0763	0	1	0.774	0	82	82
71	1	587	1	1	1	0.1384	0.0763	0	1	1.320	50	82	82
71	1	588	9	2	2	0.1384	0.0763	0	1	0.870	0	0	0
71	1	589	9	2	3	0.1384	0.0763	1	0	1.191	0	82	0
71	1	590	0	1	3	0.1384	0.0763	1	0	0.979	0	0	82
71	1	591	0	2	3	0.1384	0.0763	0	1	1.025	5	0	0
71	1	592	1	1	2	0.1384	0.0763	0	1	0.999	50	82	82
71	1	593	1	2	2	0.1384	0.0763	1	1	0.845	51	0	82
71	1	594	0	1	1	0.1384	0.0763	1	1	0.870	5	0	82
71	1	595	1	1	1	0.1384	0.0763	1	1	0.811	54	82	0
71	1	596	9	2	3	0.1384	0.0763	1	1	0.832	0	82	0
71	1	597	1	2	1	0.1384	0.0763	1	1	1.016	50	0	82
71	1	598	9	2	3	0.1384	0.0763	0	0	1.536	0	0	0
71	1	599	1	2	2	0.1384	0.0763	1	0	1.267	0	0	82
71	1	600	0	1	1	0.1384	0.0763	1	0	1.212	0	0	82
71	1	601	0	1	1	0.1384	0.0763	1	1	0.927	5	0	82
71	1	602	0	2	2	0.1384	0.0763	0	1	1.680	5	0	0
71	1	603	1	1	3	0.1384	0.0763	0	1	0.665	68	82	82
71	1	604	1	1	1	0.1384	0.0763	1	1	0.793	56	82	0
71	1	605	1	2	3	0.1384	0.0763	0	1	1.699	50	82	82
71	1	606	1	1	2	0.1384	0.0763	1	0	1.637	0	82	0
71	1	607	1	1	1	0.1384	0.0763	1	1	0.740	61	82	0
71	1	608	0	2	3	0.1384	0.0763	1	1	1.911	5	82	0
71	1	609	1	1	1	0.1384	0.0763	1	0	0.806	0	82	0
71	1	610	0	1	1	0.1384	0.0763	1	1	0.914	5	0	82
71	1	611	0	1	3	0.1384	0.0763	0	1	0.684	7	0	0
71	1	612	9	1	3	0.1384	0.0763	0	1	0.587	0	0	0
71	1	613	1	2	3	0.1384	0.0763	0	1	0.942	50	82	82
71	1	614	9	1	3	0.1384	0.0763	0	1	1.254	0	82	82
71	1	615	9	2	2	0.1384	0.0763	0	1	0.823	0	0	0
71	1	616	1	1	3	0.1384	0.0763	0	1	0.812	54	82	82
71	1	617	0	2	3	0.1384	0.0763	0	1	0.841	5	0	0
71	1	618	0	2	2	0.1384	0.0763	0	1	0.745	6	0	0
71	1	619	0	1	1	0.1384	0.0763	1	1	0.990	5	0	82
71	1	620	0	1	3	0.1384	0.0763	0	1	0.711	6	0	0
71	1	621	1	2	3	0.1384	0.0763	1	1	0.828	52	0	82
71	1	622	9	1	3	0.1384	0.0763	1	1	0.627	0	82	0
71	1	623	1	2	2	0.1384	0.0763	0	1	0.961	50	82	82
71	1	624	0	1	1	0.1384	0.0763	0	1	0.815	5	0	0
71	1	625	0	2	2	0.1384	0.0763	0	1	0.890	5	0	0
71	1	626	9	1	1	0.1384	0.0763	0	1	0.588	0	0	0
71	1	627	9	1	2	0.1384	0.0763	0	1	1.053	0	82	82
71	1	628	1	1	3	0.1384	0.0763	0	1	1.131	50	82	82
71	1	629	0	1	2	0.1384	0.0763	0	1	0.767	6	0	0
71	1	630	0	2	2	0.1384	0.0763	1	0	1.125	0	82	0
71	1	631	1	1	1	0.1384	0.0763	0	0	1.897	0	82	82
71	1	632	1	2	2	0.1384	0.0763	1	1	1.991	50	0	82
71	1	633	0	2	2	0.1384	0.0763	1	1	1.093	5	82	0
71	1	634	1	1	1	0.1384	0.0763	0	1	0.794	56	82	82
71	1	635	1	1	1	0.1384	0.0763	0	1	0.815	53	82	82
71	1	636	1	2	3	0.1384	0.0763	0	1	1.173	50	82	82
71	1	637	1	2	2	0.1384	0.0763	1	1	1.202	50	0	82
71	1	638	1	1	1	0.1384	0.0763	1	1	1.050	50	82	0
71	1	639	0	1	1	0.1384	0.0763	1	1	0.628	7	0	82
71	1	640	1	2	3	0.1384	0.0763	1	1	1.385	50	0	82
71	1	641	1	2	2	0.1384	0.0763	0	1	0.878	50	82	82
71	1	642	1	1	1	0.1384	0.0763	1	0	1.335	0	82	0
71	1	643	1	2	3	0.1384	0.0763	0	1	0.923	50	82	82
71	1	644	1	2	2	0.1384	0.0763	0	1	1.186	50	82	82
71	1	645	0	2	2	0.1384	0.0763	1	1	0.973	5	82	0
71	1	646	0	1	3	0.1384	0.0763	0	1	0.686	7	0	0
71	1	647	0	1	1	0.1384	0.0763	1	0	0.961	0	0	82
71	1	648	1	1	3	0.1384	0.0763	0	1	1.039	50	82	82
71	1	649	0	2	2	0.1384	0.0763	0	1	1.083	5	0	0
71	1	650	9	1	1	0.1384	0.0763	1	1	0.591	0	0	82
71	1	651	0	2	3	0.1384	0.0763	1	1	0.823	5	82	0
71	1	652	9	1	1	0.1384	0.0763	1	1	0.994	0	82	0
71	1	653	9	2	3	0.1384	0.0763	0	0	1.102	0	0	0
71	1	654	1	2	2	0.1384	0.0763	1	0	1.429	0	0	82
71	1	655	0	2	2	0.1384	0.0763	1	1	1.419	5	82	0
71	1	656	1	2	3	0.1384	0.0763	1	1	0.744	61	0	82
71	1	657	0	1	1	0.1384	0.0763	1	1	0.828	5	0	82
71	1	658	0	2	2	0.1384	0.0763	1	1	1.059	5	82	0
71	1	659	0	2	3	0.1384	0.0763	0	1	0.914	5	0	0
71	1	660	1	1	1	0.1384	0.0763	0	1	0.744	61	82	82
71	1	661	1	2	2	0.1384	0.0763	0	1	0.833	52	82	82
71	1	662	0	1	3	0.1384	0.0763	1	1	0.685	7	0	82
71	1	663	0	2	3	0.1384	0.0763	1	0	1.197	0	82	0
71	1	664	9	2	3	0.1384	0.0763	0	1	1.388	0	0	0
71	1	665	1	1	1	0.1384	0.0763	1	1	1.330	50	82	0
71	1	666	0	1	3	0.1384	0.0763	1	1	1.614	5	0	82
71	1	667	1	2	1	0.1384	0.0763	0	1	1.409	50	82	82
71	1	668	0	2	2	0.1384	0.0763	1	1	0.862	5	82	0
71	1	669	1	1	1	0.1384	0.0763	1	1	0.794	56	82	0
71	1	670	0	1	3	0.1384	0.0763	0	1	0.728	6	0	0
71	1	671	1	2	2	0.1384	0.0763	1	1	0.647	70	0	82
71	1	672	1	1	1	0.1384	0.0763	0	1	0.670	68	82	82
71	1	673	1	1	3	0.1384	0.0763	0	1	0.704	65	82	82
71	1	674	1	2	2	0.1384	0.0763	0	1	1.017	50	82	82
71	1	675	1	1	1	0.1384	0.0763	0	1	0.712	64	82	82
71	1	676	1	2	3	0.1384	0.0763	0	1	0.760	59	82	82
71	1	677	0	1	1	0.1384	0.0763	0	1	0.616	7	0	0
71	1	678	0	2	3	0.1384	0.0763	0	1	0.875	5	0	0
71	1	679	9	2	2	0.1384	0.0763	1	1	0.801	0	0	82
71	1	680	0	1	1	0.1384	0.0763	0	1	0.726	6	0	0
71	1	681	1	2	3	0.1384	0.0763	1	1	0.875	50	0	82
71	1	682	1	2	2	0.1384	0.0763	1	1	0.627	72	0	82
71	1	683	9	1	2	0.1384	0.0763	1	0	0.784	0	82	0
71	1	684	1	1	2	0.1384	0.0763	1	1	0.654	70	82	0
71	1	685	1	1	1	0.1384	0.0763	0	1	0.597	75	82	82
71	1	686	9	1	1	0.1384	0.0763	0	1	0.593	0	0	0
71	1	687	1	1	1	0.1384	0.0763	0	1	0.648	70	82	82
71	1	688	0	1	1	0.1384	0.0763	1	1	1.255	5	0	82
71	1	689	1	2	3	0.1384	0.0763	1	1	0.811	54	0	82
71	1	690	0	2	3	0.1384	0.0763	0	0	1.166	0	0	0
71	1	691	9	1	3	0.1384	0.0763	0	1	0.743	0	82	82
71	1	692	1	1	3	0.1384	0.0763	0	1	0.808	54	82	82
71	1	693	0	1	3	0.1384	0.0763	0	1	0.693	7	0	0
71	1	694	0	1	2	0.1384	0.0763	0	1	0.538	8	0	0
71	1	695	0	1	3	0.1384	0.0763	0	1	0.490	9	0	0
71	1	696	1	2	2	0.1384	0.0763	1	0	1.357	0	0	82
71	1	697	1	1	3	0.1384	0.0763	1	1	0.775	57	82	0
71	1	698	0	1	2	0.1384	0.0763	1	1	1.887	5	0	82
71	1	699	9	2	2	0.1384	0.0763	0	1	1.146	0	0	0
71	1	700	0	1	3	0.1384	0.0763	0	1	0.651	7	0	0
71	1	701	0	2	2	0.1384	0.0763	0	1	1.004	5	0	0
71	1	702	9	1	3	0.1384	0.0763	0	1	0.681	0	82	82
71	1	703	0	1	2	0.1384	0.0763	0	1	0.607	7	0	0
71	1	704	9	1	2	0.1384	0.0763	0	1	0.554	0	0	0
71	1	705	0	1	1	0.1384	0.0763	0	1	0.779	6	0	0
71	1	706	0	2	2	0.1384	0.0763	1	1	0.663	7	82	0
71	1	707	1	1	1	0.1384	0.0763	1	1	0.780	57	82	0
71	1	708	0	1	3	0.1384	0.0763	0	1	0.840	5	0	0
71	1	709	1	2	3	0.1384	0.0763	0	1	0.995	50	82	82
71	1	710	0	2	2	0.1384	0.0763	0	1	0.650	7	0	0
71	1	711	0	1	1	0.1384	0.0763	1	1	0.597	8	0	82
71	1	712	1	2	1	0.1384	0.0763	0	1	0.925	50	82	82
71	1	713	1	1	3	0.1384	0.0763	1	1	0.920	50	82	0
71	1	714	1	2	3	0.1384	0.0763	0	1	1.022	50	82	82
71	1	715	1	2	2	0.1384	0.0763	0	1	0.800	55	82	82
71	1	716	9	2	2	0.1384	0.0763	0	1	0.703	0	82	82
71	1	717	0	1	3	0.1384	0.0763	1	1	0.569	8	0	82
71	1	718	9	2	3	0.1384	0.0763	1	1	1.022	0	0	82
71	1	719	9	2	3	0.1384	0.0763	1	1	1.045	0	0	82
71	1	720	1	2	2	0.1384	0.0763	1	1	0.951	50	0	82
