sub	sess	t	rew	loc	cue	co1	co2	or	resp	rt	rew_tot	left_col	right_col
29	1	1	0	2	3	0.2188	0.2119	1	0	0.735	0	82	0
29	1	2	0	2	2	0.2188	0.2119	0	0	2.515	0	0	0
29	1	3	0	2	2	0.2188	0.2119	0	1	1.335	5	0	0
29	1	4	1	2	3	0.2188	0.2119	1	1	2.084	50	0	82
29	1	5	0	1	1	0.2188	0.2119	1	0	0.827	0	0	82
29	1	6	0	2	1	0.2188	0.2119	0	1	2.146	5	0	0
29	1	7	0	1	3	0.2188	0.2119	1	1	1.863	5	0	82
29	1	8	0	1	3	0.2188	0.2119	0	1	2.021	5	0	0
29	1	9	0	1	3	0.2188	0.2119	0	0	0.759	0	0	0
29	1	10	0	1	1	0.2188	0.2119	1	1	2.308	5	0	82
29	1	11	9	1	1	0.2188	0.2119	0	1	1.736	0	82	82
29	1	12	9	1	2	0.2188	0.2119	1	1	0.997	0	0	82
29	1	13	1	1	3	0.2188	0.2119	1	1	0.774	58	82	0
29	1	14	0	2	2	0.2188	0.2119	1	0	1.385	0	82	0
29	1	15	1	1	3	0.2188	0.2119	0	1	1.228	50	82	82
29	1	16	1	2	3	0.2188	0.2119	0	1	2.941	50	82	82
29	1	17	0	1	1	0.2188	0.2119	1	1	0.878	5	0	82
29	1	18	0	1	3	0.2188	0.2119	0	1	2.686	5	0	0
29	1	19	9	1	3	0.2188	0.2119	1	1	1.634	0	0	82
29	1	20	0	1	2	0.2188	0.2119	1	1	0.987	5	0	82
29	1	21	1	1	1	0.2188	0.2119	1	0	4.020	0	82	0
29	1	22	1	1	1	0.2188	0.2119	1	1	0.774	58	82	0
29	1	23	0	2	2	0.2188	0.2119	0	1	1.791	5	0	0
29	1	24	9	1	3	0.2188	0.2119	0	0	1.808	0	82	82
29	1	25	9	2	2	0.2188	0.2119	1	1	1.609	0	82	0
29	1	26	1	2	3	0.2188	0.2119	1	0	1.515	0	0	82
29	1	27	9	1	1	0.2188	0.2119	0	1	1.176	0	82	82
29	1	28	0	1	2	0.2188	0.2119	0	1	2.674	5	0	0
29	1	29	9	1	1	0.2188	0.2119	0	1	1.673	0	0	0
29	1	30	0	1	3	0.2188	0.2119	1	1	1.167	5	0	82
29	1	31	1	1	3	0.2188	0.2119	1	1	1.743	50	82	0
29	1	32	1	2	2	0.2188	0.2119	1	1	1.209	50	0	82
29	1	33	0	2	3	0.2188	0.2119	1	1	1.994	5	82	0
29	1	34	0	1	1	0.2188	0.2119	0	1	0.812	5	0	0
29	1	35	0	1	1	0.2188	0.2119	1	0	0.903	0	0	82
29	1	36	1	2	3	0.2188	0.2119	1	1	1.910	50	0	82
29	1	37	0	1	2	0.2188	0.2119	1	0	0.868	0	0	82
29	1	38	1	2	2	0.2188	0.2119	1	1	1.461	50	0	82
29	1	39	0	1	3	0.2188	0.2119	0	1	3.171	5	0	0
29	1	40	9	2	2	0.2188	0.2119	1	1	0.668	0	0	82
29	1	41	9	1	1	0.2188	0.2119	0	1	1.164	0	0	0
29	1	42	9	1	1	0.2188	0.2119	1	1	0.638	0	82	0
29	1	43	1	1	3	0.2188	0.2119	0	1	1.015	50	82	82
29	1	44	9	2	3	0.2188	0.2119	1	1	1.885	0	0	82
29	1	45	0	2	3	0.2188	0.2119	0	1	1.349	5	0	0
29	1	46	1	1	2	0.2188	0.2119	1	1	1.376	50	82	0
29	1	47	0	2	3	0.2188	0.2119	0	1	1.683	5	0	0
29	1	48	0	2	2	0.2188	0.2119	0	1	1.554	5	0	0
29	1	49	1	2	3	0.2188	0.2119	0	1	2.669	50	82	82
29	1	50	1	2	3	0.2188	0.2119	0	1	2.179	50	82	82
29	1	51	9	2	2	0.2188	0.2119	1	1	0.574	0	82	0
29	1	52	0	2	3	0.2188	0.2119	1	1	1.074	5	82	0
29	1	53	0	2	2	0.2188	0.2119	1	1	1.338	5	82	0
29	1	54	0	1	3	0.2188	0.2119	0	1	2.543	5	0	0
29	1	55	0	2	2	0.2188	0.2119	1	1	0.779	6	82	0
29	1	56	0	2	3	0.2188	0.2119	0	1	0.813	5	0	0
29	1	57	1	1	1	0.2188	0.2119	0	1	0.516	83	82	82
29	1	58	1	2	3	0.2188	0.2119	0	1	1.022	50	82	82
29	1	59	0	1	1	0.2188	0.2119	0	1	0.862	5	0	0
29	1	60	1	2	3	0.2188	0.2119	0	0	1.203	0	82	82
29	1	61	1	2	3	0.2188	0.2119	1	1	0.693	66	0	82
29	1	62	9	2	2	0.2188	0.2119	1	1	1.323	0	82	0
29	1	63	0	2	3	0.2188	0.2119	0	1	0.882	5	0	0
29	1	64	0	2	3	0.2188	0.2119	0	0	0.881	0	0	0
29	1	65	1	1	3	0.2188	0.2119	1	0	0.958	0	82	0
29	1	66	1	2	2	0.2188	0.2119	1	1	0.687	66	0	82
29	1	67	0	1	3	0.2188	0.2119	1	0	1.164	0	0	82
29	1	68	0	2	2	0.2188	0.2119	1	0	1.607	0	82	0
29	1	69	1	2	2	0.2188	0.2119	1	1	0.807	54	0	82
29	1	70	1	1	1	0.2188	0.2119	0	1	1.257	50	82	82
29	1	71	1	1	1	0.2188	0.2119	0	0	0.617	0	82	82
29	1	72	0	2	1	0.2188	0.2119	1	1	2.712	5	82	0
29	1	73	0	2	3	0.2188	0.2119	0	1	1.092	5	0	0
29	1	74	9	1	3	0.2188	0.2119	0	1	0.714	0	82	82
29	1	75	0	2	2	0.2188	0.2119	1	1	0.823	5	82	0
29	1	76	0	1	3	0.2188	0.2119	1	1	1.529	5	0	82
29	1	77	0	2	2	0.2188	0.2119	1	0	0.581	0	82	0
29	1	78	0	1	1	0.2188	0.2119	1	0	0.718	0	0	82
29	1	79	0	1	1	0.2188	0.2119	1	1	0.924	5	0	82
29	1	80	0	2	2	0.2188	0.2119	1	1	0.952	5	82	0
29	1	81	1	2	2	0.2188	0.2119	1	1	0.724	63	0	82
29	1	82	0	2	3	0.2188	0.2119	1	1	2.239	5	82	0
29	1	83	1	1	3	0.2188	0.2119	0	1	0.639	71	82	82
29	1	84	1	1	3	0.2188	0.2119	1	1	0.519	83	82	0
29	1	85	1	2	3	0.2188	0.2119	1	1	0.598	75	0	82
29	1	86	9	2	2	0.2188	0.2119	0	1	0.749	0	82	82
29	1	87	0	2	3	0.2188	0.2119	1	1	1.575	5	82	0
29	1	88	1	1	3	0.2188	0.2119	0	1	0.713	64	82	82
29	1	89	1	1	1	0.2188	0.2119	0	1	0.543	81	82	82
29	1	90	0	2	3	0.2188	0.2119	0	1	1.315	5	0	0
29	1	91	1	2	3	0.2188	0.2119	1	1	0.574	78	0	82
29	1	92	1	2	2	0.2188	0.2119	0	0	0.898	0	82	82
29	1	93	1	1	3	0.2188	0.2119	1	1	0.753	60	82	0
29	1	94	0	2	2	0.2188	0.2119	1	0	0.838	0	82	0
29	1	95	1	1	2	0.2188	0.2119	1	1	2.094	50	82	0
29	1	96	1	1	2	0.2188	0.2119	0	1	0.731	62	82	82
29	1	97	9	1	3	0.2188	0.2119	0	0	0.702	0	82	82
29	1	98	1	2	3	0.2188	0.2119	1	1	0.909	50	0	82
29	1	99	0	1	1	0.2188	0.2119	0	1	0.961	5	0	0
29	1	100	9	1	3	0.2188	0.2119	1	1	1.075	0	82	0
29	1	101	1	1	3	0.2188	0.2119	1	1	0.851	50	82	0
29	1	102	1	2	3	0.2188	0.2119	1	0	1.020	0	0	82
29	1	103	9	2	3	0.2188	0.2119	0	1	0.750	0	0	0
29	1	104	1	1	3	0.2188	0.2119	0	1	0.777	57	82	82
29	1	105	1	2	3	0.2188	0.2119	0	1	1.461	50	82	82
29	1	106	0	2	2	0.2188	0.2119	1	1	0.849	5	82	0
29	1	107	0	1	1	0.2188	0.2119	0	1	0.880	5	0	0
29	1	108	0	2	2	0.2188	0.2119	0	0	0.696	0	0	0
29	1	109	0	2	2	0.2188	0.2119	0	1	0.944	5	0	0
29	1	110	1	1	3	0.2188	0.2119	0	1	0.557	79	82	82
29	1	111	0	1	1	0.2188	0.2119	0	1	0.674	7	0	0
29	1	112	1	2	2	0.2188	0.2119	0	1	0.723	63	82	82
29	1	113	0	1	1	0.2188	0.2119	1	1	0.737	6	0	82
29	1	114	1	2	2	0.2188	0.2119	1	0	0.540	0	0	82
29	1	115	9	2	2	0.2188	0.2119	1	1	0.632	0	82	0
29	1	116	1	2	3	0.2188	0.2119	0	1	1.640	50	82	82
29	1	117	9	1	2	0.2188	0.2119	0	0	1.015	0	82	82
29	1	118	0	2	3	0.2188	0.2119	1	1	1.191	5	82	0
29	1	119	1	1	2	0.2188	0.2119	0	1	0.827	52	82	82
29	1	120	0	2	3	0.2188	0.2119	0	0	1.155	0	0	0
29	1	121	9	2	3	0.2188	0.2119	1	1	1.726	0	0	82
29	1	122	0	1	3	0.2188	0.2119	0	1	0.881	5	0	0
29	1	123	0	2	3	0.2188	0.2119	1	1	0.881	5	82	0
29	1	124	1	1	1	0.2188	0.2119	0	1	0.437	91	82	82
29	1	125	1	1	1	0.2188	0.2119	1	1	0.518	83	82	0
29	1	126	1	1	3	0.2188	0.2119	1	1	0.546	80	82	0
29	1	127	9	2	2	0.2188	0.2119	0	1	0.669	0	82	82
29	1	128	1	2	2	0.2188	0.2119	1	1	0.708	64	0	82
29	1	129	1	2	1	0.2188	0.2119	0	1	1.257	50	82	82
29	1	130	1	2	2	0.2188	0.2119	1	1	0.586	76	0	82
29	1	131	9	2	3	0.2188	0.2119	0	1	0.901	0	82	82
29	1	132	0	1	1	0.2188	0.2119	0	1	0.554	8	0	0
29	1	133	0	1	1	0.2188	0.2119	0	1	0.683	7	0	0
29	1	134	1	2	2	0.2188	0.2119	0	0	0.546	0	82	82
29	1	135	0	1	3	0.2188	0.2119	1	1	0.557	8	0	82
29	1	136	1	2	2	0.2188	0.2119	1	1	1.240	50	0	82
29	1	137	1	2	2	0.2188	0.2119	0	1	0.606	74	82	82
29	1	138	1	2	3	0.2188	0.2119	1	1	0.680	67	0	82
29	1	139	1	1	2	0.2188	0.2119	1	1	1.237	50	82	0
29	1	140	1	2	3	0.2188	0.2119	1	1	0.949	50	0	82
29	1	141	1	2	1	0.2188	0.2119	0	1	2.226	50	82	82
29	1	142	0	2	2	0.2188	0.2119	1	1	0.810	5	82	0
29	1	143	0	2	2	0.2188	0.2119	0	1	0.810	5	0	0
29	1	144	0	1	3	0.2188	0.2119	1	1	0.604	7	0	82
29	1	145	1	1	1	0.2188	0.2119	0	1	0.926	50	82	82
29	1	146	1	2	3	0.2188	0.2119	0	0	0.689	0	82	82
29	1	147	1	2	2	0.2188	0.2119	0	1	0.671	68	82	82
29	1	148	1	2	2	0.2188	0.2119	0	1	0.525	82	82	82
29	1	149	0	2	2	0.2188	0.2119	0	0	0.811	0	0	0
29	1	150	0	2	1	0.2188	0.2119	0	0	1.068	0	0	0
29	1	151	0	1	1	0.2188	0.2119	1	1	0.770	6	0	82
29	1	152	1	2	1	0.2188	0.2119	1	0	0.812	0	0	82
29	1	153	9	1	1	0.2188	0.2119	0	1	0.420	0	82	82
29	1	154	0	2	2	0.2188	0.2119	0	1	0.763	6	0	0
29	1	155	0	1	3	0.2188	0.2119	0	1	1.119	5	0	0
29	1	156	9	1	1	0.2188	0.2119	1	1	0.522	0	0	82
29	1	157	9	1	3	0.2188	0.2119	0	1	1.137	0	0	0
29	1	158	9	2	2	0.2188	0.2119	0	1	0.860	0	0	0
29	1	159	0	2	2	0.2188	0.2119	1	1	0.651	7	82	0
29	1	160	1	2	2	0.2188	0.2119	1	0	0.820	0	0	82
29	1	161	1	2	3	0.2188	0.2119	0	1	0.840	51	82	82
29	1	162	9	2	1	0.2188	0.2119	0	0	1.063	0	0	0
29	1	163	1	1	3	0.2188	0.2119	0	1	1.421	50	82	82
29	1	164	9	1	3	0.2188	0.2119	1	1	3.022	0	82	0
29	1	165	1	1	1	0.2188	0.2119	0	0	0.814	0	82	82
29	1	166	0	2	2	0.2188	0.2119	1	0	0.743	0	82	0
29	1	167	0	2	2	0.2188	0.2119	0	1	1.434	5	0	0
29	1	168	9	1	2	0.2188	0.2119	1	1	1.539	0	82	0
29	1	169	9	1	3	0.2188	0.2119	0	1	0.705	0	82	82
29	1	170	9	2	2	0.2188	0.2119	0	1	0.839	0	0	0
29	1	171	1	1	1	0.2188	0.2119	1	1	1.390	50	82	0
29	1	172	1	2	1	0.2188	0.2119	0	1	1.072	50	82	82
29	1	173	0	1	3	0.2188	0.2119	0	0	0.518	0	0	0
29	1	174	0	1	2	0.2188	0.2119	1	1	1.163	5	0	82
29	1	175	1	1	3	0.2188	0.2119	0	1	0.485	87	82	82
29	1	176	0	1	2	0.2188	0.2119	1	1	0.786	6	0	82
29	1	177	1	1	3	0.2188	0.2119	1	1	0.643	71	82	0
29	1	178	0	1	1	0.2188	0.2119	1	1	0.491	9	0	82
29	1	179	1	2	2	0.2188	0.2119	0	1	0.664	69	82	82
29	1	180	0	2	3	0.2188	0.2119	1	1	4.790	5	82	0
29	1	181	1	1	1	0.2188	0.2119	0	1	0.565	78	82	82
29	1	182	0	2	3	0.2188	0.2119	0	0	0.720	0	0	0
29	1	183	1	2	3	0.2188	0.2119	1	1	0.565	78	0	82
29	1	184	1	2	3	0.2188	0.2119	0	0	0.607	0	82	82
29	1	185	0	1	1	0.2188	0.2119	0	1	0.464	9	0	0
29	1	186	0	2	2	0.2188	0.2119	1	1	0.598	8	82	0
29	1	187	9	2	1	0.2188	0.2119	1	1	0.911	0	82	0
29	1	188	0	2	1	0.2188	0.2119	1	0	1.091	0	82	0
29	1	189	1	1	3	0.2188	0.2119	1	1	0.919	50	82	0
29	1	190	9	1	3	0.2188	0.2119	0	1	0.594	0	0	0
29	1	191	0	1	2	0.2188	0.2119	0	0	0.780	0	0	0
29	1	192	0	2	3	0.2188	0.2119	1	0	0.950	0	82	0
29	1	193	9	1	1	0.2188	0.2119	1	1	2.473	0	82	0
29	1	194	0	2	3	0.2188	0.2119	1	1	1.641	5	82	0
29	1	195	0	1	3	0.2188	0.2119	0	1	1.043	5	0	0
29	1	196	1	2	3	0.2188	0.2119	0	0	0.674	0	82	82
29	1	197	0	1	3	0.2188	0.2119	0	1	0.521	8	0	0
29	1	198	9	1	1	0.2188	0.2119	0	1	0.572	0	0	0
29	1	199	1	1	3	0.2188	0.2119	0	1	0.678	67	82	82
29	1	200	1	2	2	0.2188	0.2119	0	0	0.525	0	82	82
29	1	201	9	2	2	0.2188	0.2119	0	1	1.333	0	82	82
29	1	202	1	2	1	0.2188	0.2119	0	1	0.850	50	82	82
29	1	203	1	2	3	0.2188	0.2119	0	0	0.832	0	82	82
29	1	204	0	1	3	0.2188	0.2119	1	0	0.623	0	0	82
29	1	205	1	1	1	0.2188	0.2119	1	1	0.706	64	82	0
29	1	206	1	2	3	0.2188	0.2119	0	1	0.639	71	82	82
29	1	207	1	2	3	0.2188	0.2119	1	1	0.797	55	0	82
29	1	208	1	1	3	0.2188	0.2119	0	1	0.711	64	82	82
29	1	209	0	1	3	0.2188	0.2119	0	1	0.476	9	0	0
29	1	210	0	1	1	0.2188	0.2119	0	1	0.651	7	0	0
29	1	211	1	1	3	0.2188	0.2119	1	1	0.602	75	82	0
29	1	212	1	1	1	0.2188	0.2119	1	1	2.261	50	82	0
29	1	213	9	1	1	0.2188	0.2119	0	1	0.507	0	82	82
29	1	214	0	2	2	0.2188	0.2119	0	1	0.911	5	0	0
29	1	215	0	1	1	0.2188	0.2119	0	1	0.460	9	0	0
29	1	216	1	1	3	0.2188	0.2119	1	1	0.586	76	82	0
29	1	217	9	1	1	0.2188	0.2119	1	1	0.612	0	0	82
29	1	218	1	1	1	0.2188	0.2119	1	0	0.685	0	82	0
29	1	219	0	1	1	0.2188	0.2119	0	1	0.596	8	0	0
29	1	220	1	2	3	0.2188	0.2119	0	0	0.622	0	82	82
29	1	221	1	2	3	0.2188	0.2119	1	1	1.576	50	0	82
29	1	222	0	1	3	0.2188	0.2119	0	1	0.836	5	0	0
29	1	223	0	2	3	0.2188	0.2119	0	0	0.643	0	0	0
29	1	224	1	1	3	0.2188	0.2119	0	1	0.393	96	82	82
29	1	225	0	2	2	0.2188	0.2119	0	0	0.458	0	0	0
29	1	226	9	1	1	0.2188	0.2119	1	0	1.307	0	82	0
29	1	227	1	1	3	0.2188	0.2119	0	1	0.520	83	82	82
29	1	228	9	2	3	0.2188	0.2119	1	1	0.693	0	82	0
29	1	229	1	1	1	0.2188	0.2119	1	1	0.601	75	82	0
29	1	230	9	1	3	0.2188	0.2119	1	0	0.433	0	0	82
29	1	231	0	2	2	0.2188	0.2119	1	1	1.131	5	82	0
29	1	232	0	1	3	0.2188	0.2119	0	1	0.512	8	0	0
29	1	233	1	2	3	0.2188	0.2119	0	0	0.652	0	82	82
29	1	234	1	1	3	0.2188	0.2119	1	1	0.613	74	82	0
29	1	235	1	1	3	0.2188	0.2119	0	1	0.637	71	82	82
29	1	236	9	1	3	0.2188	0.2119	0	1	0.772	0	0	0
29	1	237	0	2	3	0.2188	0.2119	0	1	0.711	6	0	0
29	1	238	0	1	1	0.2188	0.2119	0	0	0.468	0	0	0
29	1	239	0	1	3	0.2188	0.2119	1	1	0.642	7	0	82
29	1	240	0	1	1	0.2188	0.2119	1	1	1.129	5	0	82
29	1	241	9	2	2	0.2188	0.2119	1	1	0.505	0	0	82
29	1	242	0	2	3	0.2188	0.2119	1	0	0.662	0	82	0
29	1	243	9	2	3	0.2188	0.2119	0	0	0.525	0	0	0
29	1	244	0	1	1	0.2188	0.2119	1	1	0.666	7	0	82
29	1	245	0	1	1	0.2188	0.2119	1	1	0.576	8	0	82
29	1	246	1	2	2	0.2188	0.2119	0	1	0.554	80	82	82
29	1	247	1	1	2	0.2188	0.2119	0	1	0.452	90	82	82
29	1	248	0	1	3	0.2188	0.2119	0	1	0.529	8	0	0
29	1	249	9	2	3	0.2188	0.2119	0	0	0.652	0	82	82
29	1	250	1	2	2	0.2188	0.2119	0	1	0.582	77	82	82
29	1	251	1	1	1	0.2188	0.2119	1	1	0.470	88	82	0
29	1	252	9	2	3	0.2188	0.2119	1	1	0.604	0	82	0
29	1	253	9	1	1	0.2188	0.2119	1	1	1.581	0	82	0
29	1	254	0	2	3	0.2188	0.2119	1	0	0.640	0	82	0
29	1	255	9	1	1	0.2188	0.2119	0	1	0.472	0	0	0
29	1	256	1	1	1	0.2188	0.2119	0	1	0.480	87	82	82
29	1	257	0	2	1	0.2188	0.2119	0	0	1.016	0	0	0
29	1	258	9	1	1	0.2188	0.2119	1	1	0.567	0	0	82
29	1	259	9	2	2	0.2188	0.2119	1	0	1.073	0	0	82
29	1	260	1	1	2	0.2188	0.2119	1	1	1.376	50	82	0
29	1	261	0	1	3	0.2188	0.2119	1	1	0.795	6	0	82
29	1	262	1	2	2	0.2188	0.2119	0	1	1.134	50	82	82
29	1	263	1	2	2	0.2188	0.2119	1	1	1.211	50	0	82
29	1	264	9	1	3	0.2188	0.2119	1	1	0.619	0	0	82
29	1	265	0	1	2	0.2188	0.2119	0	1	0.691	7	0	0
29	1	266	0	2	2	0.2188	0.2119	0	0	0.865	0	0	0
29	1	267	9	1	3	0.2188	0.2119	0	1	0.559	0	0	0
29	1	268	9	2	2	0.2188	0.2119	0	0	0.736	0	0	0
29	1	269	1	2	2	0.2188	0.2119	0	1	1.052	50	82	82
29	1	270	1	1	1	0.2188	0.2119	1	1	0.540	81	82	0
29	1	271	0	2	3	0.2188	0.2119	0	1	0.583	8	0	0
29	1	272	0	2	3	0.2188	0.2119	0	0	0.627	0	0	0
29	1	273	0	1	3	0.2188	0.2119	0	1	0.467	9	0	0
29	1	274	1	1	1	0.2188	0.2119	1	1	0.611	74	82	0
29	1	275	0	1	3	0.2188	0.2119	1	1	0.588	8	0	82
29	1	276	1	1	1	0.2188	0.2119	0	1	0.548	80	82	82
29	1	277	1	1	1	0.2188	0.2119	1	1	0.617	73	82	0
29	1	278	1	1	1	0.2188	0.2119	0	1	0.514	84	82	82
29	1	279	0	2	2	0.2188	0.2119	1	0	0.350	0	82	0
29	1	280	0	1	3	0.2188	0.2119	1	1	0.667	7	0	82
29	1	281	0	1	3	0.2188	0.2119	0	1	0.481	9	0	0
29	1	282	0	1	3	0.2188	0.2119	1	1	0.583	8	0	82
29	1	283	1	1	1	0.2188	0.2119	1	1	0.712	64	82	0
29	1	284	1	2	1	0.2188	0.2119	1	0	1.156	0	0	82
29	1	285	1	2	1	0.2188	0.2119	1	1	0.616	73	0	82
29	1	286	0	1	1	0.2188	0.2119	0	1	0.631	7	0	0
29	1	287	0	1	1	0.2188	0.2119	0	1	0.374	10	0	0
29	1	288	1	2	1	0.2188	0.2119	1	1	0.641	71	0	82
29	1	289	9	2	2	0.2188	0.2119	0	1	0.656	0	0	0
29	1	290	1	2	2	0.2188	0.2119	0	0	0.568	0	82	82
29	1	291	0	1	1	0.2188	0.2119	1	1	1.196	5	0	82
29	1	292	9	2	2	0.2188	0.2119	1	0	1.011	0	0	82
29	1	293	0	1	3	0.2188	0.2119	1	1	1.404	5	0	82
29	1	294	1	1	3	0.2188	0.2119	0	1	0.582	77	82	82
29	1	295	0	2	1	0.2188	0.2119	1	1	1.087	5	82	0
29	1	296	1	2	3	0.2188	0.2119	1	1	0.749	60	0	82
29	1	297	1	2	3	0.2188	0.2119	1	1	1.738	50	0	82
29	1	298	0	2	3	0.2188	0.2119	1	1	0.639	7	82	0
29	1	299	0	2	2	0.2188	0.2119	0	1	0.759	6	0	0
29	1	300	1	1	1	0.2188	0.2119	0	1	0.496	85	82	82
29	1	301	9	1	3	0.2188	0.2119	1	1	0.622	0	82	0
29	1	302	0	1	1	0.2188	0.2119	0	1	0.592	8	0	0
29	1	303	0	1	1	0.2188	0.2119	1	1	0.522	8	0	82
29	1	304	9	2	3	0.2188	0.2119	0	0	4.968	0	0	0
29	1	305	1	2	2	0.2188	0.2119	0	1	0.755	60	82	82
29	1	306	1	1	1	0.2188	0.2119	1	1	0.471	88	82	0
29	1	307	9	2	3	0.2188	0.2119	0	0	0.597	0	0	0
29	1	308	1	1	3	0.2188	0.2119	1	0	0.527	0	82	0
29	1	309	1	1	1	0.2188	0.2119	1	1	0.443	91	82	0
29	1	310	1	1	3	0.2188	0.2119	0	1	0.516	83	82	82
29	1	311	1	2	2	0.2188	0.2119	1	1	0.451	90	0	82
29	1	312	1	2	2	0.2188	0.2119	1	1	0.874	50	0	82
29	1	313	0	2	3	0.2188	0.2119	1	0	0.706	0	82	0
29	1	314	9	2	3	0.2188	0.2119	1	1	0.528	0	0	82
29	1	315	9	2	2	0.2188	0.2119	0	1	0.758	0	82	82
29	1	316	1	1	3	0.2188	0.2119	1	0	1.992	0	82	0
29	1	317	9	2	1	0.2188	0.2119	0	1	1.323	0	82	82
29	1	318	9	2	1	0.2188	0.2119	1	1	1.037	0	0	82
29	1	319	1	2	2	0.2188	0.2119	0	1	0.797	55	82	82
29	1	320	1	2	3	0.2188	0.2119	0	1	0.678	67	82	82
29	1	321	9	2	3	0.2188	0.2119	1	1	0.637	0	0	82
29	1	322	0	1	1	0.2188	0.2119	1	1	0.526	8	0	82
29	1	323	1	2	3	0.2188	0.2119	1	0	0.635	0	0	82
29	1	324	9	2	3	0.2188	0.2119	0	0	0.675	0	82	82
29	1	325	9	1	1	0.2188	0.2119	1	1	0.617	0	0	82
29	1	326	0	2	2	0.2188	0.2119	0	1	1.296	5	0	0
29	1	327	9	1	2	0.2188	0.2119	0	1	0.510	0	0	0
29	1	328	0	2	3	0.2188	0.2119	0	0	1.218	0	0	0
29	1	329	0	1	3	0.2188	0.2119	1	0	0.451	0	0	82
29	1	330	1	2	2	0.2188	0.2119	0	1	0.537	81	82	82
29	1	331	1	1	1	0.2188	0.2119	0	0	0.795	0	82	82
29	1	332	1	1	1	0.2188	0.2119	0	1	0.275	100	82	82
29	1	333	1	2	2	0.2188	0.2119	1	1	0.290	100	0	82
29	1	334	9	2	3	0.2188	0.2119	1	0	0.375	0	82	0
29	1	335	1	1	1	0.2188	0.2119	0	0	0.407	0	82	82
29	1	336	0	1	3	0.2188	0.2119	1	0	0.713	0	0	82
29	1	337	1	1	1	0.2188	0.2119	0	0	0.391	0	82	82
29	1	338	1	2	2	0.2188	0.2119	1	1	0.816	53	0	82
29	1	339	0	1	1	0.2188	0.2119	0	1	0.383	10	0	0
29	1	340	1	1	1	0.2188	0.2119	1	0	0.489	0	82	0
29	1	341	1	1	3	0.2188	0.2119	1	1	0.603	75	82	0
29	1	342	0	1	3	0.2188	0.2119	1	0	0.492	0	0	82
29	1	343	9	2	3	0.2188	0.2119	0	1	0.698	0	82	82
29	1	344	0	2	3	0.2188	0.2119	1	1	0.671	7	82	0
29	1	345	0	2	3	0.2188	0.2119	0	1	0.605	7	0	0
29	1	346	9	2	3	0.2188	0.2119	1	1	0.551	0	82	0
29	1	347	0	2	2	0.2188	0.2119	1	1	0.578	8	82	0
29	1	348	9	1	3	0.2188	0.2119	1	0	0.966	0	0	82
29	1	349	0	2	2	0.2188	0.2119	0	1	0.490	9	0	0
29	1	350	0	2	1	0.2188	0.2119	1	1	0.874	5	82	0
29	1	351	1	1	3	0.2188	0.2119	0	1	0.722	63	82	82
29	1	352	0	1	1	0.2188	0.2119	1	1	0.573	8	0	82
29	1	353	0	2	3	0.2188	0.2119	1	1	0.687	7	82	0
29	1	354	1	1	2	0.2188	0.2119	0	1	0.525	82	82	82
29	1	355	0	1	2	0.2188	0.2119	0	1	0.354	10	0	0
29	1	356	0	2	3	0.2188	0.2119	0	0	1.166	0	0	0
29	1	357	9	1	3	0.2188	0.2119	1	0	0.632	0	82	0
29	1	358	0	2	1	0.2188	0.2119	0	1	0.824	5	0	0
29	1	359	1	2	2	0.2188	0.2119	1	1	0.538	81	0	82
29	1	360	1	1	3	0.2188	0.2119	1	0	0.621	0	82	0
29	1	361	1	2	2	0.2188	0.2119	0	1	0.737	61	82	82
29	1	362	1	2	2	0.2188	0.2119	0	0	0.527	0	82	82
29	1	363	0	1	3	0.2188	0.2119	1	0	0.525	0	0	82
29	1	364	0	2	2	0.2188	0.2119	1	0	0.528	0	82	0
29	1	365	1	1	2	0.2188	0.2119	1	1	1.110	50	82	0
29	1	366	0	1	1	0.2188	0.2119	1	1	0.585	8	0	82
29	1	367	0	2	3	0.2188	0.2119	0	1	0.621	7	0	0
29	1	368	9	2	3	0.2188	0.2119	1	1	0.595	0	0	82
29	1	369	0	2	2	0.2188	0.2119	1	1	0.643	7	82	0
29	1	370	9	2	2	0.2188	0.2119	0	1	0.538	0	0	0
29	1	371	0	1	3	0.2188	0.2119	0	0	0.615	0	0	0
29	1	372	9	1	3	0.2188	0.2119	0	1	0.424	0	0	0
29	1	373	0	2	3	0.2188	0.2119	1	1	0.648	7	82	0
29	1	374	0	1	1	0.2188	0.2119	1	0	0.736	0	0	82
29	1	375	1	2	2	0.2188	0.2119	0	0	1.221	0	82	82
29	1	376	0	1	1	0.2188	0.2119	0	1	0.527	8	0	0
29	1	377	0	1	3	0.2188	0.2119	0	1	0.443	9	0	0
29	1	378	1	1	3	0.2188	0.2119	1	0	0.545	0	82	0
29	1	379	1	2	3	0.2188	0.2119	1	0	0.982	0	0	82
29	1	380	0	1	1	0.2188	0.2119	0	1	0.434	9	0	0
29	1	381	1	2	3	0.2188	0.2119	0	0	1.040	0	82	82
29	1	382	0	2	2	0.2188	0.2119	0	1	0.463	9	0	0
29	1	383	1	2	1	0.2188	0.2119	0	1	0.981	50	82	82
29	1	384	0	2	2	0.2188	0.2119	0	0	0.711	0	0	0
29	1	385	0	1	2	0.2188	0.2119	1	1	0.475	9	0	82
29	1	386	9	2	3	0.2188	0.2119	1	0	0.553	0	0	82
29	1	387	0	2	1	0.2188	0.2119	0	1	1.219	5	0	0
29	1	388	9	2	3	0.2188	0.2119	0	1	0.562	0	0	0
29	1	389	9	2	1	0.2188	0.2119	1	1	1.589	0	82	0
29	1	390	0	1	1	0.2188	0.2119	1	1	1.094	5	0	82
29	1	391	0	1	1	0.2188	0.2119	0	1	0.661	7	0	0
29	1	392	1	2	3	0.2188	0.2119	0	1	1.867	50	82	82
29	1	393	9	1	1	0.2188	0.2119	0	0	0.833	0	82	82
29	1	394	9	2	2	0.2188	0.2119	1	1	0.874	0	0	82
29	1	395	1	2	2	0.2188	0.2119	1	1	0.496	85	0	82
29	1	396	1	1	1	0.2188	0.2119	1	1	1.047	50	82	0
29	1	397	1	1	3	0.2188	0.2119	1	1	0.421	93	82	0
29	1	398	0	1	3	0.2188	0.2119	1	0	0.406	0	0	82
29	1	399	1	2	3	0.2188	0.2119	1	1	0.511	84	0	82
29	1	400	0	2	2	0.2188	0.2119	1	1	0.477	9	82	0
29	1	401	0	2	3	0.2188	0.2119	0	1	0.710	6	0	0
29	1	402	1	1	3	0.2188	0.2119	1	1	0.522	83	82	0
29	1	403	1	2	2	0.2188	0.2119	1	1	0.880	50	0	82
29	1	404	0	1	1	0.2188	0.2119	0	1	0.421	9	0	0
29	1	405	1	1	1	0.2188	0.2119	0	1	0.389	96	82	82
29	1	406	0	2	3	0.2188	0.2119	1	1	1.009	5	82	0
29	1	407	1	1	1	0.2188	0.2119	1	1	0.635	72	82	0
29	1	408	0	2	1	0.2188	0.2119	1	0	0.804	0	82	0
29	1	409	0	1	3	0.2188	0.2119	1	1	0.526	8	0	82
29	1	410	1	2	2	0.2188	0.2119	1	1	0.914	50	0	82
29	1	411	9	2	2	0.2188	0.2119	1	1	0.560	0	82	0
29	1	412	9	1	1	0.2188	0.2119	0	1	0.547	0	0	0
29	1	413	1	2	3	0.2188	0.2119	0	0	0.534	0	82	82
29	1	414	1	2	3	0.2188	0.2119	1	0	0.507	0	0	82
29	1	415	1	1	3	0.2188	0.2119	0	0	0.543	0	82	82
29	1	416	1	1	1	0.2188	0.2119	0	1	0.650	70	82	82
29	1	417	9	1	1	0.2188	0.2119	0	0	0.507	0	0	0
29	1	418	0	1	1	0.2188	0.2119	0	0	0.705	0	0	0
29	1	419	0	1	1	0.2188	0.2119	0	0	1.181	0	0	0
29	1	420	1	1	1	0.2188	0.2119	1	1	0.537	81	82	0
29	1	421	9	1	1	0.2188	0.2119	0	1	0.391	0	0	0
29	1	422	0	2	2	0.2188	0.2119	1	1	0.546	8	82	0
29	1	423	0	2	1	0.2188	0.2119	1	1	0.846	5	82	0
29	1	424	1	1	1	0.2188	0.2119	1	0	0.445	0	82	0
29	1	425	9	1	3	0.2188	0.2119	0	1	0.573	0	82	82
29	1	426	9	1	1	0.2188	0.2119	1	1	0.711	0	82	0
29	1	427	0	1	1	0.2188	0.2119	1	1	0.805	5	0	82
29	1	428	0	1	3	0.2188	0.2119	1	1	0.711	6	0	82
29	1	429	1	2	2	0.2188	0.2119	1	0	0.659	0	0	82
29	1	430	0	2	2	0.2188	0.2119	1	1	1.138	5	82	0
29	1	431	1	1	3	0.2188	0.2119	0	1	0.510	84	82	82
29	1	432	0	1	1	0.2188	0.2119	0	1	0.601	7	0	0
29	1	433	1	2	2	0.2188	0.2119	0	1	1.530	50	82	82
29	1	434	9	1	1	0.2188	0.2119	1	1	0.589	0	0	82
29	1	435	9	1	3	0.2188	0.2119	1	1	0.645	0	0	82
29	1	436	1	2	3	0.2188	0.2119	0	1	0.979	50	82	82
29	1	437	0	1	1	0.2188	0.2119	0	0	0.412	0	0	0
29	1	438	1	1	1	0.2188	0.2119	0	1	0.526	82	82	82
29	1	439	1	2	2	0.2188	0.2119	1	1	0.556	79	0	82
29	1	440	0	2	3	0.2188	0.2119	0	0	0.463	0	0	0
29	1	441	9	2	3	0.2188	0.2119	1	1	0.610	0	0	82
29	1	442	1	2	3	0.2188	0.2119	0	1	0.499	85	82	82
29	1	443	0	1	3	0.2188	0.2119	1	1	0.721	6	0	82
29	1	444	1	1	1	0.2188	0.2119	1	1	0.532	82	82	0
29	1	445	1	1	2	0.2188	0.2119	0	0	0.400	0	82	82
29	1	446	9	2	1	0.2188	0.2119	0	0	0.530	0	82	82
29	1	447	9	2	2	0.2188	0.2119	1	1	0.664	0	82	0
29	1	448	0	2	3	0.2188	0.2119	0	0	0.800	0	0	0
29	1	449	1	2	3	0.2188	0.2119	1	1	0.811	54	0	82
29	1	450	1	2	3	0.2188	0.2119	1	1	1.019	50	0	82
29	1	451	9	1	3	0.2188	0.2119	1	1	0.555	0	82	0
29	1	452	0	2	1	0.2188	0.2119	0	1	0.887	5	0	0
29	1	453	1	2	2	0.2188	0.2119	1	1	1.677	50	0	82
29	1	454	9	2	3	0.2188	0.2119	0	1	0.994	0	82	82
29	1	455	1	1	3	0.2188	0.2119	0	1	0.790	56	82	82
29	1	456	1	1	3	0.2188	0.2119	0	1	0.465	89	82	82
29	1	457	9	1	1	0.2188	0.2119	0	1	0.457	0	82	82
29	1	458	0	2	2	0.2188	0.2119	0	1	1.136	5	0	0
29	1	459	9	2	3	0.2188	0.2119	1	1	1.443	0	0	82
29	1	460	1	2	2	0.2188	0.2119	0	1	1.393	50	82	82
29	1	461	0	1	3	0.2188	0.2119	0	1	0.577	8	0	0
29	1	462	1	1	1	0.2188	0.2119	0	1	0.547	80	82	82
29	1	463	0	1	3	0.2188	0.2119	1	0	0.423	0	0	82
29	1	464	0	1	1	0.2188	0.2119	1	1	0.751	6	0	82
29	1	465	9	1	3	0.2188	0.2119	1	1	1.538	0	82	0
29	1	466	0	2	3	0.2188	0.2119	0	1	0.615	7	0	0
29	1	467	0	2	3	0.2188	0.2119	1	1	0.866	5	82	0
29	1	468	0	2	1	0.2188	0.2119	0	1	1.791	5	0	0
29	1	469	9	1	1	0.2188	0.2119	1	1	0.587	0	82	0
29	1	470	1	1	2	0.2188	0.2119	1	1	0.620	73	82	0
29	1	471	9	1	3	0.2188	0.2119	0	1	1.087	0	0	0
29	1	472	9	1	3	0.2188	0.2119	1	1	0.595	0	82	0
29	1	473	0	2	2	0.2188	0.2119	1	0	0.677	0	82	0
29	1	474	0	1	3	0.2188	0.2119	1	1	0.554	8	0	82
29	1	475	1	1	1	0.2188	0.2119	0	0	0.571	0	82	82
29	1	476	0	2	2	0.2188	0.2119	1	1	2.588	5	82	0
29	1	477	1	1	3	0.2188	0.2119	0	0	15.015	0	82	82
29	1	478	9	2	1	0.2188	0.2119	1	1	1.942	0	0	82
29	1	479	1	2	3	0.2188	0.2119	0	0	1.345	0	82	82
29	1	480	0	1	3	0.2188	0.2119	0	0	39.261	0	0	0
29	1	481	1	1	3	0.2188	0.2119	1	1	1.872	50	82	0
29	1	482	1	2	2	0.2188	0.2119	1	1	1.029	50	0	82
29	1	483	1	2	3	0.2188	0.2119	1	0	1.156	0	0	82
29	1	484	0	2	3	0.2188	0.2119	0	1	0.985	5	0	0
29	1	485	1	2	2	0.2188	0.2119	0	1	1.242	50	82	82
29	1	486	9	1	1	0.2188	0.2119	1	1	0.627	0	82	0
29	1	487	1	1	1	0.2188	0.2119	0	1	0.636	71	82	82
29	1	488	1	2	2	0.2188	0.2119	1	1	1.178	50	0	82
29	1	489	0	2	3	0.2188	0.2119	0	1	0.531	8	0	0
29	1	490	1	2	3	0.2188	0.2119	1	1	0.775	57	0	82
29	1	491	0	1	3	0.2188	0.2119	0	1	0.506	8	0	0
29	1	492	1	2	2	0.2188	0.2119	0	1	1.649	50	82	82
29	1	493	1	2	2	0.2188	0.2119	1	1	0.698	65	0	82
29	1	494	0	2	3	0.2188	0.2119	0	1	1.217	5	0	0
29	1	495	1	1	1	0.2188	0.2119	0	1	0.530	82	82	82
29	1	496	1	1	1	0.2188	0.2119	1	1	0.662	69	82	0
29	1	497	1	2	3	0.2188	0.2119	1	1	1.518	50	0	82
29	1	498	0	2	3	0.2188	0.2119	0	1	0.499	9	0	0
29	1	499	1	2	1	0.2188	0.2119	1	1	0.759	59	0	82
29	1	500	0	2	3	0.2188	0.2119	0	0	0.732	0	0	0
29	1	501	9	2	3	0.2188	0.2119	1	0	1.132	0	82	0
29	1	502	9	2	2	0.2188	0.2119	1	1	0.768	0	0	82
29	1	503	1	2	2	0.2188	0.2119	1	1	1.579	50	0	82
29	1	504	1	1	1	0.2188	0.2119	0	1	0.643	71	82	82
29	1	505	0	2	3	0.2188	0.2119	1	1	1.699	5	82	0
29	1	506	1	2	3	0.2188	0.2119	1	1	0.738	61	0	82
29	1	507	1	1	3	0.2188	0.2119	1	1	0.702	65	82	0
29	1	508	1	1	1	0.2188	0.2119	1	1	0.579	77	82	0
29	1	509	0	1	1	0.2188	0.2119	0	1	0.788	6	0	0
29	1	510	1	1	3	0.2188	0.2119	1	1	0.982	50	82	0
29	1	511	1	1	3	0.2188	0.2119	1	1	1.136	50	82	0
29	1	512	9	2	2	0.2188	0.2119	0	1	0.667	0	82	82
29	1	513	0	1	1	0.2188	0.2119	1	1	0.769	6	0	82
29	1	514	1	2	2	0.2188	0.2119	0	1	0.938	50	82	82
29	1	515	9	2	3	0.2188	0.2119	0	1	0.660	0	82	82
29	1	516	9	2	3	0.2188	0.2119	1	1	1.410	0	82	0
29	1	517	9	1	3	0.2188	0.2119	1	1	1.525	0	0	82
29	1	518	0	2	2	0.2188	0.2119	0	1	0.609	7	0	0
29	1	519	1	2	3	0.2188	0.2119	1	1	2.652	50	0	82
29	1	520	1	2	3	0.2188	0.2119	0	1	1.002	50	82	82
29	1	521	1	2	3	0.2188	0.2119	1	1	0.697	65	0	82
29	1	522	1	2	2	0.2188	0.2119	0	0	0.469	0	82	82
29	1	523	1	2	3	0.2188	0.2119	0	1	0.875	50	82	82
29	1	524	9	1	2	0.2188	0.2119	0	1	0.544	0	82	82
29	1	525	1	2	3	0.2188	0.2119	1	1	0.756	59	0	82
29	1	526	1	2	2	0.2188	0.2119	1	1	0.601	75	0	82
29	1	527	1	1	1	0.2188	0.2119	0	1	0.388	96	82	82
29	1	528	0	1	1	0.2188	0.2119	0	1	0.382	10	0	0
29	1	529	0	1	2	0.2188	0.2119	1	1	0.346	10	0	82
29	1	530	0	2	2	0.2188	0.2119	1	1	0.487	9	82	0
29	1	531	0	1	1	0.2188	0.2119	1	1	0.469	9	0	82
29	1	532	0	1	1	0.2188	0.2119	0	1	0.396	10	0	0
29	1	533	1	1	1	0.2188	0.2119	1	1	0.492	86	82	0
29	1	534	0	2	2	0.2188	0.2119	0	0	0.416	0	0	0
29	1	535	1	1	3	0.2188	0.2119	1	0	0.530	0	82	0
29	1	536	0	2	2	0.2188	0.2119	1	1	1.830	5	82	0
29	1	537	0	2	3	0.2188	0.2119	1	0	0.717	0	82	0
29	1	538	0	1	3	0.2188	0.2119	1	1	0.616	7	0	82
29	1	539	1	2	3	0.2188	0.2119	0	1	0.866	50	82	82
29	1	540	1	2	2	0.2188	0.2119	0	1	1.609	50	82	82
29	1	541	0	2	2	0.2188	0.2119	1	1	1.271	5	82	0
29	1	542	1	1	3	0.2188	0.2119	0	1	38.815	50	82	82
29	1	543	0	1	1	0.2188	0.2119	0	1	0.798	6	0	0
29	1	544	0	1	3	0.2188	0.2119	1	1	0.726	6	0	82
29	1	545	0	2	1	0.2188	0.2119	1	1	1.276	5	82	0
29	1	546	9	1	3	0.2188	0.2119	0	1	0.386	0	0	0
29	1	547	0	2	2	0.2188	0.2119	0	0	0.645	0	0	0
29	1	548	1	1	3	0.2188	0.2119	0	1	0.581	77	82	82
29	1	549	1	1	2	0.2188	0.2119	1	1	0.751	60	82	0
29	1	550	0	2	3	0.2188	0.2119	1	1	0.593	8	82	0
29	1	551	9	1	2	0.2188	0.2119	1	0	0.628	0	82	0
29	1	552	0	2	3	0.2188	0.2119	0	0	0.539	0	0	0
29	1	553	1	1	3	0.2188	0.2119	0	1	0.480	87	82	82
29	1	554	1	1	1	0.2188	0.2119	0	1	0.432	92	82	82
29	1	555	1	2	3	0.2188	0.2119	1	1	0.568	78	0	82
29	1	556	1	1	3	0.2188	0.2119	0	1	0.419	93	82	82
29	1	557	0	2	3	0.2188	0.2119	0	1	1.875	5	0	0
29	1	558	1	1	1	0.2188	0.2119	1	1	0.831	52	82	0
29	1	559	9	1	1	0.2188	0.2119	1	0	0.320	0	0	82
29	1	560	0	2	2	0.2188	0.2119	1	1	0.795	6	82	0
29	1	561	9	2	2	0.2188	0.2119	0	1	1.596	0	0	0
29	1	562	0	1	3	0.2188	0.2119	0	1	0.444	9	0	0
29	1	563	1	1	1	0.2188	0.2119	0	1	0.555	80	82	82
29	1	564	1	2	3	0.2188	0.2119	0	0	0.639	0	82	82
29	1	565	9	2	3	0.2188	0.2119	1	0	1.294	0	82	0
29	1	566	9	2	2	0.2188	0.2119	1	0	0.498	0	82	0
29	1	567	0	1	1	0.2188	0.2119	1	1	0.640	7	0	82
29	1	568	9	2	2	0.2188	0.2119	1	0	0.930	0	0	82
29	1	569	1	1	2	0.2188	0.2119	0	1	1.245	50	82	82
29	1	570	0	2	3	0.2188	0.2119	0	0	0.645	0	0	0
29	1	571	1	1	1	0.2188	0.2119	0	1	0.411	94	82	82
29	1	572	0	1	1	0.2188	0.2119	1	1	0.443	9	0	82
29	1	573	9	2	3	0.2188	0.2119	0	1	0.690	0	0	0
29	1	574	9	1	3	0.2188	0.2119	1	1	0.656	0	82	0
29	1	575	1	2	3	0.2188	0.2119	1	1	0.672	68	0	82
29	1	576	1	2	2	0.2188	0.2119	0	1	1.270	50	82	82
29	1	577	0	1	2	0.2188	0.2119	1	1	0.901	5	0	82
29	1	578	0	2	3	0.2188	0.2119	1	1	1.011	5	82	0
29	1	579	1	2	2	0.2188	0.2119	0	1	1.811	50	82	82
29	1	580	1	1	3	0.2188	0.2119	1	1	0.787	56	82	0
29	1	581	1	2	1	0.2188	0.2119	0	1	10.307	50	82	82
29	1	582	0	1	3	0.2188	0.2119	0	1	0.494	9	0	0
29	1	583	0	1	3	0.2188	0.2119	1	1	0.666	7	0	82
29	1	584	1	1	3	0.2188	0.2119	0	1	0.418	93	82	82
29	1	585	0	2	3	0.2188	0.2119	1	1	0.954	5	82	0
29	1	586	9	1	3	0.2188	0.2119	0	1	0.372	0	82	82
29	1	587	1	1	3	0.2188	0.2119	1	1	0.527	82	82	0
29	1	588	9	2	3	0.2188	0.2119	1	1	1.153	0	82	0
29	1	589	0	1	3	0.2188	0.2119	0	1	0.509	8	0	0
29	1	590	0	1	1	0.2188	0.2119	0	1	0.386	10	0	0
29	1	591	9	2	3	0.2188	0.2119	0	1	0.902	0	0	0
29	1	592	0	1	1	0.2188	0.2119	1	1	0.475	9	0	82
29	1	593	1	2	3	0.2188	0.2119	1	1	0.576	77	0	82
29	1	594	0	1	1	0.2188	0.2119	1	1	0.368	10	0	82
29	1	595	0	1	3	0.2188	0.2119	0	1	0.843	5	0	0
29	1	596	1	1	2	0.2188	0.2119	0	1	0.657	69	82	82
29	1	597	1	2	1	0.2188	0.2119	1	1	0.567	78	0	82
29	1	598	9	1	1	0.2188	0.2119	0	1	0.379	0	82	82
29	1	599	0	2	2	0.2188	0.2119	0	1	0.990	5	0	0
29	1	600	9	2	3	0.2188	0.2119	0	0	0.585	0	82	82
29	1	601	0	2	2	0.2188	0.2119	0	0	1.034	0	0	0
29	1	602	9	2	2	0.2188	0.2119	0	1	0.697	0	0	0
29	1	603	0	1	3	0.2188	0.2119	1	1	0.607	7	0	82
29	1	604	1	2	3	0.2188	0.2119	0	1	0.463	89	82	82
29	1	605	0	2	3	0.2188	0.2119	1	1	0.596	8	82	0
29	1	606	1	1	2	0.2188	0.2119	0	1	0.460	89	82	82
29	1	607	1	2	2	0.2188	0.2119	0	0	0.820	0	82	82
29	1	608	1	2	2	0.2188	0.2119	1	0	1.029	0	0	82
29	1	609	1	1	3	0.2188	0.2119	1	1	0.960	50	82	0
29	1	610	1	2	2	0.2188	0.2119	0	1	0.580	77	82	82
29	1	611	1	1	2	0.2188	0.2119	1	1	1.455	50	82	0
29	1	612	9	1	1	0.2188	0.2119	0	1	0.484	0	0	0
29	1	613	0	1	3	0.2188	0.2119	1	1	0.634	7	0	82
29	1	614	9	2	3	0.2188	0.2119	0	1	0.554	0	0	0
29	1	615	0	2	2	0.2188	0.2119	1	1	1.691	5	82	0
29	1	616	1	2	1	0.2188	0.2119	1	1	1.785	50	0	82
29	1	617	0	1	3	0.2188	0.2119	1	1	1.674	5	0	82
29	1	618	1	1	1	0.2188	0.2119	1	1	0.866	50	82	0
29	1	619	0	2	3	0.2188	0.2119	1	1	0.682	7	82	0
29	1	620	0	1	3	0.2188	0.2119	0	1	0.414	9	0	0
29	1	621	1	2	2	0.2188	0.2119	0	0	0.496	0	82	82
29	1	622	0	2	3	0.2188	0.2119	0	1	1.007	5	0	0
29	1	623	1	2	1	0.2188	0.2119	1	1	0.993	50	0	82
29	1	624	1	2	3	0.2188	0.2119	0	1	0.764	59	82	82
29	1	625	1	2	3	0.2188	0.2119	0	1	0.743	61	82	82
29	1	626	0	2	3	0.2188	0.2119	1	1	0.578	8	82	0
29	1	627	0	2	2	0.2188	0.2119	0	1	0.482	9	0	0
29	1	628	1	1	3	0.2188	0.2119	0	1	0.671	68	82	82
29	1	629	9	1	3	0.2188	0.2119	0	1	0.438	0	82	82
29	1	630	0	2	1	0.2188	0.2119	1	1	0.758	6	82	0
29	1	631	0	2	3	0.2188	0.2119	1	1	0.563	8	82	0
29	1	632	0	1	1	0.2188	0.2119	0	1	0.509	8	0	0
29	1	633	1	1	1	0.2188	0.2119	1	1	0.728	62	82	0
29	1	634	1	1	1	0.2188	0.2119	1	1	0.404	95	82	0
29	1	635	0	2	3	0.2188	0.2119	1	1	0.492	9	82	0
29	1	636	1	1	3	0.2188	0.2119	1	1	0.569	78	82	0
29	1	637	1	1	3	0.2188	0.2119	0	1	0.492	86	82	82
29	1	638	0	1	2	0.2188	0.2119	0	1	0.551	8	0	0
29	1	639	0	2	3	0.2188	0.2119	0	0	0.569	0	0	0
29	1	640	1	1	1	0.2188	0.2119	0	1	0.444	91	82	82
29	1	641	1	2	3	0.2188	0.2119	0	1	4.707	50	82	82
29	1	642	0	2	2	0.2188	0.2119	0	1	1.063	5	0	0
29	1	643	1	2	2	0.2188	0.2119	0	1	1.077	50	82	82
29	1	644	1	2	2	0.2188	0.2119	1	0	6.530	0	0	82
29	1	645	1	1	1	0.2188	0.2119	0	1	5.319	50	82	82
29	1	646	0	2	3	0.2188	0.2119	1	0	12.066	0	82	0
29	1	647	0	2	3	0.2188	0.2119	1	1	1.409	5	82	0
29	1	648	0	2	2	0.2188	0.2119	0	1	1.105	5	0	0
29	1	649	1	2	3	0.2188	0.2119	1	1	0.741	61	0	82
29	1	650	0	2	2	0.2188	0.2119	0	1	0.625	7	0	0
29	1	651	1	2	1	0.2188	0.2119	0	1	1.146	50	82	82
29	1	652	0	1	1	0.2188	0.2119	1	1	0.573	8	0	82
29	1	653	0	1	1	0.2188	0.2119	1	0	0.391	0	0	82
29	1	654	1	1	3	0.2188	0.2119	0	1	0.408	94	82	82
29	1	655	1	2	2	0.2188	0.2119	1	1	1.360	50	0	82
29	1	656	9	2	2	0.2188	0.2119	0	1	1.379	0	82	82
29	1	657	9	1	3	0.2188	0.2119	1	1	2.052	0	0	82
29	1	658	1	1	1	0.2188	0.2119	0	1	0.468	88	82	82
29	1	659	9	1	1	0.2188	0.2119	0	1	0.314	0	82	82
29	1	660	1	1	3	0.2188	0.2119	1	1	0.606	74	82	0
29	1	661	1	1	3	0.2188	0.2119	1	1	0.594	76	82	0
29	1	662	0	1	1	0.2188	0.2119	1	0	0.397	0	0	82
29	1	663	9	1	3	0.2188	0.2119	0	1	0.439	0	0	0
29	1	664	0	1	3	0.2188	0.2119	0	1	0.422	9	0	0
29	1	665	9	1	2	0.2188	0.2119	1	1	0.456	0	0	82
29	1	666	0	1	3	0.2188	0.2119	1	1	0.496	9	0	82
29	1	667	0	2	2	0.2188	0.2119	1	1	0.424	9	82	0
29	1	668	1	2	3	0.2188	0.2119	0	1	1.158	50	82	82
29	1	669	9	1	1	0.2188	0.2119	1	1	0.505	0	0	82
29	1	670	0	1	3	0.2188	0.2119	0	1	0.344	10	0	0
29	1	671	1	1	3	0.2188	0.2119	1	1	0.548	80	82	0
29	1	672	1	1	3	0.2188	0.2119	0	1	0.510	84	82	82
29	1	673	1	1	3	0.2188	0.2119	0	1	0.340	100	82	82
29	1	674	1	1	1	0.2188	0.2119	1	0	0.330	0	82	0
29	1	675	9	2	2	0.2188	0.2119	1	1	0.694	0	82	0
29	1	676	0	2	2	0.2188	0.2119	0	1	1.369	5	0	0
29	1	677	0	1	3	0.2188	0.2119	0	1	0.354	10	0	0
29	1	678	9	2	1	0.2188	0.2119	0	1	0.910	0	0	0
29	1	679	1	2	2	0.2188	0.2119	1	1	0.785	56	0	82
29	1	680	1	1	3	0.2188	0.2119	0	1	0.442	91	82	82
29	1	681	0	1	3	0.2188	0.2119	0	1	0.356	10	0	0
29	1	682	9	1	2	0.2188	0.2119	0	1	0.320	0	0	0
29	1	683	9	2	2	0.2188	0.2119	1	0	0.363	0	0	82
29	1	684	0	1	2	0.2188	0.2119	0	1	0.517	8	0	0
29	1	685	9	2	2	0.2188	0.2119	0	0	0.530	0	82	82
29	1	686	0	1	1	0.2188	0.2119	0	1	0.501	8	0	0
29	1	687	1	1	1	0.2188	0.2119	1	1	0.697	65	82	0
29	1	688	0	1	3	0.2188	0.2119	0	1	0.413	9	0	0
29	1	689	0	1	2	0.2188	0.2119	0	1	0.470	9	0	0
29	1	690	0	2	2	0.2188	0.2119	1	1	0.468	9	82	0
29	1	691	0	2	2	0.2188	0.2119	0	0	0.500	0	0	0
29	1	692	0	1	3	0.2188	0.2119	1	1	0.563	8	0	82
29	1	693	0	1	1	0.2188	0.2119	0	1	0.476	9	0	0
29	1	694	0	1	2	0.2188	0.2119	0	1	0.385	10	0	0
29	1	695	0	2	2	0.2188	0.2119	0	0	0.611	0	0	0
29	1	696	9	2	2	0.2188	0.2119	0	1	1.002	0	82	82
29	1	697	9	1	3	0.2188	0.2119	0	1	0.482	0	82	82
29	1	698	9	2	2	0.2188	0.2119	0	1	0.607	0	0	0
29	1	699	9	1	3	0.2188	0.2119	1	1	1.048	0	0	82
29	1	700	9	2	3	0.2188	0.2119	0	1	0.638	0	82	82
29	1	701	0	2	2	0.2188	0.2119	0	1	1.245	5	0	0
29	1	702	0	2	2	0.2188	0.2119	1	1	0.842	5	82	0
29	1	703	0	2	3	0.2188	0.2119	1	1	1.200	5	82	0
29	1	704	0	1	2	0.2188	0.2119	1	0	0.970	0	0	82
29	1	705	0	1	3	0.2188	0.2119	1	1	0.525	8	0	82
29	1	706	1	2	1	0.2188	0.2119	0	1	0.559	79	82	82
29	1	707	1	1	1	0.2188	0.2119	1	1	0.763	59	82	0
29	1	708	0	2	3	0.2188	0.2119	0	1	0.557	8	0	0
29	1	709	0	1	1	0.2188	0.2119	1	1	0.482	9	0	82
29	1	710	0	2	1	0.2188	0.2119	0	1	0.648	7	0	0
29	1	711	0	1	3	0.2188	0.2119	0	1	0.439	9	0	0
29	1	712	0	1	1	0.2188	0.2119	1	1	0.734	6	0	82
29	1	713	1	1	3	0.2188	0.2119	1	1	0.547	80	82	0
29	1	714	9	1	1	0.2188	0.2119	1	1	0.391	0	82	0
29	1	715	9	1	1	0.2188	0.2119	1	1	0.385	0	0	82
29	1	716	1	2	2	0.2188	0.2119	1	0	0.299	0	0	82
29	1	717	1	1	1	0.2188	0.2119	0	1	0.480	87	82	82
29	1	718	0	2	2	0.2188	0.2119	1	1	0.486	9	82	0
29	1	719	1	2	3	0.2188	0.2119	0	1	0.684	67	82	82
29	1	720	1	1	1	0.2188	0.2119	1	1	0.585	77	82	0
