sub	sess	t	rew	loc	cue	co1	co2	or	resp	rt	rew_tot	left_col	right_col
95	1	1	0	2	2	0.3336	0.1389	0	1	0.881	5	0	0
95	1	2	1	1	3	0.3336	0.1389	0	0	2.054	0	82	82
95	1	3	0	2	3	0.3336	0.1389	0	1	0.612	7	0	0
95	1	4	1	2	2	0.3336	0.1389	0	1	0.659	69	82	82
95	1	5	0	1	3	0.3336	0.1389	1	1	0.831	5	0	82
95	1	6	9	2	1	0.3336	0.1389	1	1	0.854	0	0	82
95	1	7	1	2	2	0.3336	0.1389	1	1	0.680	67	0	82
95	1	8	1	1	3	0.3336	0.1389	1	1	0.768	58	82	0
95	1	9	0	1	3	0.3336	0.1389	0	1	0.730	6	0	0
95	1	10	0	2	3	0.3336	0.1389	0	1	0.763	6	0	0
95	1	11	9	1	1	0.3336	0.1389	0	1	0.624	0	82	82
95	1	12	1	2	3	0.3336	0.1389	1	1	0.847	50	0	82
95	1	13	1	1	3	0.3336	0.1389	0	1	0.713	64	82	82
95	1	14	1	2	3	0.3336	0.1389	1	1	0.775	57	0	82
95	1	15	9	2	1	0.3336	0.1389	1	1	0.909	0	82	0
95	1	16	0	1	3	0.3336	0.1389	1	1	0.787	6	0	82
95	1	17	0	2	2	0.3336	0.1389	1	0	0.664	0	82	0
95	1	18	1	1	3	0.3336	0.1389	1	1	1.529	50	82	0
95	1	19	0	2	2	0.3336	0.1389	1	1	0.801	5	82	0
95	1	20	0	2	1	0.3336	0.1389	0	1	0.857	5	0	0
95	1	21	1	1	2	0.3336	0.1389	1	1	1.005	50	82	0
95	1	22	9	2	3	0.3336	0.1389	1	0	0.707	0	82	0
95	1	23	1	1	3	0.3336	0.1389	1	1	0.789	56	82	0
95	1	24	9	2	3	0.3336	0.1389	0	1	0.917	0	82	82
95	1	25	1	1	2	0.3336	0.1389	1	1	0.828	52	82	0
95	1	26	1	2	3	0.3336	0.1389	1	1	0.709	64	0	82
95	1	27	0	1	1	0.3336	0.1389	0	1	0.863	5	0	0
95	1	28	0	2	3	0.3336	0.1389	0	1	0.651	7	0	0
95	1	29	1	1	3	0.3336	0.1389	0	1	1.146	50	82	82
95	1	30	0	1	1	0.3336	0.1389	1	1	0.715	6	0	82
95	1	31	1	1	1	0.3336	0.1389	1	1	0.731	62	82	0
95	1	32	0	2	3	0.3336	0.1389	1	1	0.863	5	82	0
95	1	33	9	2	2	0.3336	0.1389	0	1	0.911	0	0	0
95	1	34	1	2	3	0.3336	0.1389	0	1	1.126	50	82	82
95	1	35	0	2	3	0.3336	0.1389	0	0	1.485	0	0	0
95	1	36	0	2	2	0.3336	0.1389	0	1	0.884	5	0	0
95	1	37	1	1	3	0.3336	0.1389	0	1	0.746	60	82	82
95	1	38	1	2	2	0.3336	0.1389	1	1	0.726	62	0	82
95	1	39	1	1	1	0.3336	0.1389	0	1	0.616	73	82	82
95	1	40	1	2	3	0.3336	0.1389	0	1	1.180	50	82	82
95	1	41	1	2	1	0.3336	0.1389	0	1	0.983	50	82	82
95	1	42	0	1	3	0.3336	0.1389	0	1	0.583	8	0	0
95	1	43	1	2	3	0.3336	0.1389	0	1	0.978	50	82	82
95	1	44	0	2	2	0.3336	0.1389	1	1	0.674	7	82	0
95	1	45	1	2	3	0.3336	0.1389	1	1	0.654	70	0	82
95	1	46	0	1	3	0.3336	0.1389	0	1	0.702	6	0	0
95	1	47	9	1	3	0.3336	0.1389	0	1	0.527	0	82	82
95	1	48	9	1	3	0.3336	0.1389	1	1	0.526	0	82	0
95	1	49	9	1	1	0.3336	0.1389	1	0	0.705	0	82	0
95	1	50	1	2	2	0.3336	0.1389	1	1	0.718	63	0	82
95	1	51	1	2	2	0.3336	0.1389	0	1	0.548	80	82	82
95	1	52	0	2	1	0.3336	0.1389	0	1	0.572	8	0	0
95	1	53	0	1	1	0.3336	0.1389	0	1	0.563	8	0	0
95	1	54	9	2	3	0.3336	0.1389	0	1	0.802	0	0	0
95	1	55	1	2	3	0.3336	0.1389	1	1	0.494	86	0	82
95	1	56	9	2	3	0.3336	0.1389	1	1	0.721	0	82	0
95	1	57	0	2	3	0.3336	0.1389	1	0	0.663	0	82	0
95	1	58	1	2	2	0.3336	0.1389	0	1	0.941	50	82	82
95	1	59	0	1	1	0.3336	0.1389	1	1	0.831	5	0	82
95	1	60	1	1	3	0.3336	0.1389	0	1	0.716	63	82	82
95	1	61	9	1	2	0.3336	0.1389	0	1	0.662	0	82	82
95	1	62	1	1	3	0.3336	0.1389	1	1	0.456	89	82	0
95	1	63	0	1	1	0.3336	0.1389	1	1	0.537	8	0	82
95	1	64	1	2	2	0.3336	0.1389	1	1	1.950	50	0	82
95	1	65	0	2	3	0.3336	0.1389	1	1	1.045	5	82	0
95	1	66	0	2	2	0.3336	0.1389	1	1	0.714	6	82	0
95	1	67	9	2	3	0.3336	0.1389	1	1	1.093	0	82	0
95	1	68	1	1	3	0.3336	0.1389	1	1	0.568	78	82	0
95	1	69	0	1	1	0.3336	0.1389	0	1	0.582	8	0	0
95	1	70	0	1	1	0.3336	0.1389	0	1	0.633	7	0	0
95	1	71	1	1	3	0.3336	0.1389	0	1	0.490	86	82	82
95	1	72	1	1	1	0.3336	0.1389	0	1	0.642	71	82	82
95	1	73	0	2	3	0.3336	0.1389	0	1	0.733	6	0	0
95	1	74	0	1	3	0.3336	0.1389	0	1	0.466	9	0	0
95	1	75	1	2	3	0.3336	0.1389	1	1	0.557	79	0	82
95	1	76	1	2	2	0.3336	0.1389	1	0	0.559	0	0	82
95	1	77	0	1	3	0.3336	0.1389	1	1	0.905	5	0	82
95	1	78	0	2	2	0.3336	0.1389	1	1	0.674	7	82	0
95	1	79	0	2	3	0.3336	0.1389	1	1	0.480	9	82	0
95	1	80	0	1	1	0.3336	0.1389	0	1	0.629	7	0	0
95	1	81	1	1	1	0.3336	0.1389	1	1	0.564	79	82	0
95	1	82	9	2	2	0.3336	0.1389	0	1	0.723	0	0	0
95	1	83	9	2	2	0.3336	0.1389	1	1	0.595	0	82	0
95	1	84	9	2	2	0.3336	0.1389	0	1	0.486	0	0	0
95	1	85	0	1	1	0.3336	0.1389	1	1	0.478	9	0	82
95	1	86	1	2	3	0.3336	0.1389	1	0	0.650	0	0	82
95	1	87	0	2	2	0.3336	0.1389	0	1	0.553	8	0	0
95	1	88	9	1	3	0.3336	0.1389	0	0	0.771	0	0	0
95	1	89	1	2	3	0.3336	0.1389	1	1	0.844	51	0	82
95	1	90	1	2	2	0.3336	0.1389	1	1	1.093	50	0	82
95	1	91	1	2	2	0.3336	0.1389	0	1	0.609	74	82	82
95	1	92	0	1	3	0.3336	0.1389	0	1	0.712	6	0	0
95	1	93	0	1	3	0.3336	0.1389	1	1	1.063	5	0	82
95	1	94	0	2	2	0.3336	0.1389	0	1	0.534	8	0	0
95	1	95	0	2	3	0.3336	0.1389	0	1	0.924	5	0	0
95	1	96	1	1	3	0.3336	0.1389	0	1	0.709	64	82	82
95	1	97	0	2	1	0.3336	0.1389	1	1	0.730	6	82	0
95	1	98	0	2	2	0.3336	0.1389	0	0	0.554	0	0	0
95	1	99	9	2	3	0.3336	0.1389	1	1	0.932	0	0	82
95	1	100	0	1	3	0.3336	0.1389	1	1	0.646	7	0	82
95	1	101	0	1	3	0.3336	0.1389	1	1	0.557	8	0	82
95	1	102	0	2	2	0.3336	0.1389	0	1	0.530	8	0	0
95	1	103	1	2	2	0.3336	0.1389	0	1	0.655	69	82	82
95	1	104	9	2	2	0.3336	0.1389	0	1	0.560	0	82	82
95	1	105	0	1	1	0.3336	0.1389	0	1	0.804	5	0	0
95	1	106	1	2	3	0.3336	0.1389	1	0	0.420	0	0	82
95	1	107	9	1	1	0.3336	0.1389	0	1	0.457	0	0	0
95	1	108	9	2	2	0.3336	0.1389	0	1	1.449	0	0	0
95	1	109	0	2	3	0.3336	0.1389	1	1	1.154	5	82	0
95	1	110	1	1	2	0.3336	0.1389	0	1	0.597	75	82	82
95	1	111	0	1	1	0.3336	0.1389	0	1	0.518	8	0	0
95	1	112	0	1	3	0.3336	0.1389	0	1	0.522	8	0	0
95	1	113	0	1	3	0.3336	0.1389	1	1	0.574	8	0	82
95	1	114	0	2	3	0.3336	0.1389	1	1	1.076	5	82	0
95	1	115	1	2	3	0.3336	0.1389	1	1	0.961	50	0	82
95	1	116	0	1	1	0.3336	0.1389	1	1	0.583	8	0	82
95	1	117	1	2	3	0.3336	0.1389	0	1	0.918	50	82	82
95	1	118	1	1	1	0.3336	0.1389	1	1	0.845	51	82	0
95	1	119	0	2	1	0.3336	0.1389	1	0	1.124	0	82	0
95	1	120	1	2	2	0.3336	0.1389	0	1	0.633	72	82	82
95	1	121	0	1	3	0.3336	0.1389	0	1	0.597	8	0	0
95	1	122	0	2	3	0.3336	0.1389	1	1	0.997	5	82	0
95	1	123	9	1	3	0.3336	0.1389	1	1	0.574	0	0	82
95	1	124	1	1	1	0.3336	0.1389	1	1	0.666	68	82	0
95	1	125	9	2	3	0.3336	0.1389	1	1	1.935	0	0	82
95	1	126	0	2	1	0.3336	0.1389	0	1	0.667	7	0	0
95	1	127	0	1	2	0.3336	0.1389	1	1	0.830	5	0	82
95	1	128	1	1	3	0.3336	0.1389	1	0	0.863	0	82	0
95	1	129	1	1	3	0.3336	0.1389	0	1	0.603	75	82	82
95	1	130	0	1	1	0.3336	0.1389	0	1	0.575	8	0	0
95	1	131	0	2	3	0.3336	0.1389	1	1	0.921	5	82	0
95	1	132	9	1	1	0.3336	0.1389	1	1	0.791	0	82	0
95	1	133	9	2	3	0.3336	0.1389	0	1	0.676	0	0	0
95	1	134	0	1	3	0.3336	0.1389	1	1	0.607	7	0	82
95	1	135	0	1	1	0.3336	0.1389	0	1	0.778	6	0	0
95	1	136	0	2	1	0.3336	0.1389	1	1	0.691	7	82	0
95	1	137	9	1	3	0.3336	0.1389	1	1	0.858	0	0	82
95	1	138	0	1	1	0.3336	0.1389	1	1	0.516	8	0	82
95	1	139	9	1	2	0.3336	0.1389	1	1	0.470	0	82	0
95	1	140	9	1	2	0.3336	0.1389	1	1	0.739	0	0	82
95	1	141	1	2	3	0.3336	0.1389	0	0	0.933	0	82	82
95	1	142	9	1	3	0.3336	0.1389	1	1	0.668	0	82	0
95	1	143	0	2	2	0.3336	0.1389	1	0	0.687	0	82	0
95	1	144	9	2	1	0.3336	0.1389	0	1	0.891	0	0	0
95	1	145	9	1	1	0.3336	0.1389	0	0	0.689	0	0	0
95	1	146	0	2	2	0.3336	0.1389	0	1	0.888	5	0	0
95	1	147	9	2	2	0.3336	0.1389	1	1	0.697	0	82	0
95	1	148	1	2	2	0.3336	0.1389	0	1	0.959	50	82	82
95	1	149	0	1	1	0.3336	0.1389	1	1	0.647	7	0	82
95	1	150	1	2	2	0.3336	0.1389	0	1	0.723	63	82	82
95	1	151	1	1	1	0.3336	0.1389	0	0	1.203	0	82	82
95	1	152	1	2	1	0.3336	0.1389	0	1	0.634	72	82	82
95	1	153	9	2	3	0.3336	0.1389	1	0	0.784	0	0	82
95	1	154	1	2	2	0.3336	0.1389	1	1	0.823	53	0	82
95	1	155	1	2	3	0.3336	0.1389	0	1	0.815	53	82	82
95	1	156	9	1	3	0.3336	0.1389	0	1	0.643	0	82	82
95	1	157	1	1	1	0.3336	0.1389	0	1	0.584	77	82	82
95	1	158	1	2	3	0.3336	0.1389	0	1	0.732	62	82	82
95	1	159	0	2	2	0.3336	0.1389	1	1	0.798	6	82	0
95	1	160	9	2	2	0.3336	0.1389	1	1	0.675	0	0	82
95	1	161	0	2	3	0.3336	0.1389	1	1	0.628	7	82	0
95	1	162	1	2	1	0.3336	0.1389	1	1	0.551	80	0	82
95	1	163	0	2	3	0.3336	0.1389	1	1	0.581	8	82	0
95	1	164	1	2	3	0.3336	0.1389	0	0	2.850	0	82	82
95	1	165	0	2	2	0.3336	0.1389	1	1	0.624	7	82	0
95	1	166	9	2	2	0.3336	0.1389	1	1	0.921	0	82	0
95	1	167	1	2	3	0.3336	0.1389	0	1	1.848	50	82	82
95	1	168	1	1	2	0.3336	0.1389	1	1	1.069	50	82	0
95	1	169	1	2	3	0.3336	0.1389	0	1	1.625	50	82	82
95	1	170	9	2	3	0.3336	0.1389	0	1	0.856	0	0	0
95	1	171	1	1	2	0.3336	0.1389	0	0	0.836	0	82	82
95	1	172	1	1	3	0.3336	0.1389	0	1	0.713	64	82	82
95	1	173	0	2	3	0.3336	0.1389	0	1	0.609	7	0	0
95	1	174	1	1	1	0.3336	0.1389	0	1	0.601	75	82	82
95	1	175	1	2	3	0.3336	0.1389	0	1	0.647	70	82	82
95	1	176	0	1	2	0.3336	0.1389	0	1	0.543	8	0	0
95	1	177	1	2	2	0.3336	0.1389	0	1	0.810	54	82	82
95	1	178	1	1	3	0.3336	0.1389	0	1	0.694	66	82	82
95	1	179	0	1	2	0.3336	0.1389	0	1	0.736	6	0	0
95	1	180	9	1	2	0.3336	0.1389	0	1	0.527	0	0	0
95	1	181	9	1	3	0.3336	0.1389	0	1	0.494	0	0	0
95	1	182	0	1	3	0.3336	0.1389	0	1	0.584	8	0	0
95	1	183	0	2	2	0.3336	0.1389	1	1	0.732	6	82	0
95	1	184	9	1	3	0.3336	0.1389	1	0	0.644	0	0	82
95	1	185	0	2	3	0.3336	0.1389	0	1	1.193	5	0	0
95	1	186	1	1	2	0.3336	0.1389	0	1	0.842	51	82	82
95	1	187	0	2	2	0.3336	0.1389	0	0	0.939	0	0	0
95	1	188	1	1	3	0.3336	0.1389	1	0	0.772	0	82	0
95	1	189	9	2	3	0.3336	0.1389	0	0	1.133	0	82	82
95	1	190	1	2	2	0.3336	0.1389	0	1	0.720	63	82	82
95	1	191	1	2	3	0.3336	0.1389	1	1	1.141	50	0	82
95	1	192	0	2	1	0.3336	0.1389	1	1	1.353	5	82	0
95	1	193	0	1	1	0.3336	0.1389	0	1	0.805	5	0	0
95	1	194	0	1	3	0.3336	0.1389	1	1	0.656	7	0	82
95	1	195	1	1	1	0.3336	0.1389	0	1	0.629	72	82	82
95	1	196	1	1	3	0.3336	0.1389	1	1	1.708	50	82	0
95	1	197	1	1	3	0.3336	0.1389	1	0	0.616	0	82	0
95	1	198	0	2	3	0.3336	0.1389	1	1	1.506	5	82	0
95	1	199	1	1	3	0.3336	0.1389	1	1	0.890	50	82	0
95	1	200	1	2	1	0.3336	0.1389	0	1	0.853	50	82	82
95	1	201	1	1	1	0.3336	0.1389	1	1	0.741	61	82	0
95	1	202	1	1	1	0.3336	0.1389	1	1	0.798	55	82	0
95	1	203	9	1	3	0.3336	0.1389	1	1	0.975	0	82	0
95	1	204	1	1	1	0.3336	0.1389	1	1	0.655	70	82	0
95	1	205	9	2	1	0.3336	0.1389	0	1	0.603	0	82	82
95	1	206	1	1	1	0.3336	0.1389	0	1	0.671	68	82	82
95	1	207	0	2	2	0.3336	0.1389	1	1	0.739	6	82	0
95	1	208	1	1	3	0.3336	0.1389	1	1	1.264	50	82	0
95	1	209	1	2	3	0.3336	0.1389	0	1	0.687	66	82	82
95	1	210	0	1	3	0.3336	0.1389	0	1	0.499	9	0	0
95	1	211	9	2	3	0.3336	0.1389	1	0	0.403	0	82	0
95	1	212	0	2	2	0.3336	0.1389	1	1	0.481	9	82	0
95	1	213	0	1	2	0.3336	0.1389	1	1	0.793	6	0	82
95	1	214	1	1	3	0.3336	0.1389	0	1	0.547	80	82	82
95	1	215	1	1	1	0.3336	0.1389	0	0	0.663	0	82	82
95	1	216	0	2	2	0.3336	0.1389	0	1	0.448	9	0	0
95	1	217	0	2	2	0.3336	0.1389	0	1	0.646	7	0	0
95	1	218	1	2	2	0.3336	0.1389	0	1	0.630	72	82	82
95	1	219	0	1	1	0.3336	0.1389	1	1	0.559	8	0	82
95	1	220	1	2	2	0.3336	0.1389	1	0	0.671	0	0	82
95	1	221	0	2	3	0.3336	0.1389	0	1	0.791	6	0	0
95	1	222	0	1	1	0.3336	0.1389	0	1	0.851	5	0	0
95	1	223	9	1	1	0.3336	0.1389	0	1	0.485	0	82	82
95	1	224	1	2	3	0.3336	0.1389	0	0	0.702	0	82	82
95	1	225	1	1	1	0.3336	0.1389	0	1	0.899	50	82	82
95	1	226	9	2	2	0.3336	0.1389	1	1	0.565	0	0	82
95	1	227	1	1	3	0.3336	0.1389	1	0	0.952	0	82	0
95	1	228	0	1	2	0.3336	0.1389	0	0	1.844	0	0	0
95	1	229	1	1	3	0.3336	0.1389	1	1	0.761	59	82	0
95	1	230	1	2	1	0.3336	0.1389	1	1	1.154	50	0	82
95	1	231	0	1	3	0.3336	0.1389	1	1	0.796	6	0	82
95	1	232	1	2	2	0.3336	0.1389	0	1	0.786	56	82	82
95	1	233	9	2	2	0.3336	0.1389	0	1	0.721	0	82	82
95	1	234	0	1	3	0.3336	0.1389	1	1	1.059	5	0	82
95	1	235	9	1	3	0.3336	0.1389	1	1	1.168	0	0	82
95	1	236	0	1	3	0.3336	0.1389	0	1	0.807	5	0	0
95	1	237	9	2	3	0.3336	0.1389	0	1	0.756	0	0	0
95	1	238	9	2	3	0.3336	0.1389	0	1	0.990	0	82	82
95	1	239	1	1	1	0.3336	0.1389	0	1	2.143	50	82	82
95	1	240	1	2	2	0.3336	0.1389	1	1	0.680	67	0	82
95	1	241	1	2	3	0.3336	0.1389	1	1	1.197	50	0	82
95	1	242	1	1	3	0.3336	0.1389	0	1	0.604	75	82	82
95	1	243	1	1	1	0.3336	0.1389	1	1	0.581	77	82	0
95	1	244	0	1	3	0.3336	0.1389	1	1	0.653	7	0	82
95	1	245	0	1	2	0.3336	0.1389	1	1	0.442	9	0	82
95	1	246	9	1	3	0.3336	0.1389	0	1	0.527	0	0	0
95	1	247	0	1	3	0.3336	0.1389	1	1	0.796	6	0	82
95	1	248	1	2	2	0.3336	0.1389	1	0	0.507	0	0	82
95	1	249	0	2	3	0.3336	0.1389	0	1	0.830	5	0	0
95	1	250	1	2	2	0.3336	0.1389	1	1	1.070	50	0	82
95	1	251	0	2	2	0.3336	0.1389	1	1	0.865	5	82	0
95	1	252	0	2	2	0.3336	0.1389	0	1	0.543	8	0	0
95	1	253	0	1	1	0.3336	0.1389	1	1	0.849	5	0	82
95	1	254	0	1	3	0.3336	0.1389	0	1	0.601	7	0	0
95	1	255	1	2	2	0.3336	0.1389	1	1	1.956	50	0	82
95	1	256	0	2	2	0.3336	0.1389	1	1	0.646	7	82	0
95	1	257	0	1	3	0.3336	0.1389	1	1	0.568	8	0	82
95	1	258	0	2	3	0.3336	0.1389	1	1	0.898	5	82	0
95	1	259	0	1	1	0.3336	0.1389	0	1	1.059	5	0	0
95	1	260	0	2	3	0.3336	0.1389	1	1	4.334	5	82	0
95	1	261	1	1	3	0.3336	0.1389	1	1	0.805	55	82	0
95	1	262	9	1	1	0.3336	0.1389	1	1	0.527	0	0	82
95	1	263	1	2	3	0.3336	0.1389	1	1	0.705	65	0	82
95	1	264	9	1	3	0.3336	0.1389	0	1	0.722	0	0	0
95	1	265	1	1	1	0.3336	0.1389	0	0	0.735	0	82	82
95	1	266	1	1	2	0.3336	0.1389	0	1	0.704	65	82	82
95	1	267	1	1	1	0.3336	0.1389	1	0	0.631	0	82	0
95	1	268	0	1	3	0.3336	0.1389	0	1	0.592	8	0	0
95	1	269	1	2	3	0.3336	0.1389	1	1	1.122	50	0	82
95	1	270	9	1	1	0.3336	0.1389	0	1	0.925	0	0	0
95	1	271	0	2	2	0.3336	0.1389	0	1	0.656	7	0	0
95	1	272	1	1	2	0.3336	0.1389	1	1	0.566	78	82	0
95	1	273	9	1	1	0.3336	0.1389	1	1	0.504	0	82	0
95	1	274	0	2	3	0.3336	0.1389	0	1	0.721	6	0	0
95	1	275	1	1	3	0.3336	0.1389	0	1	0.687	66	82	82
95	1	276	9	2	2	0.3336	0.1389	1	1	0.735	0	82	0
95	1	277	0	2	2	0.3336	0.1389	0	1	0.694	7	0	0
95	1	278	0	1	2	0.3336	0.1389	0	1	0.781	6	0	0
95	1	279	1	2	2	0.3336	0.1389	1	1	1.796	50	0	82
95	1	280	1	1	1	0.3336	0.1389	1	1	0.607	74	82	0
95	1	281	1	1	1	0.3336	0.1389	0	1	0.777	57	82	82
95	1	282	0	2	2	0.3336	0.1389	0	1	0.660	7	0	0
95	1	283	1	1	3	0.3336	0.1389	1	1	0.786	56	82	0
95	1	284	9	1	1	0.3336	0.1389	1	1	0.666	0	82	0
95	1	285	0	1	3	0.3336	0.1389	1	1	0.554	8	0	82
95	1	286	1	2	2	0.3336	0.1389	0	1	0.608	74	82	82
95	1	287	9	1	1	0.3336	0.1389	1	1	0.662	0	0	82
95	1	288	1	1	3	0.3336	0.1389	1	1	0.855	50	82	0
95	1	289	1	2	2	0.3336	0.1389	1	0	2.290	0	0	82
95	1	290	1	2	2	0.3336	0.1389	0	1	0.694	66	82	82
95	1	291	9	1	3	0.3336	0.1389	0	1	0.790	0	82	82
95	1	292	0	1	2	0.3336	0.1389	1	1	0.637	7	0	82
95	1	293	1	2	3	0.3336	0.1389	1	0	0.905	0	0	82
95	1	294	0	1	1	0.3336	0.1389	1	1	1.199	5	0	82
95	1	295	0	2	3	0.3336	0.1389	0	1	0.675	7	0	0
95	1	296	1	1	1	0.3336	0.1389	0	1	0.618	73	82	82
95	1	297	0	1	1	0.3336	0.1389	1	1	0.855	5	0	82
95	1	298	0	2	2	0.3336	0.1389	0	1	0.635	7	0	0
95	1	299	9	2	3	0.3336	0.1389	0	1	0.614	0	82	82
95	1	300	0	2	3	0.3336	0.1389	0	1	0.624	7	0	0
95	1	301	0	2	3	0.3336	0.1389	1	1	0.839	5	82	0
95	1	302	0	2	3	0.3336	0.1389	0	1	0.622	7	0	0
95	1	303	0	2	3	0.3336	0.1389	1	1	0.693	7	82	0
95	1	304	0	1	3	0.3336	0.1389	0	1	0.672	7	0	0
95	1	305	1	1	1	0.3336	0.1389	1	1	0.685	67	82	0
95	1	306	1	1	1	0.3336	0.1389	1	1	0.832	52	82	0
95	1	307	1	1	1	0.3336	0.1389	1	1	0.622	73	82	0
95	1	308	0	1	1	0.3336	0.1389	1	1	0.950	5	0	82
95	1	309	1	2	1	0.3336	0.1389	1	1	2.476	50	0	82
95	1	310	9	2	2	0.3336	0.1389	1	1	0.625	0	0	82
95	1	311	1	1	3	0.3336	0.1389	0	1	0.857	50	82	82
95	1	312	1	1	1	0.3336	0.1389	1	1	0.874	50	82	0
95	1	313	9	2	2	0.3336	0.1389	1	1	0.614	0	0	82
95	1	314	9	2	2	0.3336	0.1389	0	1	0.695	0	82	82
95	1	315	9	1	1	0.3336	0.1389	1	1	1.552	0	0	82
95	1	316	0	2	3	0.3336	0.1389	0	0	0.929	0	0	0
95	1	317	9	1	1	0.3336	0.1389	0	1	0.589	0	82	82
95	1	318	0	1	1	0.3336	0.1389	1	1	0.660	7	0	82
95	1	319	1	2	2	0.3336	0.1389	0	1	0.782	57	82	82
95	1	320	0	2	1	0.3336	0.1389	0	1	0.600	7	0	0
95	1	321	0	1	1	0.3336	0.1389	0	1	0.641	7	0	0
95	1	322	1	2	1	0.3336	0.1389	1	1	0.638	71	0	82
95	1	323	1	1	1	0.3336	0.1389	1	1	0.765	58	82	0
95	1	324	0	1	1	0.3336	0.1389	1	1	0.893	5	0	82
95	1	325	0	2	3	0.3336	0.1389	1	1	1.216	5	82	0
95	1	326	0	2	2	0.3336	0.1389	0	1	0.830	5	0	0
95	1	327	1	2	3	0.3336	0.1389	0	0	0.801	0	82	82
95	1	328	1	2	1	0.3336	0.1389	0	1	0.981	50	82	82
95	1	329	0	1	3	0.3336	0.1389	0	1	0.802	5	0	0
95	1	330	0	1	1	0.3336	0.1389	1	1	0.845	5	0	82
95	1	331	1	2	2	0.3336	0.1389	0	1	0.775	58	82	82
95	1	332	9	1	3	0.3336	0.1389	1	1	0.806	0	82	0
95	1	333	9	2	3	0.3336	0.1389	1	1	0.974	0	0	82
95	1	334	0	2	2	0.3336	0.1389	1	1	0.690	7	82	0
95	1	335	0	2	2	0.3336	0.1389	1	1	0.687	7	82	0
95	1	336	0	1	1	0.3336	0.1389	0	1	0.653	7	0	0
95	1	337	0	1	1	0.3336	0.1389	1	1	0.916	5	0	82
95	1	338	1	1	1	0.3336	0.1389	0	1	0.478	87	82	82
95	1	339	0	1	3	0.3336	0.1389	1	1	0.847	5	0	82
95	1	340	1	1	1	0.3336	0.1389	1	1	0.569	78	82	0
95	1	341	1	2	2	0.3336	0.1389	1	1	0.711	64	0	82
95	1	342	0	1	1	0.3336	0.1389	0	1	0.522	8	0	0
95	1	343	0	1	1	0.3336	0.1389	0	1	0.687	7	0	0
95	1	344	9	1	3	0.3336	0.1389	0	1	0.578	0	82	82
95	1	345	1	1	1	0.3336	0.1389	0	1	0.493	86	82	82
95	1	346	9	2	2	0.3336	0.1389	0	0	0.505	0	82	82
95	1	347	1	2	3	0.3336	0.1389	1	1	0.608	74	0	82
95	1	348	1	1	3	0.3336	0.1389	0	1	0.557	79	82	82
95	1	349	1	2	3	0.3336	0.1389	0	0	0.635	0	82	82
95	1	350	9	1	1	0.3336	0.1389	0	0	0.716	0	0	0
95	1	351	1	2	3	0.3336	0.1389	0	1	0.643	71	82	82
95	1	352	1	1	3	0.3336	0.1389	0	1	0.868	50	82	82
95	1	353	0	1	3	0.3336	0.1389	0	1	0.982	5	0	0
95	1	354	9	1	1	0.3336	0.1389	0	1	0.635	0	82	82
95	1	355	1	2	2	0.3336	0.1389	1	1	0.575	77	0	82
95	1	356	1	1	1	0.3336	0.1389	0	1	0.585	77	82	82
95	1	357	0	1	3	0.3336	0.1389	0	1	0.541	8	0	0
95	1	358	0	2	2	0.3336	0.1389	1	0	0.683	0	82	0
95	1	359	9	1	1	0.3336	0.1389	1	1	0.508	0	0	82
95	1	360	0	2	3	0.3336	0.1389	0	1	0.801	5	0	0
95	1	361	0	1	3	0.3336	0.1389	1	1	0.635	7	0	82
95	1	362	1	2	2	0.3336	0.1389	0	1	0.575	78	82	82
95	1	363	0	2	2	0.3336	0.1389	1	1	0.677	7	82	0
95	1	364	1	1	1	0.3336	0.1389	0	1	0.904	50	82	82
95	1	365	0	2	2	0.3336	0.1389	1	1	0.626	7	82	0
95	1	366	1	1	1	0.3336	0.1389	1	0	0.731	0	82	0
95	1	367	0	2	3	0.3336	0.1389	1	1	0.779	6	82	0
95	1	368	0	2	3	0.3336	0.1389	0	1	1.465	5	0	0
95	1	369	1	2	2	0.3336	0.1389	0	1	0.580	77	82	82
95	1	370	9	2	3	0.3336	0.1389	0	1	0.439	0	82	82
95	1	371	9	2	3	0.3336	0.1389	1	1	0.740	0	82	0
95	1	372	1	1	1	0.3336	0.1389	1	1	1.215	50	82	0
95	1	373	1	1	3	0.3336	0.1389	1	1	0.723	63	82	0
95	1	374	9	1	2	0.3336	0.1389	1	1	0.519	0	82	0
95	1	375	1	2	3	0.3336	0.1389	1	1	0.979	50	0	82
95	1	376	1	1	3	0.3336	0.1389	0	1	0.806	54	82	82
95	1	377	1	1	3	0.3336	0.1389	0	1	0.578	77	82	82
95	1	378	1	1	3	0.3336	0.1389	0	1	0.625	72	82	82
95	1	379	0	2	2	0.3336	0.1389	0	1	0.561	8	0	0
95	1	380	9	2	3	0.3336	0.1389	0	1	0.695	0	82	82
95	1	381	1	2	2	0.3336	0.1389	0	1	0.697	65	82	82
95	1	382	1	2	3	0.3336	0.1389	1	1	0.588	76	0	82
95	1	383	0	2	1	0.3336	0.1389	0	1	0.762	6	0	0
95	1	384	9	1	3	0.3336	0.1389	0	1	0.865	0	0	0
95	1	385	0	1	3	0.3336	0.1389	1	1	0.676	7	0	82
95	1	386	0	2	3	0.3336	0.1389	1	0	1.054	0	82	0
95	1	387	0	2	3	0.3336	0.1389	0	1	0.712	6	0	0
95	1	388	9	1	3	0.3336	0.1389	0	1	0.695	0	82	82
95	1	389	0	2	2	0.3336	0.1389	0	1	0.713	6	0	0
95	1	390	0	1	2	0.3336	0.1389	0	1	0.648	7	0	0
95	1	391	0	2	3	0.3336	0.1389	1	0	1.128	0	82	0
95	1	392	1	2	3	0.3336	0.1389	0	1	0.693	66	82	82
95	1	393	0	1	1	0.3336	0.1389	1	1	0.739	6	0	82
95	1	394	0	2	3	0.3336	0.1389	0	1	0.749	6	0	0
95	1	395	0	1	3	0.3336	0.1389	1	1	0.604	7	0	82
95	1	396	0	1	1	0.3336	0.1389	0	1	0.753	6	0	0
95	1	397	1	1	1	0.3336	0.1389	0	1	0.515	84	82	82
95	1	398	1	2	3	0.3336	0.1389	0	1	0.764	59	82	82
95	1	399	1	1	1	0.3336	0.1389	0	1	0.596	75	82	82
95	1	400	1	1	3	0.3336	0.1389	1	1	0.575	78	82	0
95	1	401	0	2	2	0.3336	0.1389	0	1	0.666	7	0	0
95	1	402	0	1	2	0.3336	0.1389	1	1	0.614	7	0	82
95	1	403	1	2	2	0.3336	0.1389	0	1	0.573	78	82	82
95	1	404	0	2	3	0.3336	0.1389	0	1	0.577	8	0	0
95	1	405	0	1	1	0.3336	0.1389	1	1	0.353	10	0	82
95	1	406	0	1	2	0.3336	0.1389	1	1	0.513	8	0	82
95	1	407	0	1	1	0.3336	0.1389	0	1	0.494	9	0	0
95	1	408	1	1	3	0.3336	0.1389	1	1	0.582	77	82	0
95	1	409	9	1	1	0.3336	0.1389	0	1	0.514	0	82	82
95	1	410	1	2	2	0.3336	0.1389	1	1	0.724	63	0	82
95	1	411	9	1	1	0.3336	0.1389	1	1	0.585	0	0	82
95	1	412	1	1	2	0.3336	0.1389	1	1	0.468	88	82	0
95	1	413	9	2	3	0.3336	0.1389	0	1	0.604	0	82	82
95	1	414	0	1	1	0.3336	0.1389	0	1	0.539	8	0	0
95	1	415	1	1	3	0.3336	0.1389	0	1	0.470	88	82	82
95	1	416	1	2	2	0.3336	0.1389	1	0	0.548	0	0	82
95	1	417	0	2	3	0.3336	0.1389	1	0	0.638	0	82	0
95	1	418	9	2	1	0.3336	0.1389	0	1	0.525	0	0	0
95	1	419	0	1	3	0.3336	0.1389	0	1	0.953	5	0	0
95	1	420	1	2	2	0.3336	0.1389	1	0	0.840	0	0	82
95	1	421	0	1	2	0.3336	0.1389	1	1	0.642	7	0	82
95	1	422	9	2	2	0.3336	0.1389	0	1	0.627	0	0	0
95	1	423	1	2	3	0.3336	0.1389	1	1	0.729	62	0	82
95	1	424	9	1	1	0.3336	0.1389	1	1	0.658	0	0	82
95	1	425	9	1	3	0.3336	0.1389	0	1	0.489	0	82	82
95	1	426	1	2	3	0.3336	0.1389	0	0	1.536	0	82	82
95	1	427	1	2	2	0.3336	0.1389	0	1	0.709	64	82	82
95	1	428	1	2	2	0.3336	0.1389	0	1	0.601	75	82	82
95	1	429	9	1	1	0.3336	0.1389	0	1	0.635	0	0	0
95	1	430	1	2	1	0.3336	0.1389	0	1	0.767	58	82	82
95	1	431	0	2	2	0.3336	0.1389	0	1	0.451	9	0	0
95	1	432	1	1	1	0.3336	0.1389	0	1	0.584	77	82	82
95	1	433	9	1	1	0.3336	0.1389	1	1	0.703	0	82	0
95	1	434	9	2	2	0.3336	0.1389	0	1	0.576	0	0	0
95	1	435	0	2	3	0.3336	0.1389	0	1	0.609	7	0	0
95	1	436	0	2	2	0.3336	0.1389	1	0	1.078	0	82	0
95	1	437	0	2	1	0.3336	0.1389	1	0	0.602	0	82	0
95	1	438	1	2	2	0.3336	0.1389	1	1	1.159	50	0	82
95	1	439	1	2	2	0.3336	0.1389	0	0	1.336	0	82	82
95	1	440	9	1	3	0.3336	0.1389	0	1	1.054	0	0	0
95	1	441	1	1	1	0.3336	0.1389	1	1	0.594	76	82	0
95	1	442	1	2	3	0.3336	0.1389	0	1	0.931	50	82	82
95	1	443	0	2	3	0.3336	0.1389	1	1	1.635	5	82	0
95	1	444	9	1	3	0.3336	0.1389	1	1	0.570	0	0	82
95	1	445	0	2	3	0.3336	0.1389	0	1	0.578	8	0	0
95	1	446	9	1	3	0.3336	0.1389	1	1	0.591	0	0	82
95	1	447	1	2	2	0.3336	0.1389	0	1	0.527	82	82	82
95	1	448	0	2	3	0.3336	0.1389	0	1	0.617	7	0	0
95	1	449	0	1	3	0.3336	0.1389	1	1	0.626	7	0	82
95	1	450	0	1	3	0.3336	0.1389	0	1	1.568	5	0	0
95	1	451	1	1	3	0.3336	0.1389	1	1	0.512	84	82	0
95	1	452	1	2	2	0.3336	0.1389	1	1	0.865	50	0	82
95	1	453	9	1	1	0.3336	0.1389	0	1	0.683	0	0	0
95	1	454	0	1	3	0.3336	0.1389	0	1	0.657	7	0	0
95	1	455	1	1	3	0.3336	0.1389	0	1	0.683	67	82	82
95	1	456	0	2	3	0.3336	0.1389	1	1	0.776	6	82	0
95	1	457	1	1	3	0.3336	0.1389	1	1	0.504	85	82	0
95	1	458	0	1	1	0.3336	0.1389	0	1	0.470	9	0	0
95	1	459	9	2	3	0.3336	0.1389	1	1	0.863	0	82	0
95	1	460	0	1	3	0.3336	0.1389	1	1	1.174	5	0	82
95	1	461	9	1	3	0.3336	0.1389	0	1	0.759	0	0	0
95	1	462	9	1	1	0.3336	0.1389	0	1	0.549	0	82	82
95	1	463	9	2	3	0.3336	0.1389	0	1	0.568	0	0	0
95	1	464	0	1	3	0.3336	0.1389	0	1	0.489	9	0	0
95	1	465	1	1	2	0.3336	0.1389	0	1	0.521	83	82	82
95	1	466	0	2	1	0.3336	0.1389	0	1	0.719	6	0	0
95	1	467	0	2	3	0.3336	0.1389	1	1	0.743	6	82	0
95	1	468	0	2	1	0.3336	0.1389	1	1	0.580	8	82	0
95	1	469	1	1	2	0.3336	0.1389	0	1	0.579	77	82	82
95	1	470	0	2	2	0.3336	0.1389	1	1	0.549	8	82	0
95	1	471	1	2	2	0.3336	0.1389	1	1	0.559	79	0	82
95	1	472	0	2	2	0.3336	0.1389	0	0	0.718	0	0	0
95	1	473	9	1	1	0.3336	0.1389	1	1	1.734	0	82	0
95	1	474	1	2	3	0.3336	0.1389	1	1	0.636	71	0	82
95	1	475	0	1	1	0.3336	0.1389	1	1	0.996	5	0	82
95	1	476	0	1	1	0.3336	0.1389	1	1	0.524	8	0	82
95	1	477	9	1	3	0.3336	0.1389	1	1	0.525	0	82	0
95	1	478	9	1	3	0.3336	0.1389	0	1	0.602	0	82	82
95	1	479	0	1	3	0.3336	0.1389	0	1	0.534	8	0	0
95	1	480	1	1	3	0.3336	0.1389	0	1	0.528	82	82	82
95	1	481	0	1	1	0.3336	0.1389	1	1	0.458	9	0	82
95	1	482	9	1	3	0.3336	0.1389	1	1	0.563	0	82	0
95	1	483	1	2	2	0.3336	0.1389	1	1	1.630	50	0	82
95	1	484	1	1	2	0.3336	0.1389	0	1	0.682	67	82	82
95	1	485	1	2	3	0.3336	0.1389	1	1	0.803	55	0	82
95	1	486	1	1	3	0.3336	0.1389	0	1	0.478	87	82	82
95	1	487	1	1	1	0.3336	0.1389	1	1	0.911	50	82	0
95	1	488	0	2	3	0.3336	0.1389	1	1	0.922	5	82	0
95	1	489	9	1	3	0.3336	0.1389	0	1	0.642	0	0	0
95	1	490	0	1	1	0.3336	0.1389	0	1	0.544	8	0	0
95	1	491	0	1	3	0.3336	0.1389	1	1	0.536	8	0	82
95	1	492	0	1	2	0.3336	0.1389	0	1	0.587	8	0	0
95	1	493	0	1	1	0.3336	0.1389	0	1	0.449	9	0	0
95	1	494	1	1	1	0.3336	0.1389	1	1	0.498	85	82	0
95	1	495	9	2	1	0.3336	0.1389	1	1	1.074	0	82	0
95	1	496	0	2	2	0.3336	0.1389	1	1	0.619	7	82	0
95	1	497	1	1	3	0.3336	0.1389	1	1	0.544	81	82	0
95	1	498	9	1	3	0.3336	0.1389	1	1	0.750	0	0	82
95	1	499	1	2	3	0.3336	0.1389	1	1	0.846	50	0	82
95	1	500	1	1	3	0.3336	0.1389	0	1	0.685	66	82	82
95	1	501	0	2	3	0.3336	0.1389	0	1	0.854	5	0	0
95	1	502	1	1	1	0.3336	0.1389	0	1	0.467	88	82	82
95	1	503	0	1	3	0.3336	0.1389	1	1	0.490	9	0	82
95	1	504	1	1	3	0.3336	0.1389	0	1	1.099	50	82	82
95	1	505	0	2	3	0.3336	0.1389	1	1	0.657	7	82	0
95	1	506	1	2	2	0.3336	0.1389	0	1	0.494	86	82	82
95	1	507	1	1	1	0.3336	0.1389	1	1	0.479	87	82	0
95	1	508	9	2	2	0.3336	0.1389	0	1	0.590	0	0	0
95	1	509	9	2	2	0.3336	0.1389	1	1	0.636	0	0	82
95	1	510	1	1	3	0.3336	0.1389	0	1	0.551	80	82	82
95	1	511	1	1	3	0.3336	0.1389	1	1	0.791	56	82	0
95	1	512	0	1	1	0.3336	0.1389	1	1	0.473	9	0	82
95	1	513	0	2	3	0.3336	0.1389	0	1	0.663	7	0	0
95	1	514	9	2	3	0.3336	0.1389	1	1	0.813	0	82	0
95	1	515	0	1	1	0.3336	0.1389	1	1	0.711	6	0	82
95	1	516	0	2	2	0.3336	0.1389	0	1	0.527	8	0	0
95	1	517	1	1	1	0.3336	0.1389	1	1	0.972	50	82	0
95	1	518	0	1	3	0.3336	0.1389	0	1	0.695	7	0	0
95	1	519	1	1	3	0.3336	0.1389	0	1	0.626	72	82	82
95	1	520	0	1	1	0.3336	0.1389	1	1	0.455	9	0	82
95	1	521	0	2	3	0.3336	0.1389	1	1	0.576	8	82	0
95	1	522	1	2	1	0.3336	0.1389	1	1	0.478	87	0	82
95	1	523	0	2	2	0.3336	0.1389	1	1	0.574	8	82	0
95	1	524	1	2	2	0.3336	0.1389	1	1	0.465	89	0	82
95	1	525	1	1	3	0.3336	0.1389	1	0	0.541	0	82	0
95	1	526	0	2	1	0.3336	0.1389	0	1	0.650	7	0	0
95	1	527	1	2	3	0.3336	0.1389	0	1	0.828	52	82	82
95	1	528	0	2	3	0.3336	0.1389	1	1	1.361	5	82	0
95	1	529	1	2	2	0.3336	0.1389	1	0	0.777	0	0	82
95	1	530	0	2	2	0.3336	0.1389	0	1	0.823	5	0	0
95	1	531	1	2	3	0.3336	0.1389	1	1	0.766	58	0	82
95	1	532	0	2	2	0.3336	0.1389	0	1	0.513	8	0	0
95	1	533	1	1	3	0.3336	0.1389	0	1	0.894	50	82	82
95	1	534	1	1	1	0.3336	0.1389	1	1	0.550	80	82	0
95	1	535	0	1	3	0.3336	0.1389	1	1	0.699	7	0	82
95	1	536	0	2	3	0.3336	0.1389	1	1	0.867	5	82	0
95	1	537	0	2	3	0.3336	0.1389	1	1	0.918	5	82	0
95	1	538	9	1	2	0.3336	0.1389	0	1	0.825	0	0	0
95	1	539	9	2	2	0.3336	0.1389	0	1	0.620	0	82	82
95	1	540	0	2	2	0.3336	0.1389	0	1	0.779	6	0	0
95	1	541	9	2	2	0.3336	0.1389	1	1	3.558	0	0	82
95	1	542	1	1	3	0.3336	0.1389	1	1	0.625	73	82	0
95	1	543	1	1	1	0.3336	0.1389	1	1	0.558	79	82	0
95	1	544	1	1	2	0.3336	0.1389	1	1	0.520	83	82	0
95	1	545	9	2	2	0.3336	0.1389	0	1	1.067	0	82	82
95	1	546	0	2	2	0.3336	0.1389	1	1	0.745	6	82	0
95	1	547	9	1	1	0.3336	0.1389	0	1	0.634	0	0	0
95	1	548	1	2	2	0.3336	0.1389	1	1	0.895	50	0	82
95	1	549	1	2	3	0.3336	0.1389	0	1	0.659	69	82	82
95	1	550	9	2	3	0.3336	0.1389	1	1	0.619	0	0	82
95	1	551	1	2	2	0.3336	0.1389	1	1	1.437	50	0	82
95	1	552	1	1	1	0.3336	0.1389	0	1	0.831	52	82	82
95	1	553	9	2	2	0.3336	0.1389	1	1	0.551	0	82	0
95	1	554	0	1	1	0.3336	0.1389	0	1	0.697	7	0	0
95	1	555	0	2	2	0.3336	0.1389	1	1	0.723	6	82	0
95	1	556	1	2	3	0.3336	0.1389	1	1	0.600	75	0	82
95	1	557	9	2	2	0.3336	0.1389	0	1	0.569	0	82	82
95	1	558	0	2	2	0.3336	0.1389	1	1	0.751	6	82	0
95	1	559	0	2	2	0.3336	0.1389	1	1	0.669	7	82	0
95	1	560	1	2	2	0.3336	0.1389	0	1	0.562	79	82	82
95	1	561	0	1	2	0.3336	0.1389	0	1	0.566	8	0	0
95	1	562	1	2	3	0.3336	0.1389	1	0	0.601	0	0	82
95	1	563	0	2	3	0.3336	0.1389	0	1	0.613	7	0	0
95	1	564	0	1	3	0.3336	0.1389	0	1	0.688	7	0	0
95	1	565	0	2	3	0.3336	0.1389	0	1	0.794	6	0	0
95	1	566	1	1	3	0.3336	0.1389	1	1	0.465	89	82	0
95	1	567	0	1	1	0.3336	0.1389	1	1	0.790	6	0	82
95	1	568	0	1	1	0.3336	0.1389	0	1	0.554	8	0	0
95	1	569	0	1	3	0.3336	0.1389	0	0	0.528	0	0	0
95	1	570	1	1	1	0.3336	0.1389	1	1	0.593	76	82	0
95	1	571	0	2	2	0.3336	0.1389	0	1	0.566	8	0	0
95	1	572	0	1	2	0.3336	0.1389	1	1	0.708	6	0	82
95	1	573	1	1	1	0.3336	0.1389	0	1	0.537	81	82	82
95	1	574	0	1	3	0.3336	0.1389	0	1	0.486	9	0	0
95	1	575	0	1	1	0.3336	0.1389	0	1	0.515	8	0	0
95	1	576	0	2	2	0.3336	0.1389	0	1	0.628	7	0	0
95	1	577	1	2	3	0.3336	0.1389	0	1	0.529	82	82	82
95	1	578	1	2	2	0.3336	0.1389	1	1	0.543	81	0	82
95	1	579	1	1	1	0.3336	0.1389	1	1	0.526	82	82	0
95	1	580	0	2	3	0.3336	0.1389	1	0	0.941	0	82	0
95	1	581	1	1	2	0.3336	0.1389	0	0	0.666	0	82	82
95	1	582	1	2	3	0.3336	0.1389	0	1	0.609	74	82	82
95	1	583	1	2	2	0.3336	0.1389	0	1	0.642	71	82	82
95	1	584	1	1	1	0.3336	0.1389	0	1	0.510	84	82	82
95	1	585	1	2	3	0.3336	0.1389	0	1	0.572	78	82	82
95	1	586	9	1	1	0.3336	0.1389	0	1	0.486	0	0	0
95	1	587	9	2	3	0.3336	0.1389	0	1	1.623	0	0	0
95	1	588	0	2	3	0.3336	0.1389	0	0	1.607	0	0	0
95	1	589	9	2	3	0.3336	0.1389	1	1	0.847	0	0	82
95	1	590	9	2	2	0.3336	0.1389	1	1	0.739	0	82	0
95	1	591	1	1	3	0.3336	0.1389	1	0	0.639	0	82	0
95	1	592	1	1	3	0.3336	0.1389	0	1	0.565	79	82	82
95	1	593	1	1	3	0.3336	0.1389	0	1	1.514	50	82	82
95	1	594	9	2	2	0.3336	0.1389	1	1	0.697	0	0	82
95	1	595	1	2	1	0.3336	0.1389	1	1	0.830	52	0	82
95	1	596	9	2	2	0.3336	0.1389	1	1	0.721	0	82	0
95	1	597	0	1	3	0.3336	0.1389	1	1	0.802	5	0	82
95	1	598	0	1	2	0.3336	0.1389	0	1	0.696	7	0	0
95	1	599	0	2	2	0.3336	0.1389	0	1	0.619	7	0	0
95	1	600	1	2	3	0.3336	0.1389	0	1	1.305	50	82	82
95	1	601	0	2	3	0.3336	0.1389	0	0	0.737	0	0	0
95	1	602	0	1	1	0.3336	0.1389	0	1	0.570	8	0	0
95	1	603	1	1	1	0.3336	0.1389	1	1	0.619	73	82	0
95	1	604	0	1	3	0.3336	0.1389	0	0	1.062	0	0	0
95	1	605	9	2	1	0.3336	0.1389	0	1	0.525	0	82	82
95	1	606	1	2	3	0.3336	0.1389	1	1	1.388	50	0	82
95	1	607	0	1	3	0.3336	0.1389	1	1	1.146	5	0	82
95	1	608	0	2	3	0.3336	0.1389	0	1	1.162	5	0	0
95	1	609	1	2	2	0.3336	0.1389	1	1	0.852	50	0	82
95	1	610	0	1	3	0.3336	0.1389	1	1	0.816	5	0	82
95	1	611	0	1	1	0.3336	0.1389	0	1	0.661	7	0	0
95	1	612	0	1	1	0.3336	0.1389	1	1	0.760	6	0	82
95	1	613	0	1	3	0.3336	0.1389	0	1	0.614	7	0	0
95	1	614	1	2	2	0.3336	0.1389	0	1	1.477	50	82	82
95	1	615	9	1	1	0.3336	0.1389	1	1	0.502	0	82	0
95	1	616	0	2	1	0.3336	0.1389	1	1	0.856	5	82	0
95	1	617	0	2	1	0.3336	0.1389	0	0	0.798	0	0	0
95	1	618	9	1	1	0.3336	0.1389	0	0	0.740	0	82	82
95	1	619	0	1	3	0.3336	0.1389	1	1	0.860	5	0	82
95	1	620	0	2	3	0.3336	0.1389	0	1	0.670	7	0	0
95	1	621	1	1	1	0.3336	0.1389	1	1	0.865	50	82	0
95	1	622	0	2	2	0.3336	0.1389	1	1	0.789	6	82	0
95	1	623	9	1	1	0.3336	0.1389	0	0	0.722	0	82	82
95	1	624	1	2	1	0.3336	0.1389	0	1	0.770	58	82	82
95	1	625	9	2	1	0.3336	0.1389	1	1	0.660	0	0	82
95	1	626	1	2	1	0.3336	0.1389	1	1	0.754	60	0	82
95	1	627	1	1	3	0.3336	0.1389	1	1	0.706	64	82	0
95	1	628	1	2	2	0.3336	0.1389	1	0	0.684	0	0	82
95	1	629	0	1	3	0.3336	0.1389	1	1	0.841	5	0	82
95	1	630	0	1	3	0.3336	0.1389	0	1	0.945	5	0	0
95	1	631	0	1	3	0.3336	0.1389	1	1	0.837	5	0	82
95	1	632	0	1	1	0.3336	0.1389	1	1	0.568	8	0	82
95	1	633	0	2	2	0.3336	0.1389	0	1	0.648	7	0	0
95	1	634	0	1	1	0.3336	0.1389	0	1	0.683	7	0	0
95	1	635	9	2	2	0.3336	0.1389	1	1	1.157	0	0	82
95	1	636	0	1	1	0.3336	0.1389	0	1	0.592	8	0	0
95	1	637	1	2	3	0.3336	0.1389	0	1	0.780	57	82	82
95	1	638	1	1	3	0.3336	0.1389	0	1	0.495	85	82	82
95	1	639	0	2	2	0.3336	0.1389	0	1	0.882	5	0	0
95	1	640	0	2	2	0.3336	0.1389	0	1	0.508	8	0	0
95	1	641	1	2	3	0.3336	0.1389	1	1	0.777	57	0	82
95	1	642	0	2	1	0.3336	0.1389	1	1	0.685	7	82	0
95	1	643	9	2	3	0.3336	0.1389	1	1	0.496	0	0	82
95	1	644	1	2	3	0.3336	0.1389	1	1	0.664	69	0	82
95	1	645	1	1	2	0.3336	0.1389	1	1	0.528	82	82	0
95	1	646	9	2	3	0.3336	0.1389	0	1	0.585	0	0	0
95	1	647	1	1	1	0.3336	0.1389	0	1	0.563	79	82	82
95	1	648	1	2	2	0.3336	0.1389	0	1	0.487	86	82	82
95	1	649	1	2	3	0.3336	0.1389	1	1	0.594	76	0	82
95	1	650	9	1	1	0.3336	0.1389	1	1	0.638	0	0	82
95	1	651	1	2	1	0.3336	0.1389	0	1	0.602	75	82	82
95	1	652	9	2	3	0.3336	0.1389	0	0	0.737	0	82	82
95	1	653	1	2	3	0.3336	0.1389	0	1	0.947	50	82	82
95	1	654	0	1	3	0.3336	0.1389	0	1	0.885	5	0	0
95	1	655	1	1	1	0.3336	0.1389	0	1	0.530	82	82	82
95	1	656	9	2	3	0.3336	0.1389	0	1	0.678	0	0	0
95	1	657	9	1	2	0.3336	0.1389	0	1	0.637	0	82	82
95	1	658	1	1	1	0.3336	0.1389	1	0	0.618	0	82	0
95	1	659	0	2	2	0.3336	0.1389	1	1	0.640	7	82	0
95	1	660	1	1	1	0.3336	0.1389	0	1	0.554	80	82	82
95	1	661	1	2	3	0.3336	0.1389	0	1	0.821	53	82	82
95	1	662	1	1	2	0.3336	0.1389	1	0	0.469	0	82	0
95	1	663	1	2	2	0.3336	0.1389	1	0	0.531	0	0	82
95	1	664	1	2	3	0.3336	0.1389	0	1	0.521	83	82	82
95	1	665	9	1	3	0.3336	0.1389	1	1	1.079	0	0	82
95	1	666	9	2	2	0.3336	0.1389	0	1	0.583	0	82	82
95	1	667	0	1	1	0.3336	0.1389	1	0	0.824	0	0	82
95	1	668	9	1	1	0.3336	0.1389	1	1	0.499	0	0	82
95	1	669	1	2	3	0.3336	0.1389	1	1	0.675	67	0	82
95	1	670	1	1	1	0.3336	0.1389	0	1	0.571	78	82	82
95	1	671	9	2	2	0.3336	0.1389	0	1	0.553	0	0	0
95	1	672	1	2	2	0.3336	0.1389	1	1	1.751	50	0	82
95	1	673	0	1	1	0.3336	0.1389	0	1	0.773	6	0	0
95	1	674	9	1	3	0.3336	0.1389	0	1	0.827	0	82	82
95	1	675	1	2	2	0.3336	0.1389	0	1	0.770	58	82	82
95	1	676	1	2	2	0.3336	0.1389	0	1	0.583	77	82	82
95	1	677	1	2	1	0.3336	0.1389	1	0	0.762	0	0	82
95	1	678	0	2	2	0.3336	0.1389	1	1	0.852	5	82	0
95	1	679	0	1	3	0.3336	0.1389	0	1	0.648	7	0	0
95	1	680	1	1	3	0.3336	0.1389	0	1	0.679	67	82	82
95	1	681	1	1	3	0.3336	0.1389	1	1	0.955	50	82	0
95	1	682	1	2	3	0.3336	0.1389	1	1	0.814	54	0	82
95	1	683	9	1	1	0.3336	0.1389	1	1	0.563	0	82	0
95	1	684	0	1	1	0.3336	0.1389	1	1	0.537	8	0	82
95	1	685	9	2	2	0.3336	0.1389	1	0	0.660	0	82	0
95	1	686	9	2	3	0.3336	0.1389	1	1	0.886	0	0	82
95	1	687	0	1	1	0.3336	0.1389	1	1	0.578	8	0	82
95	1	688	0	1	1	0.3336	0.1389	0	1	0.722	6	0	0
95	1	689	1	2	1	0.3336	0.1389	0	1	0.835	51	82	82
95	1	690	0	2	3	0.3336	0.1389	1	1	0.708	6	82	0
95	1	691	0	1	3	0.3336	0.1389	1	0	0.865	0	0	82
95	1	692	1	1	1	0.3336	0.1389	1	1	0.466	88	82	0
95	1	693	0	2	3	0.3336	0.1389	1	1	0.773	6	82	0
95	1	694	0	1	3	0.3336	0.1389	0	1	0.804	5	0	0
95	1	695	1	2	3	0.3336	0.1389	0	0	0.847	0	82	82
95	1	696	9	1	3	0.3336	0.1389	1	1	0.700	0	82	0
95	1	697	1	1	1	0.3336	0.1389	1	1	0.586	76	82	0
95	1	698	1	1	3	0.3336	0.1389	1	1	0.542	81	82	0
95	1	699	1	2	3	0.3336	0.1389	0	1	0.681	67	82	82
95	1	700	1	1	3	0.3336	0.1389	1	1	0.568	78	82	0
95	1	701	0	2	2	0.3336	0.1389	1	1	1.265	5	82	0
95	1	702	1	2	2	0.3336	0.1389	0	1	0.687	66	82	82
95	1	703	9	2	3	0.3336	0.1389	1	0	0.757	0	82	0
95	1	704	9	1	3	0.3336	0.1389	1	1	0.831	0	82	0
95	1	705	0	1	1	0.3336	0.1389	0	1	0.573	8	0	0
95	1	706	1	1	1	0.3336	0.1389	0	1	0.572	78	82	82
95	1	707	1	1	1	0.3336	0.1389	0	0	1.022	0	82	82
95	1	708	0	1	3	0.3336	0.1389	1	1	0.540	8	0	82
95	1	709	1	1	1	0.3336	0.1389	0	1	0.514	84	82	82
95	1	710	1	1	1	0.3336	0.1389	0	1	0.655	70	82	82
95	1	711	0	2	3	0.3336	0.1389	0	0	0.613	0	0	0
95	1	712	9	1	2	0.3336	0.1389	1	1	0.935	0	0	82
95	1	713	0	1	3	0.3336	0.1389	0	1	0.576	8	0	0
95	1	714	0	2	2	0.3336	0.1389	1	1	0.990	5	82	0
95	1	715	0	1	1	0.3336	0.1389	1	1	0.667	7	0	82
95	1	716	0	1	1	0.3336	0.1389	1	1	0.741	6	0	82
95	1	717	0	2	2	0.3336	0.1389	1	1	0.864	5	82	0
95	1	718	1	2	3	0.3336	0.1389	1	1	0.578	77	0	82
95	1	719	1	1	3	0.3336	0.1389	1	1	0.484	87	82	0
95	1	720	0	2	2	0.3336	0.1389	0	1	0.556	8	0	0
