sub	sess	t	rew	loc	cue	co1	co2	or	resp	rt	rew_tot	left_col	right_col
127	1	1	1	1	1	0.1217	0.0500	0	1	0.925	50	82	82
127	1	2	1	2	2	0.1217	0.0500	1	1	0.809	54	0	82
127	1	3	1	2	3	0.1217	0.0500	1	1	0.553	80	0	82
127	1	4	1	2	3	0.1217	0.0500	0	1	0.579	77	82	82
127	1	5	1	1	3	0.1217	0.0500	0	1	0.654	70	82	82
127	1	6	1	2	2	0.1217	0.0500	1	1	0.486	86	0	82
127	1	7	1	1	1	0.1217	0.0500	0	1	0.534	82	82	82
127	1	8	1	2	1	0.1217	0.0500	0	1	0.483	87	82	82
127	1	9	0	1	3	0.1217	0.0500	1	1	0.633	7	0	82
127	1	10	0	1	1	0.1217	0.0500	0	1	0.760	6	0	0
127	1	11	0	1	3	0.1217	0.0500	0	1	0.812	5	0	0
127	1	12	1	2	2	0.1217	0.0500	0	1	0.580	77	82	82
127	1	13	1	1	1	0.1217	0.0500	0	1	0.648	70	82	82
127	1	14	0	1	3	0.1217	0.0500	1	0	0.887	0	0	82
127	1	15	1	2	3	0.1217	0.0500	1	1	0.718	63	0	82
127	1	16	0	1	2	0.1217	0.0500	1	1	0.586	8	0	82
127	1	17	9	1	1	0.1217	0.0500	0	1	0.558	0	0	0
127	1	18	0	2	3	0.1217	0.0500	0	1	0.655	7	0	0
127	1	19	0	1	3	0.1217	0.0500	0	0	0.735	0	0	0
127	1	20	0	1	3	0.1217	0.0500	1	0	0.946	0	0	82
127	1	21	1	2	3	0.1217	0.0500	0	1	0.690	66	82	82
127	1	22	0	2	3	0.1217	0.0500	0	1	0.576	8	0	0
127	1	23	9	2	2	0.1217	0.0500	0	1	0.482	0	0	0
127	1	24	0	2	1	0.1217	0.0500	1	1	0.778	6	82	0
127	1	25	1	2	3	0.1217	0.0500	0	1	0.570	78	82	82
127	1	26	1	1	3	0.1217	0.0500	1	1	0.484	87	82	0
127	1	27	0	1	1	0.1217	0.0500	1	1	1.012	5	0	82
127	1	28	9	1	1	0.1217	0.0500	1	1	0.580	0	82	0
127	1	29	1	2	1	0.1217	0.0500	0	1	0.572	78	82	82
127	1	30	0	2	2	0.1217	0.0500	0	1	0.542	8	0	0
127	1	31	0	2	2	0.1217	0.0500	1	1	0.728	6	82	0
127	1	32	0	2	2	0.1217	0.0500	0	1	0.549	8	0	0
127	1	33	0	2	1	0.1217	0.0500	0	1	0.502	8	0	0
127	1	34	0	2	3	0.1217	0.0500	0	1	0.531	8	0	0
127	1	35	0	2	2	0.1217	0.0500	1	0	0.623	0	82	0
127	1	36	9	2	3	0.1217	0.0500	1	1	0.609	0	0	82
127	1	37	1	1	1	0.1217	0.0500	0	1	0.562	79	82	82
127	1	38	0	2	3	0.1217	0.0500	0	1	0.516	8	0	0
127	1	39	9	1	1	0.1217	0.0500	0	1	0.465	0	0	0
127	1	40	0	1	3	0.1217	0.0500	0	1	0.618	7	0	0
127	1	41	1	1	3	0.1217	0.0500	1	1	0.572	78	82	0
127	1	42	0	2	2	0.1217	0.0500	1	1	0.958	5	82	0
127	1	43	1	2	3	0.1217	0.0500	0	1	0.617	73	82	82
127	1	44	0	2	1	0.1217	0.0500	1	1	0.978	5	82	0
127	1	45	1	2	2	0.1217	0.0500	1	1	0.598	75	0	82
127	1	46	1	2	2	0.1217	0.0500	0	1	0.542	81	82	82
127	1	47	9	2	2	0.1217	0.0500	1	1	0.713	0	82	0
127	1	48	9	2	3	0.1217	0.0500	0	1	0.533	0	82	82
127	1	49	0	1	3	0.1217	0.0500	1	1	0.976	5	0	82
127	1	50	0	1	3	0.1217	0.0500	0	0	0.716	0	0	0
127	1	51	9	1	3	0.1217	0.0500	1	1	0.729	0	82	0
127	1	52	9	2	2	0.1217	0.0500	0	1	0.583	0	0	0
127	1	53	1	2	2	0.1217	0.0500	1	1	0.584	77	0	82
127	1	54	1	1	3	0.1217	0.0500	0	1	0.649	70	82	82
127	1	55	9	1	3	0.1217	0.0500	0	1	0.582	0	82	82
127	1	56	0	1	3	0.1217	0.0500	0	1	0.601	7	0	0
127	1	57	9	1	1	0.1217	0.0500	0	1	0.626	0	0	0
127	1	58	1	1	1	0.1217	0.0500	0	1	0.657	69	82	82
127	1	59	0	1	3	0.1217	0.0500	1	1	0.880	5	0	82
127	1	60	1	2	3	0.1217	0.0500	0	1	0.597	75	82	82
127	1	61	0	1	2	0.1217	0.0500	0	1	0.605	7	0	0
127	1	62	0	2	3	0.1217	0.0500	0	1	0.495	9	0	0
127	1	63	1	2	3	0.1217	0.0500	0	1	0.590	76	82	82
127	1	64	1	1	3	0.1217	0.0500	0	1	0.670	68	82	82
127	1	65	9	1	3	0.1217	0.0500	1	1	0.460	0	82	0
127	1	66	1	1	2	0.1217	0.0500	0	1	0.412	94	82	82
127	1	67	9	1	1	0.1217	0.0500	1	1	0.534	0	82	0
127	1	68	1	2	2	0.1217	0.0500	0	1	0.601	75	82	82
127	1	69	9	1	3	0.1217	0.0500	0	0	0.489	0	0	0
127	1	70	1	2	3	0.1217	0.0500	0	1	0.614	74	82	82
127	1	71	1	2	3	0.1217	0.0500	1	1	0.456	89	0	82
127	1	72	0	2	3	0.1217	0.0500	1	1	0.646	7	82	0
127	1	73	1	1	3	0.1217	0.0500	0	1	0.559	79	82	82
127	1	74	0	2	3	0.1217	0.0500	0	1	0.592	8	0	0
127	1	75	9	2	3	0.1217	0.0500	0	1	0.450	0	0	0
127	1	76	1	1	1	0.1217	0.0500	0	1	0.521	83	82	82
127	1	77	0	2	3	0.1217	0.0500	0	1	0.439	9	0	0
127	1	78	0	2	2	0.1217	0.0500	0	1	0.433	9	0	0
127	1	79	1	2	3	0.1217	0.0500	0	1	0.480	87	82	82
127	1	80	1	2	3	0.1217	0.0500	1	0	0.580	0	0	82
127	1	81	1	2	3	0.1217	0.0500	1	1	0.565	79	0	82
127	1	82	9	2	2	0.1217	0.0500	1	1	0.711	0	82	0
127	1	83	1	2	3	0.1217	0.0500	0	1	0.469	88	82	82
127	1	84	1	2	2	0.1217	0.0500	1	1	0.458	89	0	82
127	1	85	0	2	3	0.1217	0.0500	1	1	0.586	8	82	0
127	1	86	0	2	2	0.1217	0.0500	0	1	0.459	9	0	0
127	1	87	0	2	3	0.1217	0.0500	1	1	3.137	5	82	0
127	1	88	0	2	2	0.1217	0.0500	1	1	0.443	9	82	0
127	1	89	9	2	3	0.1217	0.0500	0	1	0.553	0	82	82
127	1	90	1	2	3	0.1217	0.0500	1	0	0.654	0	0	82
127	1	91	0	2	2	0.1217	0.0500	1	1	0.853	5	82	0
127	1	92	0	2	3	0.1217	0.0500	1	1	0.573	8	82	0
127	1	93	9	1	2	0.1217	0.0500	0	1	0.623	0	82	82
127	1	94	1	1	1	0.1217	0.0500	1	0	0.614	0	82	0
127	1	95	1	1	1	0.1217	0.0500	0	1	0.944	50	82	82
127	1	96	1	1	1	0.1217	0.0500	1	0	0.562	0	82	0
127	1	97	1	2	3	0.1217	0.0500	0	1	0.605	74	82	82
127	1	98	0	2	2	0.1217	0.0500	1	1	0.560	8	82	0
127	1	99	0	1	3	0.1217	0.0500	0	1	0.507	8	0	0
127	1	100	0	2	3	0.1217	0.0500	1	1	0.593	8	82	0
127	1	101	0	2	2	0.1217	0.0500	1	1	0.537	8	82	0
127	1	102	0	1	1	0.1217	0.0500	1	1	0.687	7	0	82
127	1	103	0	1	1	0.1217	0.0500	0	1	0.487	9	0	0
127	1	104	0	1	1	0.1217	0.0500	0	1	0.477	9	0	0
127	1	105	0	1	1	0.1217	0.0500	1	1	0.635	7	0	82
127	1	106	9	1	1	0.1217	0.0500	1	1	0.571	0	0	82
127	1	107	1	1	1	0.1217	0.0500	1	1	0.510	84	82	0
127	1	108	0	1	1	0.1217	0.0500	0	1	0.404	9	0	0
127	1	109	1	2	3	0.1217	0.0500	1	1	0.599	75	0	82
127	1	110	9	2	3	0.1217	0.0500	1	1	0.511	0	0	82
127	1	111	1	1	1	0.1217	0.0500	1	1	0.782	57	82	0
127	1	112	9	2	2	0.1217	0.0500	1	1	0.599	0	82	0
127	1	113	1	2	2	0.1217	0.0500	1	0	0.832	0	0	82
127	1	114	1	2	2	0.1217	0.0500	0	1	0.823	53	82	82
127	1	115	9	2	2	0.1217	0.0500	1	1	0.473	0	0	82
127	1	116	0	2	2	0.1217	0.0500	1	0	0.727	0	82	0
127	1	117	1	1	1	0.1217	0.0500	0	1	0.578	77	82	82
127	1	118	1	2	3	0.1217	0.0500	1	1	0.605	75	0	82
127	1	119	0	1	3	0.1217	0.0500	0	1	0.469	9	0	0
127	1	120	1	1	3	0.1217	0.0500	1	1	0.462	89	82	0
127	1	121	0	2	3	0.1217	0.0500	0	1	0.563	8	0	0
127	1	122	1	1	1	0.1217	0.0500	0	1	0.476	87	82	82
127	1	123	1	2	2	0.1217	0.0500	1	1	0.522	83	0	82
127	1	124	1	2	3	0.1217	0.0500	0	1	0.463	89	82	82
127	1	125	0	1	3	0.1217	0.0500	1	0	0.478	0	0	82
127	1	126	0	1	1	0.1217	0.0500	0	1	0.515	8	0	0
127	1	127	9	2	2	0.1217	0.0500	0	1	0.465	0	0	0
127	1	128	0	2	2	0.1217	0.0500	1	0	0.503	0	82	0
127	1	129	0	2	3	0.1217	0.0500	0	1	0.420	9	0	0
127	1	130	0	2	1	0.1217	0.0500	0	1	0.398	10	0	0
127	1	131	9	1	1	0.1217	0.0500	1	1	0.726	0	0	82
127	1	132	9	1	2	0.1217	0.0500	1	1	0.803	0	0	82
127	1	133	9	2	1	0.1217	0.0500	1	1	0.563	0	0	82
127	1	134	9	2	3	0.1217	0.0500	1	1	0.702	0	82	0
127	1	135	0	1	1	0.1217	0.0500	1	0	0.700	0	0	82
127	1	136	1	1	3	0.1217	0.0500	0	1	0.602	75	82	82
127	1	137	1	2	2	0.1217	0.0500	0	1	0.548	80	82	82
127	1	138	9	1	1	0.1217	0.0500	1	0	0.550	0	0	82
127	1	139	9	2	3	0.1217	0.0500	1	1	0.448	0	0	82
127	1	140	0	1	3	0.1217	0.0500	0	1	0.665	7	0	0
127	1	141	1	1	1	0.1217	0.0500	1	0	0.559	0	82	0
127	1	142	1	2	3	0.1217	0.0500	1	1	0.492	86	0	82
127	1	143	0	2	3	0.1217	0.0500	0	1	0.473	9	0	0
127	1	144	0	1	1	0.1217	0.0500	1	0	0.593	0	0	82
127	1	145	1	1	1	0.1217	0.0500	0	1	0.609	74	82	82
127	1	146	0	1	1	0.1217	0.0500	0	1	0.497	9	0	0
127	1	147	0	1	1	0.1217	0.0500	1	0	0.679	0	0	82
127	1	148	1	2	3	0.1217	0.0500	0	1	0.662	69	82	82
127	1	149	0	1	1	0.1217	0.0500	0	1	0.501	8	0	0
127	1	150	9	2	2	0.1217	0.0500	1	1	0.508	0	0	82
127	1	151	1	1	1	0.1217	0.0500	0	1	0.465	89	82	82
127	1	152	0	2	3	0.1217	0.0500	0	1	0.687	7	0	0
127	1	153	9	1	1	0.1217	0.0500	1	1	0.405	0	82	0
127	1	154	9	2	2	0.1217	0.0500	0	1	0.509	0	82	82
127	1	155	1	1	1	0.1217	0.0500	1	0	0.683	0	82	0
127	1	156	0	1	3	0.1217	0.0500	1	1	0.744	6	0	82
127	1	157	1	1	3	0.1217	0.0500	0	1	0.610	74	82	82
127	1	158	9	2	1	0.1217	0.0500	0	1	0.491	0	82	82
127	1	159	1	1	3	0.1217	0.0500	1	1	0.480	87	82	0
127	1	160	1	2	1	0.1217	0.0500	0	1	0.527	82	82	82
127	1	161	1	2	2	0.1217	0.0500	0	1	0.504	85	82	82
127	1	162	1	2	3	0.1217	0.0500	1	1	0.452	90	0	82
127	1	163	1	2	2	0.1217	0.0500	1	1	0.411	94	0	82
127	1	164	9	2	3	0.1217	0.0500	0	0	0.445	0	0	0
127	1	165	1	2	2	0.1217	0.0500	0	1	0.430	92	82	82
127	1	166	1	2	2	0.1217	0.0500	0	1	0.460	89	82	82
127	1	167	1	2	1	0.1217	0.0500	1	1	0.419	93	0	82
127	1	168	9	2	3	0.1217	0.0500	1	1	0.420	0	0	82
127	1	169	1	2	1	0.1217	0.0500	0	1	0.485	86	82	82
127	1	170	1	1	1	0.1217	0.0500	1	0	0.468	0	82	0
127	1	171	0	2	3	0.1217	0.0500	0	1	0.493	9	0	0
127	1	172	1	2	2	0.1217	0.0500	0	1	0.489	86	82	82
127	1	173	1	1	1	0.1217	0.0500	0	0	0.638	0	82	82
127	1	174	0	2	2	0.1217	0.0500	0	1	0.423	9	0	0
127	1	175	9	1	3	0.1217	0.0500	1	1	0.440	0	82	0
127	1	176	0	1	1	0.1217	0.0500	1	1	0.648	7	0	82
127	1	177	1	1	1	0.1217	0.0500	1	1	0.591	76	82	0
127	1	178	9	1	1	0.1217	0.0500	0	1	0.537	0	82	82
127	1	179	9	1	3	0.1217	0.0500	0	1	0.443	0	82	82
127	1	180	1	1	2	0.1217	0.0500	1	1	0.467	88	82	0
127	1	181	1	1	3	0.1217	0.0500	1	1	0.481	87	82	0
127	1	182	0	2	2	0.1217	0.0500	0	1	0.518	8	0	0
127	1	183	0	1	1	0.1217	0.0500	1	1	0.769	6	0	82
127	1	184	1	2	3	0.1217	0.0500	0	1	0.492	86	82	82
127	1	185	0	2	2	0.1217	0.0500	1	1	0.577	8	82	0
127	1	186	9	2	2	0.1217	0.0500	0	1	0.555	0	0	0
127	1	187	0	1	1	0.1217	0.0500	0	0	0.575	0	0	0
127	1	188	1	1	1	0.1217	0.0500	1	0	0.586	0	82	0
127	1	189	9	1	3	0.1217	0.0500	0	1	0.501	0	0	0
127	1	190	9	1	1	0.1217	0.0500	1	1	0.505	0	82	0
127	1	191	1	2	3	0.1217	0.0500	1	1	0.544	81	0	82
127	1	192	0	1	3	0.1217	0.0500	1	1	0.789	6	0	82
127	1	193	0	1	2	0.1217	0.0500	0	1	0.485	9	0	0
127	1	194	0	2	3	0.1217	0.0500	1	1	0.653	7	82	0
127	1	195	0	1	3	0.1217	0.0500	1	0	0.509	0	0	82
127	1	196	1	2	2	0.1217	0.0500	1	1	0.553	80	0	82
127	1	197	1	1	1	0.1217	0.0500	1	1	0.515	83	82	0
127	1	198	1	1	3	0.1217	0.0500	1	1	0.472	88	82	0
127	1	199	9	2	1	0.1217	0.0500	0	1	0.447	0	0	0
127	1	200	0	1	1	0.1217	0.0500	1	1	0.855	5	0	82
127	1	201	0	1	3	0.1217	0.0500	1	1	0.542	8	0	82
127	1	202	9	2	3	0.1217	0.0500	0	1	0.434	0	0	0
127	1	203	0	1	2	0.1217	0.0500	1	1	0.498	9	0	82
127	1	204	0	1	3	0.1217	0.0500	1	1	0.721	6	0	82
127	1	205	1	2	3	0.1217	0.0500	1	1	0.533	82	0	82
127	1	206	9	1	3	0.1217	0.0500	0	1	0.521	0	0	0
127	1	207	0	1	3	0.1217	0.0500	1	1	0.576	8	0	82
127	1	208	0	2	2	0.1217	0.0500	1	1	0.760	6	82	0
127	1	209	0	1	1	0.1217	0.0500	1	1	0.562	8	0	82
127	1	210	1	2	1	0.1217	0.0500	1	1	0.482	87	0	82
127	1	211	1	1	2	0.1217	0.0500	1	1	0.481	87	82	0
127	1	212	1	1	3	0.1217	0.0500	1	1	0.495	86	82	0
127	1	213	0	1	2	0.1217	0.0500	0	1	0.547	8	0	0
127	1	214	0	1	1	0.1217	0.0500	0	1	0.500	8	0	0
127	1	215	1	1	3	0.1217	0.0500	0	1	0.523	83	82	82
127	1	216	9	1	1	0.1217	0.0500	0	1	0.486	0	82	82
127	1	217	9	2	3	0.1217	0.0500	1	0	0.750	0	82	0
127	1	218	1	2	2	0.1217	0.0500	1	1	0.523	83	0	82
127	1	219	1	1	3	0.1217	0.0500	0	1	0.458	89	82	82
127	1	220	1	2	3	0.1217	0.0500	1	1	0.519	83	0	82
127	1	221	1	2	3	0.1217	0.0500	1	1	0.478	87	0	82
127	1	222	0	2	1	0.1217	0.0500	1	1	0.522	8	82	0
127	1	223	0	1	3	0.1217	0.0500	0	1	0.471	9	0	0
127	1	224	0	2	2	0.1217	0.0500	0	1	0.455	9	0	0
127	1	225	0	2	3	0.1217	0.0500	1	1	0.495	9	82	0
127	1	226	1	1	2	0.1217	0.0500	0	1	0.599	75	82	82
127	1	227	1	2	3	0.1217	0.0500	0	1	0.449	90	82	82
127	1	228	1	1	1	0.1217	0.0500	1	1	0.454	90	82	0
127	1	229	9	2	3	0.1217	0.0500	0	1	0.534	0	82	82
127	1	230	0	1	1	0.1217	0.0500	1	0	0.603	0	0	82
127	1	231	0	1	1	0.1217	0.0500	0	1	0.476	9	0	0
127	1	232	1	1	3	0.1217	0.0500	0	1	0.516	83	82	82
127	1	233	9	1	3	0.1217	0.0500	1	0	0.503	0	0	82
127	1	234	0	1	3	0.1217	0.0500	0	1	0.494	9	0	0
127	1	235	1	1	1	0.1217	0.0500	0	1	0.515	83	82	82
127	1	236	1	1	3	0.1217	0.0500	1	1	0.666	68	82	0
127	1	237	9	1	3	0.1217	0.0500	1	1	0.536	0	0	82
127	1	238	9	2	2	0.1217	0.0500	1	1	0.434	0	0	82
127	1	239	1	1	1	0.1217	0.0500	0	1	0.451	90	82	82
127	1	240	1	2	2	0.1217	0.0500	1	1	0.401	95	0	82
127	1	241	0	1	1	0.1217	0.0500	1	1	0.534	8	0	82
127	1	242	1	2	2	0.1217	0.0500	1	1	0.442	91	0	82
127	1	243	9	1	3	0.1217	0.0500	0	1	0.432	0	82	82
127	1	244	0	2	2	0.1217	0.0500	0	1	0.400	9	0	0
127	1	245	0	1	3	0.1217	0.0500	1	0	0.531	0	0	82
127	1	246	9	2	2	0.1217	0.0500	1	0	0.631	0	0	82
127	1	247	1	1	2	0.1217	0.0500	1	1	0.510	84	82	0
127	1	248	0	1	1	0.1217	0.0500	0	1	0.537	8	0	0
127	1	249	0	2	3	0.1217	0.0500	1	1	0.580	8	82	0
127	1	250	1	2	2	0.1217	0.0500	0	1	0.564	79	82	82
127	1	251	0	2	3	0.1217	0.0500	1	0	0.617	0	82	0
127	1	252	0	2	2	0.1217	0.0500	0	1	0.464	9	0	0
127	1	253	0	1	3	0.1217	0.0500	0	1	0.693	7	0	0
127	1	254	9	1	2	0.1217	0.0500	0	1	0.441	0	0	0
127	1	255	9	1	3	0.1217	0.0500	0	1	0.408	0	0	0
127	1	256	1	1	3	0.1217	0.0500	1	1	0.505	84	82	0
127	1	257	0	2	3	0.1217	0.0500	1	0	1.334	0	82	0
127	1	258	0	2	3	0.1217	0.0500	1	0	0.692	0	82	0
127	1	259	0	1	1	0.1217	0.0500	1	0	0.551	0	0	82
127	1	260	0	1	3	0.1217	0.0500	0	1	0.452	9	0	0
127	1	261	9	2	2	0.1217	0.0500	0	1	0.497	0	82	82
127	1	262	9	1	3	0.1217	0.0500	1	1	0.574	0	82	0
127	1	263	0	1	3	0.1217	0.0500	1	1	0.945	5	0	82
127	1	264	1	2	1	0.1217	0.0500	1	1	0.468	88	0	82
127	1	265	0	2	3	0.1217	0.0500	1	1	0.882	5	82	0
127	1	266	1	2	2	0.1217	0.0500	1	1	0.486	86	0	82
127	1	267	9	1	2	0.1217	0.0500	1	1	0.389	0	82	0
127	1	268	1	1	2	0.1217	0.0500	1	1	0.430	92	82	0
127	1	269	0	2	2	0.1217	0.0500	1	1	0.656	7	82	0
127	1	270	0	1	3	0.1217	0.0500	1	1	0.837	5	0	82
127	1	271	1	2	2	0.1217	0.0500	1	0	0.574	0	0	82
127	1	272	0	1	1	0.1217	0.0500	0	1	0.616	7	0	0
127	1	273	1	1	3	0.1217	0.0500	1	1	0.471	88	82	0
127	1	274	0	1	1	0.1217	0.0500	1	0	0.734	0	0	82
127	1	275	0	2	2	0.1217	0.0500	0	1	0.404	9	0	0
127	1	276	0	2	3	0.1217	0.0500	0	1	0.405	9	0	0
127	1	277	0	1	2	0.1217	0.0500	1	1	0.607	7	0	82
127	1	278	1	1	3	0.1217	0.0500	1	1	0.696	65	82	0
127	1	279	1	1	3	0.1217	0.0500	1	1	0.388	96	82	0
127	1	280	0	1	3	0.1217	0.0500	0	1	0.454	9	0	0
127	1	281	1	2	2	0.1217	0.0500	0	1	0.442	91	82	82
127	1	282	1	1	1	0.1217	0.0500	1	0	0.601	0	82	0
127	1	283	1	1	1	0.1217	0.0500	1	1	0.804	55	82	0
127	1	284	0	1	1	0.1217	0.0500	0	1	0.501	8	0	0
127	1	285	0	2	2	0.1217	0.0500	1	1	0.633	7	82	0
127	1	286	1	1	3	0.1217	0.0500	0	1	0.530	82	82	82
127	1	287	1	1	3	0.1217	0.0500	1	1	0.455	90	82	0
127	1	288	0	2	2	0.1217	0.0500	1	0	0.583	0	82	0
127	1	289	1	1	2	0.1217	0.0500	0	1	0.495	86	82	82
127	1	290	0	2	2	0.1217	0.0500	0	1	0.452	9	0	0
127	1	291	0	2	2	0.1217	0.0500	0	1	0.442	9	0	0
127	1	292	0	2	3	0.1217	0.0500	1	0	0.656	0	82	0
127	1	293	1	2	2	0.1217	0.0500	0	1	0.486	86	82	82
127	1	294	0	2	1	0.1217	0.0500	0	1	0.437	9	0	0
127	1	295	1	2	3	0.1217	0.0500	0	1	0.495	86	82	82
127	1	296	9	1	3	0.1217	0.0500	0	1	0.563	0	82	82
127	1	297	9	2	3	0.1217	0.0500	1	0	0.663	0	82	0
127	1	298	0	2	2	0.1217	0.0500	0	1	0.533	8	0	0
127	1	299	0	2	3	0.1217	0.0500	1	0	0.739	0	82	0
127	1	300	9	2	3	0.1217	0.0500	1	1	0.503	0	82	0
127	1	301	0	2	2	0.1217	0.0500	0	1	0.501	8	0	0
127	1	302	1	1	3	0.1217	0.0500	0	1	0.531	82	82	82
127	1	303	0	2	3	0.1217	0.0500	0	1	0.519	8	0	0
127	1	304	1	2	1	0.1217	0.0500	1	0	0.508	0	0	82
127	1	305	1	2	2	0.1217	0.0500	1	1	0.593	76	0	82
127	1	306	1	1	3	0.1217	0.0500	1	1	0.618	73	82	0
127	1	307	0	2	2	0.1217	0.0500	1	1	0.540	8	82	0
127	1	308	0	1	3	0.1217	0.0500	1	1	0.608	7	0	82
127	1	309	9	1	1	0.1217	0.0500	0	1	0.536	0	82	82
127	1	310	0	2	1	0.1217	0.0500	1	0	0.565	0	82	0
127	1	311	0	1	3	0.1217	0.0500	0	1	0.543	8	0	0
127	1	312	9	2	2	0.1217	0.0500	0	1	0.610	0	82	82
127	1	313	1	1	3	0.1217	0.0500	1	1	0.530	82	82	0
127	1	314	9	2	3	0.1217	0.0500	0	1	0.472	0	0	0
127	1	315	1	1	1	0.1217	0.0500	1	1	0.590	76	82	0
127	1	316	1	1	1	0.1217	0.0500	0	1	0.512	84	82	82
127	1	317	0	1	3	0.1217	0.0500	0	1	0.428	9	0	0
127	1	318	9	2	2	0.1217	0.0500	0	1	0.555	0	82	82
127	1	319	1	1	3	0.1217	0.0500	0	1	0.464	89	82	82
127	1	320	0	2	1	0.1217	0.0500	0	1	0.408	9	0	0
127	1	321	0	1	1	0.1217	0.0500	1	1	0.589	8	0	82
127	1	322	9	1	1	0.1217	0.0500	0	1	0.385	0	0	0
127	1	323	0	1	1	0.1217	0.0500	0	1	0.356	10	0	0
127	1	324	0	2	2	0.1217	0.0500	0	1	0.389	10	0	0
127	1	325	0	2	3	0.1217	0.0500	1	0	0.518	0	82	0
127	1	326	9	2	1	0.1217	0.0500	1	1	0.433	0	82	0
127	1	327	9	1	3	0.1217	0.0500	1	1	0.569	0	0	82
127	1	328	0	2	2	0.1217	0.0500	1	1	0.459	9	82	0
127	1	329	0	1	1	0.1217	0.0500	1	0	0.624	0	0	82
127	1	330	9	2	3	0.1217	0.0500	0	1	0.514	0	82	82
127	1	331	1	1	2	0.1217	0.0500	0	1	0.696	65	82	82
127	1	332	0	2	3	0.1217	0.0500	1	1	0.630	7	82	0
127	1	333	1	2	2	0.1217	0.0500	0	1	0.431	92	82	82
127	1	334	1	1	3	0.1217	0.0500	0	1	0.559	79	82	82
127	1	335	9	1	1	0.1217	0.0500	0	1	0.466	0	82	82
127	1	336	0	1	3	0.1217	0.0500	0	1	0.450	9	0	0
127	1	337	1	1	3	0.1217	0.0500	0	1	0.408	94	82	82
127	1	338	0	1	1	0.1217	0.0500	0	1	0.368	10	0	0
127	1	339	1	2	2	0.1217	0.0500	1	1	0.532	82	0	82
127	1	340	9	1	1	0.1217	0.0500	1	1	0.639	0	0	82
127	1	341	0	2	3	0.1217	0.0500	0	1	0.451	9	0	0
127	1	342	1	2	2	0.1217	0.0500	0	1	0.522	83	82	82
127	1	343	0	2	2	0.1217	0.0500	0	1	0.519	8	0	0
127	1	344	0	2	3	0.1217	0.0500	0	1	0.523	8	0	0
127	1	345	1	2	3	0.1217	0.0500	0	1	0.528	82	82	82
127	1	346	9	1	3	0.1217	0.0500	1	0	0.540	0	0	82
127	1	347	1	2	2	0.1217	0.0500	0	1	0.490	86	82	82
127	1	348	1	1	1	0.1217	0.0500	0	1	0.519	83	82	82
127	1	349	0	1	2	0.1217	0.0500	1	0	0.652	0	0	82
127	1	350	1	1	1	0.1217	0.0500	1	1	0.434	92	82	0
127	1	351	1	1	3	0.1217	0.0500	0	1	0.548	80	82	82
127	1	352	0	1	1	0.1217	0.0500	0	1	0.392	10	0	0
127	1	353	9	2	2	0.1217	0.0500	1	1	0.392	0	82	0
127	1	354	1	2	2	0.1217	0.0500	0	1	0.520	83	82	82
127	1	355	1	2	3	0.1217	0.0500	1	1	0.461	89	0	82
127	1	356	1	1	3	0.1217	0.0500	1	1	0.411	94	82	0
127	1	357	0	1	2	0.1217	0.0500	0	1	0.437	9	0	0
127	1	358	1	1	3	0.1217	0.0500	0	1	0.460	89	82	82
127	1	359	1	2	3	0.1217	0.0500	1	1	0.601	75	0	82
127	1	360	1	1	1	0.1217	0.0500	1	1	0.456	89	82	0
127	1	361	1	2	3	0.1217	0.0500	1	1	0.413	94	0	82
127	1	362	9	2	2	0.1217	0.0500	0	1	0.463	0	0	0
127	1	363	0	2	3	0.1217	0.0500	0	1	0.415	9	0	0
127	1	364	1	2	1	0.1217	0.0500	0	1	0.488	86	82	82
127	1	365	0	1	1	0.1217	0.0500	0	1	0.508	8	0	0
127	1	366	0	2	3	0.1217	0.0500	1	1	0.513	8	82	0
127	1	367	0	2	2	0.1217	0.0500	1	0	0.598	0	82	0
127	1	368	0	1	3	0.1217	0.0500	0	1	0.446	9	0	0
127	1	369	9	1	3	0.1217	0.0500	1	0	0.494	0	0	82
127	1	370	0	1	3	0.1217	0.0500	1	0	0.539	0	0	82
127	1	371	1	1	1	0.1217	0.0500	0	1	0.526	82	82	82
127	1	372	1	1	1	0.1217	0.0500	1	0	0.752	0	82	0
127	1	373	1	1	1	0.1217	0.0500	1	1	0.476	87	82	0
127	1	374	1	2	3	0.1217	0.0500	0	1	0.466	88	82	82
127	1	375	0	1	1	0.1217	0.0500	0	1	0.392	10	0	0
127	1	376	1	2	3	0.1217	0.0500	1	1	0.555	79	0	82
127	1	377	0	2	3	0.1217	0.0500	1	0	0.632	0	82	0
127	1	378	1	2	3	0.1217	0.0500	0	1	0.569	78	82	82
127	1	379	0	2	3	0.1217	0.0500	0	1	0.426	9	0	0
127	1	380	9	1	1	0.1217	0.0500	0	1	0.420	0	82	82
127	1	381	0	1	2	0.1217	0.0500	0	1	0.364	10	0	0
127	1	382	9	1	3	0.1217	0.0500	1	1	0.542	0	0	82
127	1	383	0	1	1	0.1217	0.0500	0	1	0.458	9	0	0
127	1	384	1	1	3	0.1217	0.0500	0	1	0.447	90	82	82
127	1	385	0	1	1	0.1217	0.0500	0	1	0.383	10	0	0
127	1	386	1	2	2	0.1217	0.0500	1	1	0.513	84	0	82
127	1	387	1	1	1	0.1217	0.0500	0	1	0.470	88	82	82
127	1	388	1	2	1	0.1217	0.0500	1	1	0.566	78	0	82
127	1	389	1	1	3	0.1217	0.0500	0	1	0.496	85	82	82
127	1	390	0	1	2	0.1217	0.0500	0	1	0.445	9	0	0
127	1	391	1	2	3	0.1217	0.0500	0	1	0.492	86	82	82
127	1	392	9	1	1	0.1217	0.0500	0	1	0.457	0	82	82
127	1	393	9	1	3	0.1217	0.0500	1	1	0.631	0	0	82
127	1	394	9	2	2	0.1217	0.0500	1	1	0.533	0	82	0
127	1	395	1	1	1	0.1217	0.0500	1	1	0.497	85	82	0
127	1	396	9	2	2	0.1217	0.0500	0	1	0.478	0	82	82
127	1	397	0	1	3	0.1217	0.0500	1	0	0.525	0	0	82
127	1	398	1	2	2	0.1217	0.0500	1	1	0.483	87	0	82
127	1	399	0	2	1	0.1217	0.0500	0	1	0.359	10	0	0
127	1	400	0	2	3	0.1217	0.0500	0	1	0.433	9	0	0
127	1	401	0	1	3	0.1217	0.0500	1	1	0.558	8	0	82
127	1	402	1	2	3	0.1217	0.0500	1	1	0.641	71	0	82
127	1	403	9	2	1	0.1217	0.0500	0	1	0.535	0	82	82
127	1	404	1	2	3	0.1217	0.0500	1	1	0.515	84	0	82
127	1	405	1	2	2	0.1217	0.0500	0	1	0.545	81	82	82
127	1	406	9	1	3	0.1217	0.0500	1	1	0.597	0	0	82
127	1	407	9	2	3	0.1217	0.0500	1	1	0.559	0	0	82
127	1	408	1	2	2	0.1217	0.0500	0	1	0.515	84	82	82
127	1	409	1	2	2	0.1217	0.0500	1	0	0.745	0	0	82
127	1	410	1	2	3	0.1217	0.0500	1	1	0.507	84	0	82
127	1	411	0	2	2	0.1217	0.0500	0	1	0.503	8	0	0
127	1	412	0	1	2	0.1217	0.0500	1	0	0.723	0	0	82
127	1	413	1	1	1	0.1217	0.0500	1	1	0.513	84	82	0
127	1	414	0	1	2	0.1217	0.0500	1	1	0.725	6	0	82
127	1	415	1	2	3	0.1217	0.0500	0	1	0.489	86	82	82
127	1	416	0	2	3	0.1217	0.0500	0	1	0.478	9	0	0
127	1	417	9	2	2	0.1217	0.0500	1	1	0.435	0	0	82
127	1	418	0	1	3	0.1217	0.0500	1	0	0.610	0	0	82
127	1	419	1	1	3	0.1217	0.0500	1	1	0.425	93	82	0
127	1	420	1	1	3	0.1217	0.0500	1	1	0.368	98	82	0
127	1	421	0	1	1	0.1217	0.0500	0	1	0.365	10	0	0
127	1	422	0	2	2	0.1217	0.0500	1	1	0.481	9	82	0
127	1	423	0	2	2	0.1217	0.0500	1	1	0.519	8	82	0
127	1	424	1	2	1	0.1217	0.0500	0	0	0.715	0	82	82
127	1	425	1	2	2	0.1217	0.0500	1	1	0.823	53	0	82
127	1	426	1	1	3	0.1217	0.0500	0	1	0.696	65	82	82
127	1	427	0	2	3	0.1217	0.0500	0	1	0.460	9	0	0
127	1	428	0	1	1	0.1217	0.0500	1	0	0.530	0	0	82
127	1	429	1	2	2	0.1217	0.0500	1	1	0.582	77	0	82
127	1	430	0	2	2	0.1217	0.0500	1	0	0.640	0	82	0
127	1	431	1	1	1	0.1217	0.0500	0	1	0.474	88	82	82
127	1	432	1	2	2	0.1217	0.0500	1	1	0.430	92	0	82
127	1	433	0	1	3	0.1217	0.0500	1	0	0.614	0	0	82
127	1	434	1	1	3	0.1217	0.0500	0	1	0.559	79	82	82
127	1	435	1	1	1	0.1217	0.0500	0	1	0.515	84	82	82
127	1	436	1	1	1	0.1217	0.0500	0	1	0.520	83	82	82
127	1	437	1	1	3	0.1217	0.0500	1	0	0.507	0	82	0
127	1	438	0	2	2	0.1217	0.0500	0	1	0.663	7	0	0
127	1	439	9	2	3	0.1217	0.0500	0	1	0.485	0	82	82
127	1	440	0	1	1	0.1217	0.0500	1	0	0.620	0	0	82
127	1	441	1	2	3	0.1217	0.0500	0	1	0.440	91	82	82
127	1	442	0	2	2	0.1217	0.0500	0	1	0.433	9	0	0
127	1	443	0	2	2	0.1217	0.0500	1	1	0.537	8	82	0
127	1	444	1	2	3	0.1217	0.0500	1	0	0.723	0	0	82
127	1	445	0	1	3	0.1217	0.0500	0	1	0.608	7	0	0
127	1	446	0	1	3	0.1217	0.0500	0	1	0.471	9	0	0
127	1	447	1	2	2	0.1217	0.0500	1	1	0.543	81	0	82
127	1	448	1	1	1	0.1217	0.0500	1	1	0.554	80	82	0
127	1	449	0	2	3	0.1217	0.0500	0	1	0.703	6	0	0
127	1	450	1	2	3	0.1217	0.0500	1	1	0.755	59	0	82
127	1	451	0	2	3	0.1217	0.0500	1	1	0.647	7	82	0
127	1	452	9	2	3	0.1217	0.0500	0	1	0.567	0	0	0
127	1	453	0	1	3	0.1217	0.0500	1	1	0.746	6	0	82
127	1	454	1	2	2	0.1217	0.0500	0	1	0.536	81	82	82
127	1	455	9	1	3	0.1217	0.0500	1	1	0.411	0	82	0
127	1	456	9	2	2	0.1217	0.0500	0	1	0.434	0	0	0
127	1	457	1	1	2	0.1217	0.0500	1	1	0.443	91	82	0
127	1	458	1	2	3	0.1217	0.0500	0	1	0.436	91	82	82
127	1	459	0	2	2	0.1217	0.0500	0	0	0.347	0	0	0
127	1	460	0	1	1	0.1217	0.0500	1	0	0.558	0	0	82
127	1	461	1	2	3	0.1217	0.0500	1	1	0.529	82	0	82
127	1	462	0	2	2	0.1217	0.0500	0	0	0.429	0	0	0
127	1	463	1	2	1	0.1217	0.0500	0	1	0.485	87	82	82
127	1	464	0	2	3	0.1217	0.0500	0	1	0.397	10	0	0
127	1	465	1	2	2	0.1217	0.0500	1	1	0.485	86	0	82
127	1	466	9	2	2	0.1217	0.0500	0	1	0.404	0	0	0
127	1	467	9	1	1	0.1217	0.0500	0	1	0.620	0	0	0
127	1	468	9	2	3	0.1217	0.0500	1	1	0.523	0	82	0
127	1	469	1	1	3	0.1217	0.0500	0	1	0.486	86	82	82
127	1	470	0	1	3	0.1217	0.0500	0	1	0.444	9	0	0
127	1	471	0	2	1	0.1217	0.0500	1	0	0.539	0	82	0
127	1	472	9	1	2	0.1217	0.0500	0	1	0.367	0	0	0
127	1	473	0	2	3	0.1217	0.0500	1	0	0.619	0	82	0
127	1	474	9	2	1	0.1217	0.0500	0	0	0.666	0	0	0
127	1	475	1	2	3	0.1217	0.0500	1	1	0.552	80	0	82
127	1	476	1	1	3	0.1217	0.0500	0	1	0.538	81	82	82
127	1	477	0	1	1	0.1217	0.0500	1	0	0.646	0	0	82
127	1	478	0	1	3	0.1217	0.0500	1	0	0.580	0	0	82
127	1	479	0	2	2	0.1217	0.0500	1	1	0.600	7	82	0
127	1	480	1	1	3	0.1217	0.0500	1	1	0.555	80	82	0
127	1	481	0	1	3	0.1217	0.0500	0	1	0.508	8	0	0
127	1	482	1	1	1	0.1217	0.0500	0	1	0.584	77	82	82
127	1	483	1	1	1	0.1217	0.0500	1	1	0.411	94	82	0
127	1	484	9	1	3	0.1217	0.0500	1	1	0.420	0	82	0
127	1	485	0	1	3	0.1217	0.0500	1	0	0.621	0	0	82
127	1	486	0	2	3	0.1217	0.0500	1	0	0.676	0	82	0
127	1	487	1	2	1	0.1217	0.0500	0	1	0.418	93	82	82
127	1	488	1	1	3	0.1217	0.0500	1	1	0.420	93	82	0
127	1	489	1	2	3	0.1217	0.0500	0	1	0.565	78	82	82
127	1	490	1	2	2	0.1217	0.0500	0	0	0.649	0	82	82
127	1	491	1	2	3	0.1217	0.0500	0	1	0.528	82	82	82
127	1	492	0	1	1	0.1217	0.0500	0	1	0.470	9	0	0
127	1	493	0	2	3	0.1217	0.0500	0	1	0.517	8	0	0
127	1	494	0	1	3	0.1217	0.0500	1	1	0.730	6	0	82
127	1	495	0	1	1	0.1217	0.0500	0	1	0.421	9	0	0
127	1	496	1	1	1	0.1217	0.0500	0	1	0.446	90	82	82
127	1	497	1	1	1	0.1217	0.0500	0	1	0.391	96	82	82
127	1	498	1	2	2	0.1217	0.0500	0	0	0.488	0	82	82
127	1	499	9	2	2	0.1217	0.0500	1	1	0.630	0	82	0
127	1	500	1	1	2	0.1217	0.0500	1	0	0.717	0	82	0
127	1	501	0	1	3	0.1217	0.0500	0	1	0.467	9	0	0
127	1	502	9	2	3	0.1217	0.0500	0	0	0.474	0	0	0
127	1	503	1	1	2	0.1217	0.0500	1	0	0.624	0	82	0
127	1	504	0	2	2	0.1217	0.0500	1	1	0.505	8	82	0
127	1	505	9	2	3	0.1217	0.0500	1	1	0.629	0	82	0
127	1	506	1	1	1	0.1217	0.0500	1	1	0.516	83	82	0
127	1	507	1	2	3	0.1217	0.0500	0	1	0.608	74	82	82
127	1	508	9	1	2	0.1217	0.0500	1	1	0.787	0	0	82
127	1	509	1	2	3	0.1217	0.0500	0	1	0.479	87	82	82
127	1	510	0	1	3	0.1217	0.0500	0	1	0.677	7	0	0
127	1	511	9	1	2	0.1217	0.0500	1	1	0.419	0	82	0
127	1	512	0	1	3	0.1217	0.0500	0	1	0.458	9	0	0
127	1	513	9	1	1	0.1217	0.0500	1	1	0.419	0	82	0
127	1	514	9	1	1	0.1217	0.0500	0	1	0.430	0	82	82
127	1	515	0	2	2	0.1217	0.0500	1	1	0.757	6	82	0
127	1	516	1	1	3	0.1217	0.0500	1	1	0.505	85	82	0
127	1	517	1	2	2	0.1217	0.0500	1	1	0.509	84	0	82
127	1	518	9	2	2	0.1217	0.0500	0	1	0.571	0	82	82
127	1	519	1	2	1	0.1217	0.0500	1	1	0.591	76	0	82
127	1	520	1	2	2	0.1217	0.0500	1	1	0.521	83	0	82
127	1	521	9	2	3	0.1217	0.0500	1	1	0.554	0	82	0
127	1	522	0	1	3	0.1217	0.0500	0	1	0.494	9	0	0
127	1	523	9	2	3	0.1217	0.0500	1	1	0.452	0	0	82
127	1	524	0	1	3	0.1217	0.0500	1	1	0.739	6	0	82
127	1	525	9	2	2	0.1217	0.0500	0	1	0.448	0	82	82
127	1	526	0	1	1	0.1217	0.0500	1	0	0.592	0	0	82
127	1	527	9	2	1	0.1217	0.0500	1	1	0.672	0	0	82
127	1	528	1	1	1	0.1217	0.0500	1	1	0.431	92	82	0
127	1	529	0	1	3	0.1217	0.0500	1	1	0.631	7	0	82
127	1	530	0	1	1	0.1217	0.0500	1	1	0.631	7	0	82
127	1	531	1	2	2	0.1217	0.0500	0	1	0.631	72	82	82
127	1	532	0	1	1	0.1217	0.0500	0	1	0.471	9	0	0
127	1	533	1	1	1	0.1217	0.0500	0	1	0.487	86	82	82
127	1	534	0	2	3	0.1217	0.0500	0	1	0.526	8	0	0
127	1	535	0	2	2	0.1217	0.0500	1	0	0.676	0	82	0
127	1	536	1	1	3	0.1217	0.0500	0	1	0.460	89	82	82
127	1	537	1	1	2	0.1217	0.0500	0	1	0.412	94	82	82
127	1	538	1	1	3	0.1217	0.0500	0	1	0.381	97	82	82
127	1	539	9	1	1	0.1217	0.0500	1	1	0.503	0	82	0
127	1	540	0	2	3	0.1217	0.0500	0	1	0.525	8	0	0
127	1	541	1	2	2	0.1217	0.0500	1	0	0.542	0	0	82
127	1	542	0	1	1	0.1217	0.0500	1	0	0.640	0	0	82
127	1	543	0	2	2	0.1217	0.0500	0	1	0.432	9	0	0
127	1	544	1	1	3	0.1217	0.0500	1	1	0.440	91	82	0
127	1	545	1	1	3	0.1217	0.0500	0	1	0.384	97	82	82
127	1	546	0	2	2	0.1217	0.0500	0	0	0.443	0	0	0
127	1	547	1	2	3	0.1217	0.0500	1	0	0.737	0	0	82
127	1	548	1	1	2	0.1217	0.0500	0	1	0.604	75	82	82
127	1	549	0	2	2	0.1217	0.0500	0	1	0.734	6	0	0
127	1	550	1	1	3	0.1217	0.0500	1	1	0.457	89	82	0
127	1	551	9	1	1	0.1217	0.0500	1	1	0.392	0	82	0
127	1	552	1	1	3	0.1217	0.0500	1	0	0.488	0	82	0
127	1	553	1	1	1	0.1217	0.0500	1	1	0.469	88	82	0
127	1	554	0	1	2	0.1217	0.0500	1	1	0.803	5	0	82
127	1	555	9	1	3	0.1217	0.0500	0	1	0.491	0	82	82
127	1	556	9	1	2	0.1217	0.0500	0	1	0.504	0	82	82
127	1	557	9	1	3	0.1217	0.0500	1	0	0.517	0	82	0
127	1	558	0	1	1	0.1217	0.0500	0	1	0.411	9	0	0
127	1	559	1	1	2	0.1217	0.0500	0	1	0.412	94	82	82
127	1	560	1	2	3	0.1217	0.0500	1	1	0.429	92	0	82
127	1	561	0	2	1	0.1217	0.0500	1	1	0.611	7	82	0
127	1	562	0	1	2	0.1217	0.0500	0	1	0.430	9	0	0
127	1	563	0	1	3	0.1217	0.0500	0	1	0.429	9	0	0
127	1	564	0	2	3	0.1217	0.0500	0	1	0.438	9	0	0
127	1	565	0	1	3	0.1217	0.0500	0	1	0.406	9	0	0
127	1	566	1	2	2	0.1217	0.0500	0	1	0.472	88	82	82
127	1	567	0	2	3	0.1217	0.0500	1	0	0.583	0	82	0
127	1	568	0	1	1	0.1217	0.0500	1	0	0.505	0	0	82
127	1	569	9	2	2	0.1217	0.0500	1	0	0.649	0	82	0
127	1	570	9	2	3	0.1217	0.0500	1	0	0.666	0	0	82
127	1	571	0	2	1	0.1217	0.0500	0	1	0.426	9	0	0
127	1	572	1	2	2	0.1217	0.0500	0	1	0.418	93	82	82
127	1	573	0	1	3	0.1217	0.0500	0	1	0.561	8	0	0
127	1	574	1	1	3	0.1217	0.0500	1	1	0.492	86	82	0
127	1	575	9	1	1	0.1217	0.0500	1	1	0.475	0	82	0
127	1	576	0	1	3	0.1217	0.0500	1	1	0.697	7	0	82
127	1	577	0	2	3	0.1217	0.0500	1	0	0.726	0	82	0
127	1	578	9	1	1	0.1217	0.0500	0	1	0.418	0	82	82
127	1	579	1	2	1	0.1217	0.0500	1	1	0.491	86	0	82
127	1	580	9	1	3	0.1217	0.0500	0	1	0.546	0	0	0
127	1	581	1	2	2	0.1217	0.0500	1	1	0.439	91	0	82
127	1	582	1	1	3	0.1217	0.0500	1	0	0.568	0	82	0
127	1	583	0	2	2	0.1217	0.0500	1	0	0.619	0	82	0
127	1	584	0	1	1	0.1217	0.0500	1	1	0.581	8	0	82
127	1	585	1	2	2	0.1217	0.0500	0	1	0.584	77	82	82
127	1	586	1	2	2	0.1217	0.0500	1	1	0.490	86	0	82
127	1	587	1	2	2	0.1217	0.0500	1	1	0.446	90	0	82
127	1	588	1	1	3	0.1217	0.0500	0	1	0.467	88	82	82
127	1	589	9	1	3	0.1217	0.0500	0	1	0.449	0	0	0
127	1	590	0	1	3	0.1217	0.0500	1	0	0.537	0	0	82
127	1	591	0	1	1	0.1217	0.0500	1	1	0.539	8	0	82
127	1	592	0	2	1	0.1217	0.0500	0	1	0.455	9	0	0
127	1	593	1	2	2	0.1217	0.0500	1	1	0.430	92	0	82
127	1	594	0	2	3	0.1217	0.0500	0	0	0.572	0	0	0
127	1	595	0	2	2	0.1217	0.0500	1	1	0.544	8	82	0
127	1	596	0	2	2	0.1217	0.0500	0	0	0.547	0	0	0
127	1	597	0	2	3	0.1217	0.0500	0	1	0.543	8	0	0
127	1	598	1	2	2	0.1217	0.0500	0	1	0.513	84	82	82
127	1	599	9	2	2	0.1217	0.0500	1	1	0.583	0	0	82
127	1	600	1	1	2	0.1217	0.0500	1	1	0.627	72	82	0
127	1	601	0	2	3	0.1217	0.0500	1	1	0.477	9	82	0
127	1	602	0	1	1	0.1217	0.0500	0	1	0.538	8	0	0
127	1	603	1	1	3	0.1217	0.0500	1	1	0.468	88	82	0
127	1	604	1	1	3	0.1217	0.0500	1	1	0.499	85	82	0
127	1	605	0	1	1	0.1217	0.0500	0	1	0.491	9	0	0
127	1	606	0	1	1	0.1217	0.0500	1	1	0.600	8	0	82
127	1	607	0	1	1	0.1217	0.0500	0	1	0.434	9	0	0
127	1	608	1	1	3	0.1217	0.0500	1	1	0.409	94	82	0
127	1	609	1	2	3	0.1217	0.0500	1	1	0.433	92	0	82
127	1	610	1	1	3	0.1217	0.0500	1	1	0.506	84	82	0
127	1	611	0	1	1	0.1217	0.0500	0	1	0.457	9	0	0
127	1	612	0	2	3	0.1217	0.0500	1	0	2.842	0	82	0
127	1	613	0	1	1	0.1217	0.0500	0	1	0.511	8	0	0
127	1	614	9	1	1	0.1217	0.0500	1	0	0.541	0	0	82
127	1	615	1	2	2	0.1217	0.0500	1	0	0.503	0	0	82
127	1	616	0	1	1	0.1217	0.0500	0	0	0.846	0	0	0
127	1	617	1	1	1	0.1217	0.0500	0	1	0.462	89	82	82
127	1	618	9	2	3	0.1217	0.0500	0	1	0.454	0	0	0
127	1	619	1	1	3	0.1217	0.0500	0	1	0.551	80	82	82
127	1	620	1	1	1	0.1217	0.0500	1	1	0.498	85	82	0
127	1	621	1	1	1	0.1217	0.0500	1	1	0.499	85	82	0
127	1	622	9	1	3	0.1217	0.0500	0	1	0.351	0	0	0
127	1	623	0	2	2	0.1217	0.0500	0	1	0.402	9	0	0
127	1	624	0	1	3	0.1217	0.0500	1	0	0.475	0	0	82
127	1	625	1	2	3	0.1217	0.0500	1	0	0.467	0	0	82
127	1	626	1	1	1	0.1217	0.0500	1	1	0.457	89	82	0
127	1	627	1	2	2	0.1217	0.0500	0	1	0.434	92	82	82
127	1	628	0	2	2	0.1217	0.0500	0	1	0.428	9	0	0
127	1	629	0	2	3	0.1217	0.0500	1	0	0.699	0	82	0
127	1	630	1	2	3	0.1217	0.0500	1	1	0.473	88	0	82
127	1	631	1	2	2	0.1217	0.0500	0	1	0.454	90	82	82
127	1	632	9	1	1	0.1217	0.0500	1	1	0.600	0	0	82
127	1	633	9	2	3	0.1217	0.0500	0	1	0.465	0	82	82
127	1	634	9	1	1	0.1217	0.0500	0	1	0.401	0	0	0
127	1	635	0	1	1	0.1217	0.0500	1	1	0.683	7	0	82
127	1	636	1	2	1	0.1217	0.0500	1	1	0.450	90	0	82
127	1	637	9	2	2	0.1217	0.0500	1	1	0.401	0	0	82
127	1	638	1	1	3	0.1217	0.0500	0	1	0.706	64	82	82
127	1	639	0	1	1	0.1217	0.0500	1	1	0.553	8	0	82
127	1	640	0	2	1	0.1217	0.0500	0	1	0.406	9	0	0
127	1	641	0	2	3	0.1217	0.0500	0	1	0.531	8	0	0
127	1	642	0	1	1	0.1217	0.0500	1	0	0.670	0	0	82
127	1	643	1	2	2	0.1217	0.0500	0	1	0.533	82	82	82
127	1	644	0	2	2	0.1217	0.0500	1	1	0.769	6	82	0
127	1	645	0	2	1	0.1217	0.0500	1	1	0.789	6	82	0
127	1	646	1	1	3	0.1217	0.0500	0	1	0.505	85	82	82
127	1	647	1	2	3	0.1217	0.0500	0	1	0.479	87	82	82
127	1	648	9	1	3	0.1217	0.0500	0	1	0.564	0	82	82
127	1	649	0	2	3	0.1217	0.0500	0	1	0.560	8	0	0
127	1	650	0	1	3	0.1217	0.0500	0	1	0.426	9	0	0
127	1	651	1	1	1	0.1217	0.0500	1	1	0.616	73	82	0
127	1	652	0	1	1	0.1217	0.0500	1	0	0.611	0	0	82
127	1	653	9	1	3	0.1217	0.0500	0	1	0.458	0	82	82
127	1	654	0	1	3	0.1217	0.0500	0	1	0.425	9	0	0
127	1	655	9	1	3	0.1217	0.0500	0	1	0.403	0	82	82
127	1	656	9	2	2	0.1217	0.0500	0	1	0.365	0	0	0
127	1	657	0	2	3	0.1217	0.0500	1	1	1.023	5	82	0
127	1	658	0	2	2	0.1217	0.0500	1	1	0.598	8	82	0
127	1	659	9	2	3	0.1217	0.0500	0	1	0.520	0	82	82
127	1	660	0	1	3	0.1217	0.0500	1	0	0.691	0	0	82
127	1	661	0	2	3	0.1217	0.0500	1	1	0.655	7	82	0
127	1	662	9	1	1	0.1217	0.0500	0	1	0.384	0	0	0
127	1	663	0	2	3	0.1217	0.0500	1	1	0.577	8	82	0
127	1	664	0	1	2	0.1217	0.0500	0	1	0.449	9	0	0
127	1	665	1	1	1	0.1217	0.0500	0	1	0.432	92	82	82
127	1	666	9	2	2	0.1217	0.0500	1	0	0.554	0	82	0
127	1	667	0	1	3	0.1217	0.0500	0	1	0.462	9	0	0
127	1	668	0	2	2	0.1217	0.0500	0	1	0.540	8	0	0
127	1	669	1	1	3	0.1217	0.0500	0	1	0.449	90	82	82
127	1	670	0	2	3	0.1217	0.0500	0	1	0.475	9	0	0
127	1	671	9	2	3	0.1217	0.0500	0	1	0.431	0	0	0
127	1	672	9	1	3	0.1217	0.0500	1	0	0.447	0	82	0
127	1	673	0	2	1	0.1217	0.0500	1	1	0.462	9	82	0
127	1	674	0	2	2	0.1217	0.0500	1	1	0.589	8	82	0
127	1	675	9	1	1	0.1217	0.0500	0	1	0.424	0	0	0
127	1	676	1	1	1	0.1217	0.0500	1	1	0.569	78	82	0
127	1	677	1	2	3	0.1217	0.0500	1	1	0.427	92	0	82
127	1	678	1	1	1	0.1217	0.0500	1	1	0.389	96	82	0
127	1	679	9	2	3	0.1217	0.0500	1	1	0.656	0	82	0
127	1	680	1	2	3	0.1217	0.0500	0	1	0.534	82	82	82
127	1	681	9	1	1	0.1217	0.0500	1	0	0.692	0	0	82
127	1	682	9	1	1	0.1217	0.0500	1	0	0.768	0	0	82
127	1	683	1	2	3	0.1217	0.0500	0	0	0.569	0	82	82
127	1	684	1	1	1	0.1217	0.0500	0	1	0.446	90	82	82
127	1	685	0	1	3	0.1217	0.0500	1	0	0.543	0	0	82
127	1	686	1	1	2	0.1217	0.0500	0	1	0.474	88	82	82
127	1	687	9	2	3	0.1217	0.0500	0	1	0.498	0	82	82
127	1	688	0	1	1	0.1217	0.0500	0	1	0.391	10	0	0
127	1	689	9	2	1	0.1217	0.0500	1	1	0.584	0	82	0
127	1	690	1	1	3	0.1217	0.0500	0	1	0.508	84	82	82
127	1	691	9	2	2	0.1217	0.0500	0	1	0.426	0	82	82
127	1	692	0	2	3	0.1217	0.0500	1	1	0.523	8	82	0
127	1	693	1	1	1	0.1217	0.0500	0	1	0.376	97	82	82
127	1	694	1	2	2	0.1217	0.0500	0	1	0.452	90	82	82
127	1	695	1	1	1	0.1217	0.0500	0	1	0.484	87	82	82
127	1	696	1	2	2	0.1217	0.0500	0	1	0.444	91	82	82
127	1	697	1	2	3	0.1217	0.0500	0	1	0.460	89	82	82
127	1	698	9	1	3	0.1217	0.0500	0	1	0.346	0	0	0
127	1	699	9	2	2	0.1217	0.0500	1	1	0.575	0	0	82
127	1	700	0	1	2	0.1217	0.0500	1	0	0.690	0	0	82
127	1	701	1	2	2	0.1217	0.0500	0	1	0.429	92	82	82
127	1	702	9	2	3	0.1217	0.0500	1	1	0.436	0	0	82
127	1	703	1	1	1	0.1217	0.0500	1	1	0.523	83	82	0
127	1	704	0	2	3	0.1217	0.0500	1	0	0.592	0	82	0
127	1	705	0	1	3	0.1217	0.0500	0	1	0.499	9	0	0
127	1	706	0	2	2	0.1217	0.0500	0	1	0.472	9	0	0
127	1	707	0	2	2	0.1217	0.0500	0	1	0.405	9	0	0
127	1	708	0	2	2	0.1217	0.0500	1	0	0.541	0	82	0
127	1	709	1	2	3	0.1217	0.0500	0	1	0.512	84	82	82
127	1	710	0	2	2	0.1217	0.0500	0	1	0.397	10	0	0
127	1	711	0	2	2	0.1217	0.0500	1	1	0.615	7	82	0
127	1	712	0	1	1	0.1217	0.0500	1	1	0.766	6	0	82
127	1	713	0	2	3	0.1217	0.0500	1	0	0.552	0	82	0
127	1	714	0	2	2	0.1217	0.0500	0	1	0.436	9	0	0
127	1	715	1	1	1	0.1217	0.0500	0	1	0.452	90	82	82
127	1	716	1	1	3	0.1217	0.0500	0	1	0.378	97	82	82
127	1	717	1	2	3	0.1217	0.0500	0	1	0.499	85	82	82
127	1	718	1	2	3	0.1217	0.0500	1	1	0.455	89	0	82
127	1	719	1	1	3	0.1217	0.0500	1	1	0.549	80	82	0
127	1	720	1	1	1	0.1217	0.0500	0	1	0.425	93	82	82
