sub	sess	t	loc	co1	co2	or	resp	rt
146	1	1	1	1.0000	1.0000	1	1	2.695
146	1	2	2	1.0000	1.0000	0	1	1.127
146	1	3	1	1.0000	1.0000	1	1	1.014
146	1	4	2	1.0000	1.0000	1	1	0.839
146	1	5	1	1.0000	1.0000	1	1	0.762
146	1	6	2	1.0000	1.0000	0	1	1.038
146	1	7	1	1.0000	1.0000	0	1	0.766
146	1	8	2	1.0000	1.0000	1	1	0.764
146	1	9	2	1.0000	1.0000	1	1	0.727
146	1	10	1	1.0000	1.0000	0	1	0.950
146	1	11	1	1.0000	1.0000	1	1	1.003
146	1	12	2	1.0000	1.0000	0	1	0.597
146	1	13	1	1.0000	1.0000	1	1	1.573
146	1	14	1	1.0000	1.0000	0	1	0.622
146	1	15	2	1.0000	1.0000	1	1	0.851
146	1	16	2	1.0000	1.0000	0	1	0.601
146	1	17	1	1.0000	1.0000	0	1	1.030
146	1	18	2	1.0000	1.0000	1	1	0.614
146	1	19	1	1.0000	1.0000	0	1	0.588
146	1	20	1	1.0000	1.0000	0	1	0.654
146	1	21	2	1.0000	1.0000	0	1	0.729
146	1	22	2	1.0000	1.0000	1	1	0.679
146	1	23	1	1.0000	1.0000	1	1	0.852
146	1	24	2	1.0000	1.0000	0	1	0.574
146	1	25	1	1.0000	1.0000	0	1	0.637
146	1	26	1	1.0000	1.0000	0	1	1.403
146	1	27	2	1.0000	1.0000	1	1	0.629
146	1	28	1	1.0000	1.0000	1	1	0.684
146	1	29	1	0.2500	0.2500	0	1	0.594
146	1	30	2	0.2629	0.2629	0	1	1.274
146	1	31	1	0.2758	0.2758	0	1	0.568
146	1	32	1	0.2887	0.2887	0	1	0.563
146	1	33	2	0.3016	0.3016	1	1	0.595
146	1	34	1	0.3145	0.3145	1	1	0.762
146	1	35	2	0.3274	0.3274	0	0	1.719
146	1	36	2	0.3403	0.3403	1	1	0.560
146	1	37	1	0.3532	0.3532	0	1	2.280
146	1	38	1	0.3661	0.3661	1	1	0.723
146	1	39	2	0.3790	0.3790	1	1	0.627
146	1	40	2	0.3919	0.3919	1	1	0.537
146	1	41	1	0.4048	0.4048	1	1	0.576
146	1	42	2	0.4177	0.4177	0	0	1.008
146	1	43	2	0.4306	0.4306	1	1	0.497
146	1	44	2	0.4435	0.4435	1	0	2.294
146	1	45	1	0.4565	0.4565	1	1	0.631
146	1	46	1	0.4694	0.4694	0	1	1.294
146	1	47	2	0.4823	0.4823	1	1	0.560
146	1	48	2	0.4952	0.4952	0	1	2.481
146	1	49	1	0.5081	0.5081	0	1	0.722
146	1	50	1	0.5210	0.5210	1	1	0.590
146	1	51	1	0.5339	0.5339	1	1	0.582
146	1	52	1	0.5468	0.5468	1	1	0.619
146	1	53	2	0.5597	0.5597	0	1	0.548
146	1	54	2	0.5726	0.5726	1	1	0.690
146	1	55	2	0.5855	0.5855	1	1	0.633
146	1	56	1	0.5984	0.5984	1	1	0.554
146	1	57	1	0.6113	0.6113	1	1	0.584
146	1	58	1	0.6242	0.6242	0	1	0.777
146	1	59	1	0.6371	0.6371	0	1	0.709
146	1	60	1	0.6500	0.6500	1	1	0.641
146	1	61	1	0.2500	0.2500	0	1	0.700
146	1	62	1	0.2629	0.2629	1	1	0.868
146	1	63	2	0.2758	0.2758	1	1	0.660
146	1	64	2	0.2887	0.2887	1	1	0.600
146	1	65	2	0.3016	0.3016	0	1	0.483
146	1	66	1	0.3145	0.3145	0	1	2.113
146	1	67	2	0.3274	0.3274	0	0	0.827
146	1	68	1	0.3403	0.3403	0	1	0.893
146	1	69	1	0.3532	0.3532	1	1	0.815
146	1	70	2	0.3661	0.3661	0	0	1.476
146	1	71	2	0.3790	0.3790	0	1	1.338
146	1	72	1	0.3919	0.3919	1	1	0.758
146	1	73	2	0.4048	0.4048	0	1	0.645
146	1	74	2	0.4177	0.4177	1	1	0.826
146	1	75	2	0.4306	0.4306	0	1	0.776
146	1	76	1	0.4435	0.4435	1	1	1.031
146	1	77	2	0.4565	0.4565	1	1	0.820
146	1	78	2	0.4694	0.4694	0	0	1.062
146	1	79	2	0.4823	0.4823	1	1	0.839
146	1	80	2	0.4952	0.4952	0	1	0.650
146	1	81	1	0.5081	0.5081	1	1	0.846
146	1	82	2	0.5210	0.5210	1	1	1.029
146	1	83	2	0.5339	0.5339	0	1	0.727
146	1	84	2	0.5468	0.5468	1	1	1.907
146	1	85	1	0.5597	0.5597	0	1	0.747
146	1	86	1	0.5726	0.5726	0	1	0.696
146	1	87	1	0.5855	0.5855	0	1	0.586
146	1	88	2	0.5984	0.5984	0	1	0.687
146	1	89	1	0.6113	0.6113	0	1	0.623
146	1	90	1	0.6242	0.6242	1	1	0.894
146	1	91	2	0.6371	0.6371	0	1	0.607
146	1	92	1	0.6500	0.6500	0	1	0.720
146	1	93	2	0.6500	0.4121	0	1	0.876
146	1	94	2	0.6500	0.4070	0	1	0.535
146	1	95	1	0.1657	0.4070	1	1	1.022
146	1	96	2	0.1657	0.4021	0	1	1.533
146	1	97	2	0.1657	0.3974	0	1	0.717
146	1	98	1	0.1543	0.3974	0	1	1.137
146	1	99	1	0.1428	0.3974	0	1	0.622
146	1	100	2	0.1428	0.3929	0	1	0.591
146	1	101	2	0.1428	0.3884	0	1	1.244
146	1	102	1	0.1312	0.3884	0	1	0.978
146	1	103	2	0.1312	0.3842	0	1	0.715
146	1	104	1	0.1195	0.3842	1	1	0.767
146	1	105	1	0.1078	0.3842	1	1	1.341
146	1	106	1	0.0961	0.3842	0	1	0.616
146	1	107	1	0.0845	0.3842	0	1	1.130
146	1	108	1	0.0730	0.3842	0	1	0.679
146	1	109	2	0.0730	0.3800	0	1	1.601
146	1	110	2	0.0730	0.3760	1	1	0.716
146	1	111	2	0.0730	0.3721	1	1	0.747
146	1	112	1	0.0617	0.3721	1	0	1.462
146	1	113	1	0.0941	0.3721	1	1	0.721
146	1	114	2	0.0941	0.3683	1	1	0.822
146	1	115	1	0.0845	0.3683	1	0	2.510
146	1	116	2	0.0845	0.3647	1	1	0.888
146	1	117	1	0.1118	0.3647	1	0	1.627
146	1	118	2	0.1118	0.3610	0	1	0.514
146	1	119	2	0.1118	0.3575	1	1	0.739
146	1	120	1	0.1369	0.3575	0	1	0.772
146	1	121	2	0.1369	0.3541	0	1	0.625
146	1	122	2	0.1369	0.3507	1	0	1.348
146	1	123	2	0.1369	0.3605	0	1	0.739
146	1	124	2	0.1369	0.3573	0	1	0.609
146	1	125	1	0.1291	0.3573	0	1	0.836
146	1	126	2	0.1291	0.3541	0	1	0.703
146	1	127	1	0.1216	0.3541	0	1	1.014
146	1	128	2	0.1216	0.3509	0	1	0.927
146	1	129	2	0.1216	0.3479	1	1	0.818
146	1	130	2	0.1216	0.3450	1	1	0.903
146	1	131	1	0.1144	0.3450	1	1	1.055
146	1	132	1	0.1073	0.3450	0	1	0.699
146	1	133	1	0.1004	0.3450	1	1	0.689
146	1	134	1	0.0938	0.3450	1	0	2.471
146	1	135	2	0.0938	0.3420	1	1	0.668
146	1	136	1	0.1126	0.3420	1	1	0.739
146	1	137	1	0.1064	0.3420	0	1	0.799
146	1	138	2	0.1064	0.3391	1	1	0.771
146	1	139	1	0.1004	0.3391	1	1	0.770
146	1	140	1	0.0946	0.3391	0	1	0.810
146	1	141	1	0.0890	0.3391	1	1	0.664
146	1	142	2	0.0890	0.3364	0	1	1.221
146	1	143	2	0.0890	0.3336	1	1	2.708
146	1	144	1	0.0836	0.3336	1	0	1.256
146	1	145	2	0.0836	0.3309	1	1	0.631
146	1	146	1	0.0990	0.3309	0	1	0.718
146	1	147	2	0.0990	0.3282	1	1	0.502
146	1	148	2	0.0990	0.3257	0	1	0.439
146	1	149	1	0.0938	0.3257	0	1	0.656
146	1	150	1	0.0888	0.3257	1	1	1.895
146	1	151	2	0.0888	0.3231	1	0	1.402
146	1	152	1	0.0839	0.3231	1	0	1.082
146	1	153	2	0.0839	0.3304	1	0	1.241
146	1	154	1	0.0977	0.3304	0	1	0.627
146	1	155	2	0.0977	0.3379	1	1	0.569
146	1	156	1	0.0930	0.3379	0	1	0.602
