sub	sess	t	rew	loc	cue	co1	co2	or	resp	rt	rew_tot	left_col	right_col
48	1	1	0	1	3	0.0500	0.0649	0	0	0.849	0	82	82
48	1	2	1	2	2	0.0500	0.0649	0	1	4.410	50	0	0
48	1	3	9	2	2	0.0500	0.0649	1	1	0.778	0	82	0
48	1	4	0	1	2	0.0500	0.0649	1	1	0.662	7	82	0
48	1	5	0	1	3	0.0500	0.0649	0	1	0.695	7	82	82
48	1	6	9	1	1	0.0500	0.0649	1	1	0.500	0	82	0
48	1	7	9	1	3	0.0500	0.0649	0	1	0.680	0	0	0
48	1	8	0	1	2	0.0500	0.0649	0	1	0.492	9	82	82
48	1	9	1	2	1	0.0500	0.0649	1	1	0.508	84	82	0
48	1	10	9	1	3	0.0500	0.0649	1	0	0.744	0	0	82
48	1	11	0	2	3	0.0500	0.0649	0	1	0.593	8	82	82
48	1	12	0	2	3	0.0500	0.0649	1	1	0.521	8	0	82
48	1	13	9	1	3	0.0500	0.0649	0	1	0.465	0	0	0
48	1	14	1	1	1	0.0500	0.0649	0	1	0.663	69	0	0
48	1	15	1	2	3	0.0500	0.0649	1	1	0.444	91	82	0
48	1	16	1	2	3	0.0500	0.0649	1	1	0.408	94	82	0
48	1	17	1	2	3	0.0500	0.0649	0	1	0.478	87	0	0
48	1	18	0	2	2	0.0500	0.0649	1	1	0.522	8	0	82
48	1	19	1	2	2	0.0500	0.0649	1	1	0.430	92	82	0
48	1	20	1	1	1	0.0500	0.0649	1	1	0.580	77	0	82
48	1	21	9	2	1	0.0500	0.0649	0	1	0.519	0	0	0
48	1	22	1	1	2	0.0500	0.0649	1	1	0.383	97	0	82
48	1	23	0	1	3	0.0500	0.0649	1	1	0.445	9	82	0
48	1	24	9	2	3	0.0500	0.0649	1	1	0.432	0	0	82
48	1	25	1	2	3	0.0500	0.0649	1	1	0.405	95	82	0
48	1	26	1	2	2	0.0500	0.0649	1	1	0.437	91	82	0
48	1	27	1	1	1	0.0500	0.0649	0	1	0.449	90	0	0
48	1	28	0	2	3	0.0500	0.0649	0	1	0.508	8	82	82
48	1	29	0	1	3	0.0500	0.0649	0	1	0.531	8	82	82
48	1	30	9	1	3	0.0500	0.0649	0	0	0.519	0	82	82
48	1	31	9	1	1	0.0500	0.0649	1	1	0.370	0	82	0
48	1	32	1	2	2	0.0500	0.0649	1	0	0.448	0	82	0
48	1	33	0	1	1	0.0500	0.0649	0	1	0.438	9	82	82
48	1	34	0	2	2	0.0500	0.0649	1	1	0.472	9	0	82
48	1	35	0	2	2	0.0500	0.0649	1	0	0.396	0	0	82
48	1	36	0	1	1	0.0500	0.0649	0	1	0.412	9	82	82
48	1	37	9	2	1	0.0500	0.0649	1	1	0.319	0	0	82
48	1	38	0	2	2	0.0500	0.0649	0	1	0.406	9	82	82
48	1	39	0	1	3	0.0500	0.0649	1	1	0.426	9	82	0
48	1	40	0	1	3	0.0500	0.0649	1	0	0.389	0	82	0
48	1	41	1	2	2	0.0500	0.0649	0	1	0.440	91	0	0
48	1	42	1	2	1	0.0500	0.0649	0	1	0.485	87	0	0
48	1	43	9	2	3	0.0500	0.0649	0	1	0.454	0	82	82
48	1	44	1	1	3	0.0500	0.0649	1	0	0.471	0	0	82
48	1	45	0	2	1	0.0500	0.0649	0	1	0.400	10	82	82
48	1	46	1	2	2	0.0500	0.0649	1	1	0.387	96	82	0
48	1	47	0	2	2	0.0500	0.0649	0	1	0.314	10	82	82
48	1	48	9	2	2	0.0500	0.0649	0	0	0.372	0	0	0
48	1	49	0	1	1	0.0500	0.0649	1	1	0.364	10	82	0
48	1	50	1	2	1	0.0500	0.0649	0	1	0.313	100	0	0
48	1	51	1	2	2	0.0500	0.0649	0	0	0.340	0	0	0
48	1	52	0	2	2	0.0500	0.0649	0	0	0.449	0	82	82
48	1	53	1	2	3	0.0500	0.0649	0	1	0.324	100	0	0
48	1	54	0	1	3	0.0500	0.0649	1	1	0.399	10	82	0
48	1	55	0	1	2	0.0500	0.0649	1	0	0.361	0	82	0
48	1	56	0	2	3	0.0500	0.0649	0	1	0.358	10	82	82
48	1	57	0	2	2	0.0500	0.0649	1	1	0.310	10	0	82
48	1	58	1	1	2	0.0500	0.0649	0	1	0.356	99	0	0
48	1	59	0	2	1	0.0500	0.0649	0	0	0.284	0	82	82
48	1	60	1	2	3	0.0500	0.0649	1	1	0.364	99	82	0
48	1	61	0	1	1	0.0500	0.0649	0	1	0.371	10	82	82
48	1	62	0	2	2	0.0500	0.0649	1	1	0.389	10	0	82
48	1	63	1	2	1	0.0500	0.0649	0	1	0.367	98	0	0
48	1	64	0	1	1	0.0500	0.0649	0	0	0.293	0	82	82
48	1	65	0	1	3	0.0500	0.0649	1	0	0.403	0	82	0
48	1	66	0	1	3	0.0500	0.0649	0	1	0.413	9	82	82
48	1	67	0	1	3	0.0500	0.0649	0	0	0.277	0	82	82
48	1	68	9	1	1	0.0500	0.0649	0	1	0.554	0	82	82
48	1	69	0	2	1	0.0500	0.0649	0	1	0.419	9	82	82
48	1	70	0	2	3	0.0500	0.0649	0	0	0.294	0	82	82
48	1	71	0	2	2	0.0500	0.0649	1	0	0.451	0	0	82
48	1	72	1	2	3	0.0500	0.0649	1	1	0.432	92	82	0
48	1	73	0	1	3	0.0500	0.0649	0	1	0.619	7	82	82
48	1	74	1	2	3	0.0500	0.0649	0	0	0.490	0	0	0
48	1	75	1	1	1	0.0500	0.0649	1	1	0.543	81	0	82
48	1	76	9	1	3	0.0500	0.0649	1	1	0.611	0	82	0
48	1	77	1	1	1	0.0500	0.0649	1	1	0.451	90	0	82
48	1	78	0	1	1	0.0500	0.0649	1	0	0.437	0	82	0
48	1	79	0	2	2	0.0500	0.0649	0	1	0.526	8	82	82
48	1	80	1	1	2	0.0500	0.0649	1	1	0.387	96	0	82
48	1	81	0	1	2	0.0500	0.0649	1	1	0.493	9	82	0
48	1	82	1	1	3	0.0500	0.0649	1	1	0.436	91	0	82
48	1	83	1	1	3	0.0500	0.0649	1	1	0.417	93	0	82
48	1	84	1	1	1	0.0500	0.0649	0	1	0.382	97	0	0
48	1	85	1	1	3	0.0500	0.0649	0	1	0.441	91	0	0
48	1	86	1	1	1	0.0500	0.0649	0	1	0.373	98	0	0
48	1	87	9	2	2	0.0500	0.0649	0	0	0.420	0	0	0
48	1	88	1	2	2	0.0500	0.0649	0	0	0.671	0	0	0
48	1	89	0	2	2	0.0500	0.0649	1	1	0.673	7	0	82
48	1	90	0	1	3	0.0500	0.0649	1	1	0.497	9	82	0
48	1	91	1	1	3	0.0500	0.0649	1	1	0.401	95	0	82
48	1	92	0	1	1	0.0500	0.0649	0	1	0.351	10	82	82
48	1	93	9	1	3	0.0500	0.0649	1	0	0.491	0	82	0
48	1	94	9	2	3	0.0500	0.0649	0	0	0.435	0	82	82
48	1	95	0	2	3	0.0500	0.0649	0	1	0.419	9	82	82
48	1	96	1	1	3	0.0500	0.0649	0	1	0.465	88	0	0
48	1	97	1	1	1	0.0500	0.0649	0	0	0.282	0	0	0
48	1	98	1	1	3	0.0500	0.0649	0	1	0.355	100	0	0
48	1	99	9	2	3	0.0500	0.0649	0	1	0.421	0	82	82
48	1	100	0	2	1	0.0500	0.0649	1	1	0.392	10	0	82
48	1	101	1	1	3	0.0500	0.0649	0	0	0.425	0	0	0
48	1	102	9	1	1	0.0500	0.0649	1	0	0.412	0	0	82
48	1	103	1	1	3	0.0500	0.0649	1	1	0.414	94	0	82
48	1	104	1	1	3	0.0500	0.0649	0	1	0.426	92	0	0
48	1	105	0	1	1	0.0500	0.0649	0	1	0.363	10	82	82
48	1	106	1	1	1	0.0500	0.0649	0	0	0.274	0	0	0
48	1	107	0	1	1	0.0500	0.0649	1	0	0.342	0	82	0
48	1	108	1	2	2	0.0500	0.0649	1	1	0.411	94	82	0
48	1	109	9	1	3	0.0500	0.0649	1	1	0.434	0	82	0
48	1	110	1	1	3	0.0500	0.0649	1	1	0.442	91	0	82
48	1	111	1	2	2	0.0500	0.0649	0	1	0.420	93	0	0
48	1	112	9	1	2	0.0500	0.0649	1	1	0.471	0	0	82
48	1	113	0	1	1	0.0500	0.0649	1	0	0.271	0	82	0
48	1	114	0	2	2	0.0500	0.0649	1	1	0.374	10	0	82
48	1	115	9	2	3	0.0500	0.0649	0	1	0.297	0	0	0
48	1	116	9	2	3	0.0500	0.0649	1	1	0.399	0	82	0
48	1	117	9	2	2	0.0500	0.0649	0	0	0.470	0	82	82
48	1	118	0	2	3	0.0500	0.0649	0	1	0.354	10	82	82
48	1	119	0	2	3	0.0500	0.0649	1	1	0.339	10	0	82
48	1	120	1	1	3	0.0500	0.0649	0	1	0.514	84	0	0
48	1	121	1	1	1	0.0500	0.0649	1	1	0.438	91	0	82
48	1	122	1	2	2	0.0500	0.0649	0	1	0.319	100	0	0
48	1	123	9	2	1	0.0500	0.0649	0	1	0.405	0	82	82
48	1	124	0	2	3	0.0500	0.0649	0	1	0.338	10	82	82
48	1	125	1	1	1	0.0500	0.0649	1	0	0.410	0	0	82
48	1	126	0	1	3	0.0500	0.0649	1	1	0.498	9	82	0
48	1	127	1	2	1	0.0500	0.0649	1	1	0.432	92	82	0
48	1	128	1	1	1	0.0500	0.0649	1	1	0.375	98	0	82
48	1	129	0	1	1	0.0500	0.0649	0	1	0.427	9	82	82
48	1	130	1	2	3	0.0500	0.0649	0	0	0.351	0	0	0
48	1	131	0	2	3	0.0500	0.0649	1	0	0.393	0	0	82
48	1	132	1	2	3	0.0500	0.0649	0	0	0.413	0	0	0
48	1	133	1	1	1	0.0500	0.0649	0	1	0.507	84	0	0
48	1	134	0	2	3	0.0500	0.0649	1	1	0.456	9	0	82
48	1	135	0	2	2	0.0500	0.0649	0	1	0.466	9	82	82
48	1	136	1	1	2	0.0500	0.0649	0	1	0.630	72	0	0
48	1	137	1	2	3	0.0500	0.0649	1	1	0.522	83	82	0
48	1	138	9	1	3	0.0500	0.0649	1	1	0.493	0	0	82
48	1	139	0	2	3	0.0500	0.0649	1	1	0.477	9	0	82
48	1	140	9	2	2	0.0500	0.0649	1	0	0.289	0	82	0
48	1	141	9	2	2	0.0500	0.0649	0	1	0.384	0	82	82
48	1	142	9	1	1	0.0500	0.0649	0	1	0.454	0	82	82
48	1	143	1	1	1	0.0500	0.0649	0	0	0.375	0	0	0
48	1	144	1	2	2	0.0500	0.0649	1	1	0.394	96	82	0
48	1	145	1	1	1	0.0500	0.0649	1	1	0.580	77	0	82
48	1	146	0	1	1	0.0500	0.0649	0	1	0.617	7	82	82
48	1	147	9	1	2	0.0500	0.0649	0	1	0.468	0	82	82
48	1	148	0	2	3	0.0500	0.0649	0	1	0.371	10	82	82
48	1	149	9	2	3	0.0500	0.0649	1	1	0.332	0	0	82
48	1	150	0	2	1	0.0500	0.0649	1	0	0.417	0	0	82
48	1	151	1	2	1	0.0500	0.0649	0	0	0.452	0	0	0
48	1	152	1	1	1	0.0500	0.0649	0	1	0.392	96	0	0
48	1	153	1	1	3	0.0500	0.0649	0	0	0.358	0	0	0
48	1	154	0	1	3	0.0500	0.0649	0	1	0.357	10	82	82
48	1	155	1	1	3	0.0500	0.0649	1	1	0.353	100	0	82
48	1	156	0	2	3	0.0500	0.0649	1	1	0.416	9	0	82
48	1	157	1	1	3	0.0500	0.0649	0	1	0.341	100	0	0
48	1	158	0	1	3	0.0500	0.0649	0	0	0.479	0	82	82
48	1	159	9	2	2	0.0500	0.0649	0	1	0.360	0	82	82
48	1	160	9	2	3	0.0500	0.0649	0	0	0.437	0	82	82
48	1	161	0	2	2	0.0500	0.0649	0	1	0.309	10	82	82
48	1	162	0	2	3	0.0500	0.0649	0	0	0.291	0	82	82
48	1	163	1	1	3	0.0500	0.0649	0	0	0.435	0	0	0
48	1	164	1	2	2	0.0500	0.0649	0	0	0.293	0	0	0
48	1	165	0	2	3	0.0500	0.0649	0	1	0.286	10	82	82
48	1	166	1	1	3	0.0500	0.0649	0	1	0.611	74	0	0
48	1	167	0	1	3	0.0500	0.0649	0	1	0.448	9	82	82
48	1	168	0	1	1	0.0500	0.0649	1	0	0.494	0	82	0
48	1	169	1	1	1	0.0500	0.0649	0	1	0.314	100	0	0
48	1	170	1	2	2	0.0500	0.0649	1	1	0.373	98	82	0
48	1	171	1	2	2	0.0500	0.0649	0	1	0.369	98	0	0
48	1	172	0	2	3	0.0500	0.0649	1	0	0.418	0	0	82
48	1	173	0	1	1	0.0500	0.0649	1	1	0.378	10	82	0
48	1	174	1	1	1	0.0500	0.0649	1	0	0.229	0	0	82
48	1	175	1	1	3	0.0500	0.0649	0	1	0.295	100	0	0
48	1	176	1	2	3	0.0500	0.0649	0	1	0.626	72	0	0
48	1	177	1	1	3	0.0500	0.0649	1	1	0.335	100	0	82
48	1	178	1	1	1	0.0500	0.0649	0	1	0.350	100	0	0
48	1	179	0	1	3	0.0500	0.0649	0	1	0.395	10	82	82
48	1	180	1	1	1	0.0500	0.0649	1	1	0.447	90	0	82
48	1	181	9	1	1	0.0500	0.0649	0	1	0.311	0	0	0
48	1	182	1	2	3	0.0500	0.0649	0	0	0.283	0	0	0
48	1	183	9	1	1	0.0500	0.0649	1	0	0.516	0	82	0
48	1	184	0	2	1	0.0500	0.0649	1	0	0.415	0	0	82
48	1	185	1	2	2	0.0500	0.0649	0	1	0.342	100	0	0
48	1	186	0	1	1	0.0500	0.0649	1	1	0.406	9	82	0
48	1	187	1	1	1	0.0500	0.0649	1	0	0.295	0	0	82
48	1	188	1	1	3	0.0500	0.0649	0	1	0.487	86	0	0
48	1	189	9	1	2	0.0500	0.0649	1	0	0.335	0	82	0
48	1	190	0	2	3	0.0500	0.0649	1	1	0.409	9	0	82
48	1	191	0	2	3	0.0500	0.0649	1	0	0.577	0	0	82
48	1	192	0	2	3	0.0500	0.0649	0	1	0.663	7	82	82
48	1	193	0	2	1	0.0500	0.0649	1	1	0.362	10	0	82
48	1	194	0	1	3	0.0500	0.0649	1	1	0.445	9	82	0
48	1	195	1	2	2	0.0500	0.0649	1	0	0.425	0	82	0
48	1	196	1	1	3	0.0500	0.0649	0	1	0.419	93	0	0
48	1	197	1	2	2	0.0500	0.0649	1	1	0.459	89	82	0
48	1	198	9	2	3	0.0500	0.0649	1	1	0.521	0	0	82
48	1	199	1	2	3	0.0500	0.0649	1	1	0.375	97	82	0
48	1	200	0	2	3	0.0500	0.0649	1	1	0.392	10	0	82
48	1	201	9	2	2	0.0500	0.0649	1	1	0.402	0	0	82
48	1	202	9	2	2	0.0500	0.0649	1	1	0.346	0	0	82
48	1	203	0	1	2	0.0500	0.0649	1	1	0.236	10	82	0
48	1	204	0	2	3	0.0500	0.0649	0	0	0.355	0	82	82
48	1	205	0	2	3	0.0500	0.0649	0	1	0.362	10	82	82
48	1	206	1	2	2	0.0500	0.0649	0	0	0.395	0	0	0
48	1	207	9	2	2	0.0500	0.0649	1	1	0.552	0	82	0
48	1	208	0	2	2	0.0500	0.0649	1	0	0.303	0	0	82
48	1	209	0	1	3	0.0500	0.0649	0	0	0.451	0	82	82
48	1	210	1	1	3	0.0500	0.0649	1	1	0.409	94	0	82
48	1	211	9	2	2	0.0500	0.0649	1	0	0.443	0	0	82
48	1	212	0	2	2	0.0500	0.0649	0	1	0.460	9	82	82
48	1	213	0	1	1	0.0500	0.0649	1	1	0.700	6	82	0
48	1	214	0	1	1	0.0500	0.0649	1	0	0.430	0	82	0
48	1	215	1	2	3	0.0500	0.0649	0	1	0.542	81	0	0
48	1	216	0	2	3	0.0500	0.0649	1	1	0.449	9	0	82
48	1	217	1	2	3	0.0500	0.0649	1	1	0.384	97	82	0
48	1	218	9	2	3	0.0500	0.0649	1	1	0.457	0	0	82
48	1	219	1	2	2	0.0500	0.0649	1	1	0.420	93	82	0
48	1	220	0	1	3	0.0500	0.0649	0	1	0.457	9	82	82
48	1	221	0	2	2	0.0500	0.0649	1	1	0.392	10	0	82
48	1	222	0	2	3	0.0500	0.0649	0	1	0.692	7	82	82
48	1	223	1	2	2	0.0500	0.0649	0	1	0.480	87	0	0
48	1	224	1	1	1	0.0500	0.0649	1	1	0.469	88	0	82
48	1	225	1	2	3	0.0500	0.0649	0	1	0.507	84	0	0
48	1	226	9	2	3	0.0500	0.0649	0	1	0.434	0	0	0
48	1	227	0	2	2	0.0500	0.0649	0	0	0.393	0	82	82
48	1	228	9	1	3	0.0500	0.0649	0	1	0.506	0	0	0
48	1	229	0	1	1	0.0500	0.0649	1	1	0.243	10	82	0
48	1	230	0	2	3	0.0500	0.0649	1	0	0.237	0	0	82
48	1	231	0	1	2	0.0500	0.0649	0	1	0.402	9	82	82
48	1	232	0	2	2	0.0500	0.0649	0	1	0.493	9	82	82
48	1	233	9	1	3	0.0500	0.0649	1	1	0.387	0	0	82
48	1	234	9	2	2	0.0500	0.0649	0	1	0.358	0	0	0
48	1	235	1	2	2	0.0500	0.0649	1	1	0.267	100	82	0
48	1	236	0	1	1	0.0500	0.0649	0	0	0.292	0	82	82
48	1	237	0	1	1	0.0500	0.0649	0	1	0.198	10	82	82
48	1	238	1	1	2	0.0500	0.0649	0	1	0.264	100	0	0
48	1	239	1	1	1	0.0500	0.0649	0	1	0.368	98	0	0
48	1	240	9	1	1	0.0500	0.0649	0	1	0.162	0	0	0
48	1	241	1	1	3	0.0500	0.0649	1	1	0.383	97	0	82
48	1	242	9	1	3	0.0500	0.0649	1	0	0.357	0	0	82
48	1	243	1	1	3	0.0500	0.0649	0	0	0.336	0	0	0
48	1	244	1	1	3	0.0500	0.0649	0	1	0.266	100	0	0
48	1	245	1	2	3	0.0500	0.0649	0	0	0.362	0	0	0
48	1	246	0	2	2	0.0500	0.0649	0	1	0.310	10	82	82
48	1	247	0	1	1	0.0500	0.0649	0	0	0.195	0	82	82
48	1	248	1	1	2	0.0500	0.0649	1	0	0.183	0	0	82
48	1	249	1	1	3	0.0500	0.0649	1	1	0.240	100	0	82
48	1	250	0	1	1	0.0500	0.0649	1	0	0.152	0	82	0
48	1	251	9	1	1	0.0500	0.0649	0	0	0.233	0	82	82
48	1	252	1	2	2	0.0500	0.0649	0	1	0.188	100	0	0
48	1	253	0	1	1	0.0500	0.0649	1	0	0.504	0	82	0
48	1	254	1	1	1	0.0500	0.0649	0	0	0.194	0	0	0
48	1	255	0	1	3	0.0500	0.0649	1	0	0.222	0	82	0
48	1	256	1	1	1	0.0500	0.0649	1	1	0.206	100	0	82
48	1	257	1	2	2	0.0500	0.0649	0	1	0.250	100	0	0
48	1	258	1	2	3	0.0500	0.0649	0	1	0.431	92	0	0
48	1	259	0	1	3	0.0500	0.0649	1	1	0.262	10	82	0
48	1	260	9	1	1	0.0500	0.0649	0	0	0.265	0	82	82
48	1	261	9	1	1	0.0500	0.0649	1	0	0.409	0	0	82
48	1	262	1	2	3	0.0500	0.0649	1	1	0.389	96	82	0
48	1	263	9	1	1	0.0500	0.0649	0	0	0.250	0	0	0
48	1	264	1	2	3	0.0500	0.0649	0	1	0.278	100	0	0
48	1	265	1	1	2	0.0500	0.0649	1	1	0.311	100	0	82
48	1	266	9	2	3	0.0500	0.0649	1	1	0.399	0	82	0
48	1	267	1	2	3	0.0500	0.0649	0	1	0.282	100	0	0
48	1	268	9	1	1	0.0500	0.0649	1	1	0.214	0	0	82
48	1	269	1	1	1	0.0500	0.0649	1	1	0.118	100	0	82
48	1	270	1	1	3	0.0500	0.0649	1	0	0.255	0	0	82
48	1	271	0	2	2	0.0500	0.0649	1	0	0.191	0	0	82
48	1	272	1	2	1	0.0500	0.0649	1	1	0.142	100	82	0
48	1	273	1	1	1	0.0500	0.0649	0	1	0.356	99	0	0
48	1	274	1	2	3	0.0500	0.0649	1	1	0.288	100	82	0
48	1	275	1	2	3	0.0500	0.0649	0	1	0.069	100	0	0
48	1	276	0	1	3	0.0500	0.0649	1	1	0.153	10	82	0
48	1	277	0	1	1	0.0500	0.0649	0	1	0.303	10	82	82
48	1	278	1	2	2	0.0500	0.0649	1	1	0.174	100	82	0
48	1	279	0	1	3	0.0500	0.0649	1	0	0.247	0	82	0
48	1	280	0	2	2	0.0500	0.0649	0	1	0.146	10	82	82
48	1	281	0	1	3	0.0500	0.0649	0	1	0.120	10	82	82
48	1	282	0	1	3	0.0500	0.0649	1	0	0.066	0	82	0
48	1	283	0	1	1	0.0500	0.0649	1	1	0.105	10	82	0
48	1	284	1	2	3	0.0500	0.0649	1	0	0.119	0	82	0
48	1	285	1	2	2	0.0500	0.0649	0	1	0.457	89	0	0
48	1	286	1	2	2	0.0500	0.0649	1	0	0.272	0	82	0
48	1	287	0	2	3	0.0500	0.0649	0	0	0.085	0	82	82
48	1	288	1	1	1	0.0500	0.0649	1	0	0.101	0	0	82
48	1	289	9	1	3	0.0500	0.0649	1	1	0.554	0	82	0
48	1	290	1	1	1	0.0500	0.0649	0	1	0.362	99	0	0
48	1	291	0	1	1	0.0500	0.0649	0	1	0.396	10	82	82
48	1	292	1	2	2	0.0500	0.0649	1	1	0.223	100	82	0
48	1	293	9	2	3	0.0500	0.0649	1	0	0.219	0	82	0
48	1	294	9	1	3	0.0500	0.0649	0	1	0.504	0	82	82
48	1	295	0	1	2	0.0500	0.0649	0	1	0.341	10	82	82
48	1	296	0	1	1	0.0500	0.0649	1	1	0.295	10	82	0
48	1	297	0	1	1	0.0500	0.0649	0	1	0.305	10	82	82
48	1	298	1	2	3	0.0500	0.0649	1	1	0.306	100	82	0
48	1	299	0	1	3	0.0500	0.0649	0	1	0.247	10	82	82
48	1	300	1	1	1	0.0500	0.0649	1	1	0.159	100	0	82
48	1	301	1	1	3	0.0500	0.0649	1	0	0.278	0	0	82
48	1	302	0	1	1	0.0500	0.0649	1	1	0.546	8	82	0
48	1	303	9	2	2	0.0500	0.0649	0	1	0.396	0	82	82
48	1	304	0	2	2	0.0500	0.0649	1	1	0.292	10	0	82
48	1	305	0	2	2	0.0500	0.0649	1	0	0.444	0	0	82
48	1	306	0	2	2	0.0500	0.0649	0	1	0.290	10	82	82
48	1	307	1	1	1	0.0500	0.0649	0	0	0.147	0	0	0
48	1	308	0	2	2	0.0500	0.0649	0	1	0.472	9	82	82
48	1	309	0	2	2	0.0500	0.0649	0	0	0.337	0	82	82
48	1	310	1	1	3	0.0500	0.0649	0	1	0.724	63	0	0
48	1	311	0	1	1	0.0500	0.0649	0	0	0.219	0	82	82
48	1	312	0	1	3	0.0500	0.0649	1	0	0.595	0	82	0
48	1	313	9	1	3	0.0500	0.0649	0	1	0.550	0	0	0
48	1	314	1	2	2	0.0500	0.0649	1	0	0.368	0	82	0
48	1	315	1	2	1	0.0500	0.0649	1	1	0.203	100	82	0
48	1	316	9	1	3	0.0500	0.0649	0	1	0.311	0	82	82
48	1	317	1	1	3	0.0500	0.0649	1	1	0.220	100	0	82
48	1	318	9	2	2	0.0500	0.0649	0	0	0.393	0	0	0
48	1	319	0	2	3	0.0500	0.0649	1	0	-0.126	0	0	82
48	1	320	1	2	3	0.0500	0.0649	0	0	0.162	0	0	0
48	1	321	0	2	3	0.0500	0.0649	1	0	0.282	0	0	82
48	1	322	0	2	2	0.0500	0.0649	0	0	0.217	0	82	82
48	1	323	1	1	3	0.0500	0.0649	1	1	0.572	78	0	82
48	1	324	1	1	1	0.0500	0.0649	1	0	0.306	0	0	82
48	1	325	0	2	3	0.0500	0.0649	0	0	0.193	0	82	82
48	1	326	1	2	3	0.0500	0.0649	1	0	0.242	0	82	0
48	1	327	9	2	3	0.0500	0.0649	0	0	0.289	0	0	0
48	1	328	0	2	2	0.0500	0.0649	1	0	0.256	0	0	82
48	1	329	0	2	1	0.0500	0.0649	0	0	0.269	0	82	82
48	1	330	0	1	1	0.0500	0.0649	0	1	0.341	10	82	82
48	1	331	0	2	2	0.0500	0.0649	1	0	0.249	0	0	82
48	1	332	1	2	3	0.0500	0.0649	0	0	0.341	0	0	0
48	1	333	9	2	3	0.0500	0.0649	1	1	0.425	0	82	0
48	1	334	1	2	2	0.0500	0.0649	0	1	0.284	100	0	0
48	1	335	0	1	1	0.0500	0.0649	1	1	0.299	10	82	0
48	1	336	0	1	3	0.0500	0.0649	1	0	0.225	0	82	0
48	1	337	1	2	3	0.0500	0.0649	1	1	0.381	97	82	0
48	1	338	9	2	2	0.0500	0.0649	1	1	0.340	0	0	82
48	1	339	1	1	3	0.0500	0.0649	1	1	0.524	83	0	82
48	1	340	0	2	3	0.0500	0.0649	1	1	0.336	10	0	82
48	1	341	0	2	2	0.0500	0.0649	0	0	0.236	0	82	82
48	1	342	0	2	2	0.0500	0.0649	1	1	0.355	10	0	82
48	1	343	0	1	3	0.0500	0.0649	0	1	0.363	10	82	82
48	1	344	1	2	2	0.0500	0.0649	0	0	0.144	0	0	0
48	1	345	9	1	3	0.0500	0.0649	0	1	0.332	0	82	82
48	1	346	1	1	2	0.0500	0.0649	0	0	0.707	0	0	0
48	1	347	9	1	1	0.0500	0.0649	0	1	0.436	0	0	0
48	1	348	9	1	1	0.0500	0.0649	1	1	0.237	0	0	82
48	1	349	9	1	1	0.0500	0.0649	1	0	0.388	0	82	0
48	1	350	1	2	3	0.0500	0.0649	1	1	0.384	97	82	0
48	1	351	9	2	2	0.0500	0.0649	1	0	0.335	0	82	0
48	1	352	9	2	3	0.0500	0.0649	0	0	0.544	0	0	0
48	1	353	1	2	3	0.0500	0.0649	1	1	0.433	92	82	0
48	1	354	9	1	2	0.0500	0.0649	0	1	0.337	0	0	0
48	1	355	0	1	3	0.0500	0.0649	1	0	0.563	0	82	0
48	1	356	1	2	2	0.0500	0.0649	1	1	0.339	100	82	0
48	1	357	9	2	1	0.0500	0.0649	1	1	0.292	0	82	0
48	1	358	0	1	3	0.0500	0.0649	0	0	0.371	0	82	82
48	1	359	0	1	2	0.0500	0.0649	0	1	0.293	10	82	82
48	1	360	0	2	3	0.0500	0.0649	1	1	0.297	10	0	82
48	1	361	1	2	2	0.0500	0.0649	0	0	0.277	0	0	0
48	1	362	0	2	2	0.0500	0.0649	1	1	0.307	10	0	82
48	1	363	1	1	1	0.0500	0.0649	1	1	0.465	89	0	82
48	1	364	1	2	3	0.0500	0.0649	1	0	0.313	0	82	0
48	1	365	0	1	3	0.0500	0.0649	1	1	0.563	8	82	0
48	1	366	1	2	3	0.0500	0.0649	1	0	0.238	0	82	0
48	1	367	1	2	2	0.0500	0.0649	1	1	0.504	85	82	0
48	1	368	1	2	3	0.0500	0.0649	1	1	0.294	100	82	0
48	1	369	0	1	1	0.0500	0.0649	1	0	0.533	0	82	0
48	1	370	1	2	2	0.0500	0.0649	1	1	0.250	100	82	0
48	1	371	1	2	3	0.0500	0.0649	1	1	0.273	100	82	0
48	1	372	0	2	3	0.0500	0.0649	1	0	0.232	0	0	82
48	1	373	0	1	3	0.0500	0.0649	0	0	0.173	0	82	82
48	1	374	0	2	2	0.0500	0.0649	0	1	0.251	10	82	82
48	1	375	1	1	1	0.0500	0.0649	1	1	0.142	100	0	82
48	1	376	0	1	1	0.0500	0.0649	0	0	0.252	0	82	82
48	1	377	1	2	2	0.0500	0.0649	1	0	0.288	0	82	0
48	1	378	9	1	1	0.0500	0.0649	0	0	0.238	0	82	82
48	1	379	1	1	1	0.0500	0.0649	0	0	0.230	0	0	0
48	1	380	0	1	3	0.0500	0.0649	1	1	0.358	10	82	0
48	1	381	0	2	3	0.0500	0.0649	1	1	0.499	9	0	82
48	1	382	0	1	1	0.0500	0.0649	0	1	0.360	10	82	82
48	1	383	0	2	2	0.0500	0.0649	1	1	0.251	10	0	82
48	1	384	9	1	3	0.0500	0.0649	1	1	0.393	0	0	82
48	1	385	9	1	3	0.0500	0.0649	0	1	0.322	0	82	82
48	1	386	1	1	3	0.0500	0.0649	0	0	0.296	0	0	0
48	1	387	0	1	2	0.0500	0.0649	0	1	0.380	10	82	82
48	1	388	9	1	2	0.0500	0.0649	1	1	0.180	0	0	82
48	1	389	9	1	2	0.0500	0.0649	0	1	0.366	0	82	82
48	1	390	1	1	1	0.0500	0.0649	1	1	0.535	81	0	82
48	1	391	1	1	3	0.0500	0.0649	1	1	0.416	93	0	82
48	1	392	0	1	1	0.0500	0.0649	0	0	0.304	0	82	82
48	1	393	0	1	3	0.0500	0.0649	0	1	0.279	10	82	82
48	1	394	0	1	3	0.0500	0.0649	1	1	0.264	10	82	0
48	1	395	0	2	1	0.0500	0.0649	1	1	0.302	10	0	82
48	1	396	1	2	3	0.0500	0.0649	1	1	0.380	97	82	0
48	1	397	9	1	3	0.0500	0.0649	1	1	0.323	0	0	82
48	1	398	1	2	2	0.0500	0.0649	1	0	0.297	0	82	0
48	1	399	0	2	2	0.0500	0.0649	1	1	0.270	10	0	82
48	1	400	0	1	1	0.0500	0.0649	0	0	0.310	0	82	82
48	1	401	1	2	3	0.0500	0.0649	0	0	0.573	0	0	0
48	1	402	0	1	1	0.0500	0.0649	0	0	0.299	0	82	82
48	1	403	0	2	1	0.0500	0.0649	1	0	0.212	0	0	82
48	1	404	0	1	2	0.0500	0.0649	0	0	0.359	0	82	82
48	1	405	9	2	2	0.0500	0.0649	0	1	0.592	0	82	82
48	1	406	1	2	2	0.0500	0.0649	0	0	0.322	0	0	0
48	1	407	0	2	3	0.0500	0.0649	1	1	0.585	8	0	82
48	1	408	9	2	2	0.0500	0.0649	0	1	0.293	0	82	82
48	1	409	0	1	3	0.0500	0.0649	0	0	0.266	0	82	82
48	1	410	0	1	1	0.0500	0.0649	1	0	0.218	0	82	0
48	1	411	9	1	1	0.0500	0.0649	0	0	0.202	0	82	82
48	1	412	1	1	1	0.0500	0.0649	0	1	0.407	94	0	0
48	1	413	9	2	2	0.0500	0.0649	0	0	0.295	0	82	82
48	1	414	0	2	2	0.0500	0.0649	1	1	0.390	10	0	82
48	1	415	0	2	2	0.0500	0.0649	0	1	0.215	10	82	82
48	1	416	9	2	1	0.0500	0.0649	0	0	0.251	0	82	82
48	1	417	9	1	3	0.0500	0.0649	1	0	0.165	0	82	0
48	1	418	1	1	3	0.0500	0.0649	0	0	0.736	0	0	0
48	1	419	1	1	1	0.0500	0.0649	1	1	0.314	100	0	82
48	1	420	1	2	3	0.0500	0.0649	0	1	0.233	100	0	0
48	1	421	0	2	3	0.0500	0.0649	0	1	0.565	8	82	82
48	1	422	0	2	3	0.0500	0.0649	1	1	0.259	10	0	82
48	1	423	1	1	2	0.0500	0.0649	1	0	0.264	0	0	82
48	1	424	9	1	3	0.0500	0.0649	0	0	0.246	0	82	82
48	1	425	0	2	1	0.0500	0.0649	1	1	0.633	7	0	82
48	1	426	9	2	2	0.0500	0.0649	0	1	0.302	0	0	0
48	1	427	1	2	2	0.0500	0.0649	0	1	0.385	97	0	0
48	1	428	1	1	3	0.0500	0.0649	1	1	0.186	100	0	82
48	1	429	1	2	2	0.0500	0.0649	0	1	0.239	100	0	0
48	1	430	0	1	1	0.0500	0.0649	0	0	0.310	0	82	82
48	1	431	9	2	3	0.0500	0.0649	1	1	0.324	0	82	0
48	1	432	1	1	1	0.0500	0.0649	0	0	0.493	0	0	0
48	1	433	1	1	3	0.0500	0.0649	1	1	0.656	69	0	82
48	1	434	1	1	1	0.0500	0.0649	1	1	0.710	64	0	82
48	1	435	1	1	1	0.0500	0.0649	0	1	0.335	100	0	0
48	1	436	0	1	1	0.0500	0.0649	1	1	0.636	7	82	0
48	1	437	0	1	2	0.0500	0.0649	0	1	0.319	10	82	82
48	1	438	9	2	3	0.0500	0.0649	0	0	0.369	0	82	82
48	1	439	0	2	2	0.0500	0.0649	1	1	0.265	10	0	82
48	1	440	0	2	3	0.0500	0.0649	1	0	0.236	0	0	82
48	1	441	0	1	1	0.0500	0.0649	1	1	0.253	10	82	0
48	1	442	1	1	3	0.0500	0.0649	0	1	0.359	99	0	0
48	1	443	9	2	2	0.0500	0.0649	1	1	0.247	0	0	82
48	1	444	0	1	1	0.0500	0.0649	1	1	0.156	10	82	0
48	1	445	9	2	3	0.0500	0.0649	0	1	0.170	0	0	0
48	1	446	1	2	1	0.0500	0.0649	0	0	0.234	0	0	0
48	1	447	1	2	3	0.0500	0.0649	1	0	0.233	0	82	0
48	1	448	9	2	2	0.0500	0.0649	1	1	0.217	0	0	82
48	1	449	9	1	1	0.0500	0.0649	0	0	0.284	0	82	82
48	1	450	0	1	3	0.0500	0.0649	1	0	0.196	0	82	0
48	1	451	1	2	2	0.0500	0.0649	0	0	0.055	0	0	0
48	1	452	1	2	3	0.0500	0.0649	1	0	0.264	0	82	0
48	1	453	9	1	3	0.0500	0.0649	0	1	0.353	0	0	0
48	1	454	9	1	1	0.0500	0.0649	0	1	0.387	0	0	0
48	1	455	9	2	1	0.0500	0.0649	1	1	0.288	0	0	82
48	1	456	1	2	3	0.0500	0.0649	1	0	0.193	0	82	0
48	1	457	9	1	1	0.0500	0.0649	1	1	0.256	0	0	82
48	1	458	1	1	1	0.0500	0.0649	0	1	0.295	100	0	0
48	1	459	0	1	1	0.0500	0.0649	1	1	0.213	10	82	0
48	1	460	0	2	3	0.0500	0.0649	0	1	0.247	10	82	82
48	1	461	9	1	3	0.0500	0.0649	0	1	0.525	0	82	82
48	1	462	1	2	1	0.0500	0.0649	0	1	0.396	95	0	0
48	1	463	1	2	3	0.0500	0.0649	1	1	0.359	99	82	0
48	1	464	1	1	1	0.0500	0.0649	1	1	0.294	100	0	82
48	1	465	0	2	3	0.0500	0.0649	1	0	0.265	0	0	82
48	1	466	1	2	3	0.0500	0.0649	0	1	0.499	85	0	0
48	1	467	1	1	3	0.0500	0.0649	0	0	0.242	0	0	0
48	1	468	1	1	2	0.0500	0.0649	0	0	0.442	0	0	0
48	1	469	9	2	3	0.0500	0.0649	0	1	0.249	0	0	0
48	1	470	1	1	2	0.0500	0.0649	1	1	0.279	100	0	82
48	1	471	9	2	3	0.0500	0.0649	1	1	0.366	0	82	0
48	1	472	1	1	3	0.0500	0.0649	1	0	0.475	0	0	82
48	1	473	9	2	1	0.0500	0.0649	1	1	0.179	0	82	0
48	1	474	1	2	2	0.0500	0.0649	0	1	0.233	100	0	0
48	1	475	1	2	3	0.0500	0.0649	0	1	0.412	94	0	0
48	1	476	0	2	3	0.0500	0.0649	1	0	0.142	0	0	82
48	1	477	9	1	2	0.0500	0.0649	0	0	0.028	0	0	0
48	1	478	1	2	3	0.0500	0.0649	1	1	0.480	87	82	0
48	1	479	1	1	1	0.0500	0.0649	0	0	0.333	0	0	0
48	1	480	0	1	3	0.0500	0.0649	0	1	0.237	10	82	82
48	1	481	1	1	1	0.0500	0.0649	0	1	0.262	100	0	0
48	1	482	0	2	2	0.0500	0.0649	1	1	0.245	10	0	82
48	1	483	0	2	2	0.0500	0.0649	0	1	0.256	10	82	82
48	1	484	9	2	2	0.0500	0.0649	0	0	0.208	0	82	82
48	1	485	0	1	1	0.0500	0.0649	1	1	0.195	10	82	0
48	1	486	9	2	3	0.0500	0.0649	0	1	0.353	0	0	0
48	1	487	0	1	2	0.0500	0.0649	0	0	0.212	0	82	82
48	1	488	0	1	1	0.0500	0.0649	1	1	0.332	10	82	0
48	1	489	0	1	3	0.0500	0.0649	1	0	0.336	0	82	0
48	1	490	9	2	2	0.0500	0.0649	1	1	0.384	0	82	0
48	1	491	1	2	3	0.0500	0.0649	0	1	0.267	100	0	0
48	1	492	9	1	1	0.0500	0.0649	0	1	0.416	0	82	82
48	1	493	0	2	2	0.0500	0.0649	1	0	0.678	0	0	82
48	1	494	0	2	2	0.0500	0.0649	0	0	0.366	0	82	82
48	1	495	0	2	2	0.0500	0.0649	0	1	0.365	10	82	82
48	1	496	0	2	1	0.0500	0.0649	0	1	0.356	10	82	82
48	1	497	9	1	1	0.0500	0.0649	1	1	0.299	0	0	82
48	1	498	0	1	3	0.0500	0.0649	0	1	0.231	10	82	82
48	1	499	1	1	1	0.0500	0.0649	1	1	0.413	94	0	82
48	1	500	0	2	3	0.0500	0.0649	0	1	0.291	10	82	82
48	1	501	1	2	3	0.0500	0.0649	1	1	0.260	100	82	0
48	1	502	0	1	3	0.0500	0.0649	1	1	0.244	10	82	0
48	1	503	0	1	1	0.0500	0.0649	0	1	0.258	10	82	82
48	1	504	1	1	2	0.0500	0.0649	1	0	0.308	0	0	82
48	1	505	1	1	3	0.0500	0.0649	1	1	0.194	100	0	82
48	1	506	0	1	3	0.0500	0.0649	1	0	0.240	0	82	0
48	1	507	0	1	3	0.0500	0.0649	0	0	0.231	0	82	82
48	1	508	0	2	3	0.0500	0.0649	0	1	0.166	10	82	82
48	1	509	0	2	3	0.0500	0.0649	0	0	0.167	0	82	82
48	1	510	0	2	3	0.0500	0.0649	1	1	0.146	10	0	82
48	1	511	0	2	3	0.0500	0.0649	1	0	0.244	0	0	82
48	1	512	0	1	3	0.0500	0.0649	1	1	-0.076	10	82	0
48	1	513	1	1	1	0.0500	0.0649	0	1	0.380	97	0	0
48	1	514	1	2	1	0.0500	0.0649	1	1	0.064	100	82	0
48	1	515	0	2	3	0.0500	0.0649	0	1	0.247	10	82	82
48	1	516	0	2	1	0.0500	0.0649	0	0	0.197	0	82	82
48	1	517	1	2	1	0.0500	0.0649	1	0	0.103	0	82	0
48	1	518	9	1	1	0.0500	0.0649	1	0	0.109	0	82	0
48	1	519	0	2	3	0.0500	0.0649	1	1	0.313	10	0	82
48	1	520	0	1	3	0.0500	0.0649	1	0	0.337	0	82	0
48	1	521	0	1	3	0.0500	0.0649	1	1	0.220	10	82	0
48	1	522	0	1	3	0.0500	0.0649	1	0	0.265	0	82	0
48	1	523	9	1	3	0.0500	0.0649	0	1	0.380	0	82	82
48	1	524	0	1	3	0.0500	0.0649	0	0	0.233	0	82	82
48	1	525	1	1	3	0.0500	0.0649	0	1	0.195	100	0	0
48	1	526	1	2	1	0.0500	0.0649	1	1	0.106	100	82	0
48	1	527	0	1	3	0.0500	0.0649	0	1	0.321	10	82	82
48	1	528	1	1	1	0.0500	0.0649	0	0	0.146	0	0	0
48	1	529	1	1	2	0.0500	0.0649	0	0	0.157	0	0	0
48	1	530	9	2	2	0.0500	0.0649	1	0	0.218	0	0	82
48	1	531	1	1	3	0.0500	0.0649	1	1	0.141	100	0	82
48	1	532	0	1	3	0.0500	0.0649	1	0	0.261	0	82	0
48	1	533	1	2	2	0.0500	0.0649	1	1	0.203	100	82	0
48	1	534	0	2	3	0.0500	0.0649	0	1	0.190	10	82	82
48	1	535	9	1	1	0.0500	0.0649	1	1	0.155	0	0	82
48	1	536	1	2	1	0.0500	0.0649	0	1	0.206	100	0	0
48	1	537	0	1	1	0.0500	0.0649	0	0	0.173	0	82	82
48	1	538	0	1	1	0.0500	0.0649	1	0	0.177	0	82	0
48	1	539	9	2	2	0.0500	0.0649	0	0	0.257	0	0	0
48	1	540	9	1	3	0.0500	0.0649	1	0	0.277	0	0	82
48	1	541	9	2	2	0.0500	0.0649	1	1	0.395	0	0	82
48	1	542	1	2	2	0.0500	0.0649	1	0	0.271	0	82	0
48	1	543	0	2	2	0.0500	0.0649	1	1	0.207	10	0	82
48	1	544	0	1	1	0.0500	0.0649	0	1	0.261	10	82	82
48	1	545	0	1	1	0.0500	0.0649	1	1	0.133	10	82	0
48	1	546	1	1	3	0.0500	0.0649	1	0	0.246	0	0	82
48	1	547	1	1	3	0.0500	0.0649	1	1	0.322	100	0	82
48	1	548	9	1	1	0.0500	0.0649	0	1	0.157	0	0	0
48	1	549	0	1	1	0.0500	0.0649	1	1	0.177	10	82	0
48	1	550	1	2	2	0.0500	0.0649	0	1	0.235	100	0	0
48	1	551	1	1	1	0.0500	0.0649	1	1	0.165	100	0	82
48	1	552	0	2	3	0.0500	0.0649	1	0	0.203	0	0	82
48	1	553	1	2	3	0.0500	0.0649	0	0	0.056	0	0	0
48	1	554	1	1	3	0.0500	0.0649	0	1	0.201	100	0	0
48	1	555	1	2	2	0.0500	0.0649	1	1	0.150	100	82	0
48	1	556	1	2	2	0.0500	0.0649	0	1	0.049	100	0	0
48	1	557	9	2	3	0.0500	0.0649	1	1	0.241	0	0	82
48	1	558	9	1	1	0.0500	0.0649	1	0	0.043	0	0	82
48	1	559	1	2	3	0.0500	0.0649	0	0	-0.092	0	0	0
48	1	560	0	1	3	0.0500	0.0649	1	0	0.175	0	82	0
48	1	561	1	1	1	0.0500	0.0649	0	0	0.216	0	0	0
48	1	562	1	2	2	0.0500	0.0649	0	1	0.134	100	0	0
48	1	563	1	1	1	0.0500	0.0649	0	0	0.226	0	0	0
48	1	564	1	1	1	0.0500	0.0649	0	1	0.235	100	0	0
48	1	565	1	1	3	0.0500	0.0649	0	1	0.200	100	0	0
48	1	566	1	1	2	0.0500	0.0649	0	0	0.229	0	0	0
48	1	567	9	1	3	0.0500	0.0649	0	1	0.328	0	0	0
48	1	568	1	1	1	0.0500	0.0649	1	1	0.189	100	0	82
48	1	569	0	1	1	0.0500	0.0649	1	0	0.199	0	82	0
48	1	570	1	1	3	0.0500	0.0649	1	1	0.072	100	0	82
48	1	571	0	1	3	0.0500	0.0649	0	1	0.211	10	82	82
48	1	572	0	2	2	0.0500	0.0649	1	1	0.212	10	0	82
48	1	573	1	1	3	0.0500	0.0649	1	0	0.214	0	0	82
48	1	574	1	2	3	0.0500	0.0649	0	1	0.224	100	0	0
48	1	575	1	1	1	0.0500	0.0649	1	1	0.236	100	0	82
48	1	576	1	2	3	0.0500	0.0649	0	1	0.182	100	0	0
48	1	577	9	1	1	0.0500	0.0649	1	1	0.073	0	82	0
48	1	578	0	2	2	0.0500	0.0649	0	1	0.258	10	82	82
48	1	579	9	1	3	0.0500	0.0649	0	1	0.196	0	0	0
48	1	580	9	1	3	0.0500	0.0649	0	1	0.252	0	0	0
48	1	581	0	1	3	0.0500	0.0649	0	1	0.408	9	82	82
48	1	582	0	2	2	0.0500	0.0649	0	1	0.404	9	82	82
48	1	583	9	2	3	0.0500	0.0649	0	0	0.378	0	82	82
48	1	584	9	2	3	0.0500	0.0649	0	1	0.254	0	0	0
48	1	585	1	1	3	0.0500	0.0649	0	1	0.148	100	0	0
48	1	586	0	1	2	0.0500	0.0649	1	1	0.246	10	82	0
48	1	587	1	1	3	0.0500	0.0649	0	1	0.281	100	0	0
48	1	588	1	2	2	0.0500	0.0649	0	0	0.109	0	0	0
48	1	589	1	2	2	0.0500	0.0649	0	1	0.114	100	0	0
48	1	590	0	1	1	0.0500	0.0649	1	1	0.047	10	82	0
48	1	591	9	2	2	0.0500	0.0649	1	0	-0.028	0	82	0
48	1	592	1	2	2	0.0500	0.0649	1	0	0.204	0	82	0
48	1	593	0	2	3	0.0500	0.0649	0	0	0.211	0	82	82
48	1	594	1	2	2	0.0500	0.0649	1	0	0.113	0	82	0
48	1	595	0	1	3	0.0500	0.0649	0	0	0.240	0	82	82
48	1	596	1	2	2	0.0500	0.0649	0	1	0.256	100	0	0
48	1	597	0	2	2	0.0500	0.0649	0	0	0.295	0	82	82
48	1	598	1	2	3	0.0500	0.0649	0	1	0.230	100	0	0
48	1	599	1	1	2	0.0500	0.0649	0	1	0.189	100	0	0
48	1	600	1	1	1	0.0500	0.0649	1	1	0.207	100	0	82
48	1	601	1	1	1	0.0500	0.0649	0	1	0.072	100	0	0
48	1	602	9	2	3	0.0500	0.0649	1	1	0.163	0	82	0
48	1	603	0	1	3	0.0500	0.0649	0	1	0.226	10	82	82
48	1	604	9	1	1	0.0500	0.0649	1	1	0.121	0	82	0
48	1	605	0	2	3	0.0500	0.0649	0	1	0.205	10	82	82
48	1	606	0	2	3	0.0500	0.0649	1	1	0.202	10	0	82
48	1	607	0	1	3	0.0500	0.0649	0	1	0.200	10	82	82
48	1	608	0	1	3	0.0500	0.0649	0	1	0.171	10	82	82
48	1	609	0	2	2	0.0500	0.0649	1	0	0.182	0	0	82
48	1	610	0	1	1	0.0500	0.0649	1	1	0.178	10	82	0
48	1	611	1	1	3	0.0500	0.0649	0	1	0.149	100	0	0
48	1	612	1	1	2	0.0500	0.0649	1	0	0.178	0	0	82
48	1	613	0	2	3	0.0500	0.0649	0	0	0.229	0	82	82
48	1	614	0	1	1	0.0500	0.0649	0	0	0.156	0	82	82
48	1	615	1	2	3	0.0500	0.0649	0	1	0.134	100	0	0
48	1	616	0	1	1	0.0500	0.0649	1	1	0.130	10	82	0
48	1	617	0	2	2	0.0500	0.0649	1	0	0.059	0	0	82
48	1	618	1	2	3	0.0500	0.0649	0	0	0.079	0	0	0
48	1	619	0	2	2	0.0500	0.0649	0	1	0.169	10	82	82
48	1	620	1	2	3	0.0500	0.0649	0	0	0.293	0	0	0
48	1	621	9	1	3	0.0500	0.0649	1	0	0.225	0	82	0
48	1	622	1	1	1	0.0500	0.0649	1	1	0.113	100	0	82
48	1	623	0	2	3	0.0500	0.0649	1	0	-0.026	0	0	82
48	1	624	1	2	3	0.0500	0.0649	0	1	0.166	100	0	0
48	1	625	0	2	2	0.0500	0.0649	1	1	0.182	10	0	82
48	1	626	1	1	1	0.0500	0.0649	0	1	0.180	100	0	0
48	1	627	0	2	3	0.0500	0.0649	0	0	0.172	0	82	82
48	1	628	0	2	2	0.0500	0.0649	1	0	0.175	0	0	82
48	1	629	1	2	3	0.0500	0.0649	1	1	0.029	100	82	0
48	1	630	1	1	3	0.0500	0.0649	0	1	0.279	100	0	0
48	1	631	1	1	1	0.0500	0.0649	0	0	0.225	0	0	0
48	1	632	0	1	3	0.0500	0.0649	1	1	0.097	10	82	0
48	1	633	1	1	3	0.0500	0.0649	1	0	0.184	0	0	82
48	1	634	0	2	2	0.0500	0.0649	0	0	0.320	0	82	82
48	1	635	1	1	1	0.0500	0.0649	0	0	0.077	0	0	0
48	1	636	1	2	1	0.0500	0.0649	0	0	0.288	0	0	0
48	1	637	1	2	2	0.0500	0.0649	1	0	0.230	0	82	0
48	1	638	1	1	3	0.0500	0.0649	1	1	0.169	100	0	82
48	1	639	0	2	1	0.0500	0.0649	1	1	0.150	10	0	82
48	1	640	1	2	3	0.0500	0.0649	1	1	0.450	90	82	0
48	1	641	9	2	2	0.0500	0.0649	0	1	0.286	0	0	0
48	1	642	1	2	2	0.0500	0.0649	1	1	0.208	100	82	0
48	1	643	0	1	2	0.0500	0.0649	1	1	0.321	10	82	0
48	1	644	0	1	1	0.0500	0.0649	0	1	0.382	10	82	82
48	1	645	1	1	3	0.0500	0.0649	0	0	0.404	0	0	0
48	1	646	1	1	1	0.0500	0.0649	1	0	0.323	0	0	82
48	1	647	1	2	2	0.0500	0.0649	1	1	0.166	100	82	0
48	1	648	9	1	2	0.0500	0.0649	1	1	0.526	0	82	0
48	1	649	9	2	2	0.0500	0.0649	0	1	0.244	0	0	0
48	1	650	1	2	3	0.0500	0.0649	0	0	0.273	0	0	0
48	1	651	0	2	3	0.0500	0.0649	0	1	0.254	10	82	82
48	1	652	0	2	2	0.0500	0.0649	0	0	0.153	0	82	82
48	1	653	9	2	2	0.0500	0.0649	1	0	0.150	0	82	0
48	1	654	0	1	3	0.0500	0.0649	1	1	0.058	10	82	0
48	1	655	1	1	3	0.0500	0.0649	0	1	0.298	100	0	0
48	1	656	0	2	3	0.0500	0.0649	0	0	0.223	0	82	82
48	1	657	1	2	2	0.0500	0.0649	0	1	0.210	100	0	0
48	1	658	0	1	1	0.0500	0.0649	0	0	0.209	0	82	82
48	1	659	1	1	1	0.0500	0.0649	1	0	0.101	0	0	82
48	1	660	0	2	3	0.0500	0.0649	0	0	0.254	0	82	82
48	1	661	0	2	2	0.0500	0.0649	1	0	0.337	0	0	82
48	1	662	1	1	3	0.0500	0.0649	0	1	0.396	95	0	0
48	1	663	0	1	2	0.0500	0.0649	1	1	0.135	10	82	0
48	1	664	1	2	3	0.0500	0.0649	1	0	0.083	0	82	0
48	1	665	1	2	2	0.0500	0.0649	1	1	0.129	100	82	0
48	1	666	0	1	1	0.0500	0.0649	0	1	0.266	10	82	82
48	1	667	0	2	3	0.0500	0.0649	1	1	0.145	10	0	82
48	1	668	1	1	3	0.0500	0.0649	1	0	0.182	0	0	82
48	1	669	0	2	3	0.0500	0.0649	1	0	0.206	0	0	82
48	1	670	1	2	2	0.0500	0.0649	0	1	0.271	100	0	0
48	1	671	9	2	3	0.0500	0.0649	1	0	0.163	0	82	0
48	1	672	0	2	2	0.0500	0.0649	1	1	0.201	10	0	82
48	1	673	1	2	3	0.0500	0.0649	1	1	0.294	100	82	0
48	1	674	1	1	3	0.0500	0.0649	1	0	0.159	0	0	82
48	1	675	1	2	1	0.0500	0.0649	1	1	0.186	100	82	0
48	1	676	1	1	3	0.0500	0.0649	0	0	0.332	0	0	0
48	1	677	0	1	1	0.0500	0.0649	1	1	0.209	10	82	0
48	1	678	1	1	1	0.0500	0.0649	1	1	0.381	97	0	82
48	1	679	1	1	3	0.0500	0.0649	1	1	0.324	100	0	82
48	1	680	9	1	1	0.0500	0.0649	0	1	0.245	0	0	0
48	1	681	0	1	1	0.0500	0.0649	0	0	0.386	0	82	82
48	1	682	1	2	2	0.0500	0.0649	1	1	0.274	100	82	0
48	1	683	9	2	3	0.0500	0.0649	0	1	0.225	0	82	82
48	1	684	0	2	2	0.0500	0.0649	0	1	0.247	10	82	82
48	1	685	0	2	2	0.0500	0.0649	1	1	0.131	10	0	82
48	1	686	9	1	1	0.0500	0.0649	0	1	0.351	0	0	0
48	1	687	0	2	3	0.0500	0.0649	0	0	0.324	0	82	82
48	1	688	9	1	1	0.0500	0.0649	1	0	0.223	0	82	0
48	1	689	0	1	2	0.0500	0.0649	1	0	0.155	0	82	0
48	1	690	0	2	1	0.0500	0.0649	0	0	0.161	0	82	82
48	1	691	9	1	3	0.0500	0.0649	1	0	0.163	0	82	0
48	1	692	1	2	2	0.0500	0.0649	1	1	0.310	100	82	0
48	1	693	0	1	3	0.0500	0.0649	0	0	0.326	0	82	82
48	1	694	0	1	3	0.0500	0.0649	0	0	0.467	0	82	82
48	1	695	0	2	1	0.0500	0.0649	0	1	0.381	10	82	82
48	1	696	0	2	2	0.0500	0.0649	0	1	0.281	10	82	82
48	1	697	0	1	1	0.0500	0.0649	0	0	0.259	0	82	82
48	1	698	0	2	2	0.0500	0.0649	0	1	0.264	10	82	82
48	1	699	0	2	3	0.0500	0.0649	1	1	0.360	10	0	82
48	1	700	0	2	2	0.0500	0.0649	0	1	0.220	10	82	82
48	1	701	1	2	2	0.0500	0.0649	0	1	0.293	100	0	0
48	1	702	0	1	3	0.0500	0.0649	1	1	0.196	10	82	0
48	1	703	9	2	3	0.0500	0.0649	1	0	0.177	0	0	82
48	1	704	9	2	3	0.0500	0.0649	1	0	0.285	0	0	82
48	1	705	1	1	3	0.0500	0.0649	0	0	0.203	0	0	0
48	1	706	1	1	1	0.0500	0.0649	1	1	0.507	84	0	82
48	1	707	1	2	2	0.0500	0.0649	1	1	0.482	87	82	0
48	1	708	9	2	2	0.0500	0.0649	1	1	0.357	0	82	0
48	1	709	9	1	3	0.0500	0.0649	1	0	0.329	0	0	82
48	1	710	9	2	1	0.0500	0.0649	0	0	0.263	0	0	0
48	1	711	1	2	2	0.0500	0.0649	0	1	0.259	100	0	0
48	1	712	1	2	3	0.0500	0.0649	1	1	0.270	100	82	0
48	1	713	0	2	3	0.0500	0.0649	0	1	0.168	10	82	82
48	1	714	1	1	3	0.0500	0.0649	1	1	0.258	100	0	82
48	1	715	0	1	1	0.0500	0.0649	0	0	0.203	0	82	82
48	1	716	0	2	2	0.0500	0.0649	0	1	0.261	10	82	82
48	1	717	9	2	3	0.0500	0.0649	0	1	0.235	0	82	82
48	1	718	9	2	3	0.0500	0.0649	1	1	0.098	0	0	82
48	1	719	9	1	3	0.0500	0.0649	1	1	0.076	0	82	0
48	1	720	1	2	3	0.0500	0.0649	0	1	0.286	100	0	0
