sub	sess	t	rew	loc	cue	co1	co2	or	resp	rt	rew_tot	left_col	right_col
5	1	1	1	1	1	0.0500	0.0500	1	0	1.118	0	82	0
5	1	2	1	1	1	0.0500	0.0500	0	1	0.611	74	82	82
5	1	3	1	2	2	0.0500	0.0500	0	1	0.946	50	82	82
5	1	4	0	2	2	0.0500	0.0500	1	1	0.582	8	82	0
5	1	5	9	2	3	0.0500	0.0500	1	1	0.477	0	0	82
5	1	6	1	1	1	0.0500	0.0500	0	1	0.403	95	82	82
5	1	7	9	2	3	0.0500	0.0500	1	1	0.693	0	0	82
5	1	8	9	1	3	0.0500	0.0500	0	1	0.610	0	0	0
5	1	9	1	1	1	0.0500	0.0500	0	1	0.509	84	82	82
5	1	10	1	1	1	0.0500	0.0500	1	1	0.554	80	82	0
5	1	11	0	2	2	0.0500	0.0500	1	1	0.547	8	82	0
5	1	12	1	1	3	0.0500	0.0500	0	1	0.552	80	82	82
5	1	13	0	1	2	0.0500	0.0500	1	1	0.478	9	0	82
5	1	14	0	2	3	0.0500	0.0500	1	1	0.469	9	82	0
5	1	15	1	2	2	0.0500	0.0500	1	0	0.263	0	0	82
5	1	16	0	2	1	0.0500	0.0500	0	1	0.470	9	0	0
5	1	17	1	1	3	0.0500	0.0500	1	0	0.499	0	82	0
5	1	18	1	1	3	0.0500	0.0500	1	1	0.624	73	82	0
5	1	19	9	1	3	0.0500	0.0500	1	1	0.585	0	82	0
5	1	20	9	1	2	0.0500	0.0500	0	1	0.631	0	82	82
5	1	21	0	2	3	0.0500	0.0500	1	1	0.420	9	82	0
5	1	22	0	1	1	0.0500	0.0500	1	1	0.489	9	0	82
5	1	23	1	2	3	0.0500	0.0500	1	1	0.421	93	0	82
5	1	24	1	2	2	0.0500	0.0500	0	1	0.494	86	82	82
5	1	25	1	2	1	0.0500	0.0500	0	1	0.455	89	82	82
5	1	26	0	1	1	0.0500	0.0500	1	0	0.432	0	0	82
5	1	27	1	1	1	0.0500	0.0500	1	1	0.590	76	82	0
5	1	28	0	2	3	0.0500	0.0500	0	1	0.458	9	0	0
5	1	29	1	1	3	0.0500	0.0500	0	1	0.539	81	82	82
5	1	30	9	1	1	0.0500	0.0500	1	1	0.666	0	82	0
5	1	31	1	2	2	0.0500	0.0500	0	1	0.431	92	82	82
5	1	32	0	1	3	0.0500	0.0500	1	0	0.578	0	0	82
5	1	33	1	2	3	0.0500	0.0500	0	1	0.395	95	82	82
5	1	34	9	1	3	0.0500	0.0500	0	1	0.375	0	82	82
5	1	35	0	2	2	0.0500	0.0500	0	1	0.375	10	0	0
5	1	36	0	2	2	0.0500	0.0500	1	1	0.438	9	82	0
5	1	37	1	1	3	0.0500	0.0500	1	0	0.481	0	82	0
5	1	38	1	1	1	0.0500	0.0500	0	1	0.409	94	82	82
5	1	39	0	2	2	0.0500	0.0500	1	1	0.497	9	82	0
5	1	40	0	1	1	0.0500	0.0500	0	1	0.673	7	0	0
5	1	41	1	1	2	0.0500	0.0500	0	1	0.560	79	82	82
5	1	42	0	1	1	0.0500	0.0500	0	1	0.475	9	0	0
5	1	43	0	1	3	0.0500	0.0500	0	0	0.516	0	0	0
5	1	44	1	2	3	0.0500	0.0500	0	1	0.497	85	82	82
5	1	45	0	1	1	0.0500	0.0500	0	1	0.448	9	0	0
5	1	46	1	2	2	0.0500	0.0500	0	1	0.460	89	82	82
5	1	47	1	1	1	0.0500	0.0500	1	0	0.427	0	82	0
5	1	48	0	2	2	0.0500	0.0500	0	1	0.351	10	0	0
5	1	49	0	2	2	0.0500	0.0500	1	1	0.520	8	82	0
5	1	50	0	2	1	0.0500	0.0500	0	1	0.493	9	0	0
5	1	51	1	2	2	0.0500	0.0500	1	0	0.370	0	0	82
5	1	52	1	1	1	0.0500	0.0500	0	0	0.555	0	82	82
5	1	53	9	2	3	0.0500	0.0500	0	1	0.404	0	0	0
5	1	54	0	1	3	0.0500	0.0500	0	1	0.412	9	0	0
5	1	55	9	1	1	0.0500	0.0500	1	0	0.556	0	0	82
5	1	56	9	1	3	0.0500	0.0500	0	1	0.705	0	82	82
5	1	57	1	2	2	0.0500	0.0500	0	1	0.534	82	82	82
5	1	58	1	1	3	0.0500	0.0500	0	0	0.544	0	82	82
5	1	59	0	2	3	0.0500	0.0500	1	0	0.698	0	82	0
5	1	60	0	2	3	0.0500	0.0500	0	1	0.498	9	0	0
5	1	61	0	2	2	0.0500	0.0500	1	1	0.448	9	82	0
5	1	62	1	1	3	0.0500	0.0500	0	1	0.506	84	82	82
5	1	63	0	1	3	0.0500	0.0500	0	1	0.410	9	0	0
5	1	64	0	2	3	0.0500	0.0500	1	1	0.452	9	82	0
5	1	65	1	2	2	0.0500	0.0500	1	1	0.607	74	0	82
5	1	66	9	2	2	0.0500	0.0500	0	1	0.439	0	0	0
5	1	67	0	1	3	0.0500	0.0500	1	0	0.632	0	0	82
5	1	68	1	1	3	0.0500	0.0500	1	1	0.795	55	82	0
5	1	69	0	1	3	0.0500	0.0500	0	1	0.474	9	0	0
5	1	70	9	2	2	0.0500	0.0500	1	1	0.502	0	82	0
5	1	71	1	1	1	0.0500	0.0500	1	0	0.488	0	82	0
5	1	72	1	2	1	0.0500	0.0500	1	1	0.643	71	0	82
5	1	73	1	1	3	0.0500	0.0500	0	1	0.443	91	82	82
5	1	74	0	1	1	0.0500	0.0500	1	1	0.742	6	0	82
5	1	75	0	1	3	0.0500	0.0500	1	1	0.530	8	0	82
5	1	76	0	2	3	0.0500	0.0500	1	1	0.570	8	82	0
5	1	77	1	2	2	0.0500	0.0500	0	1	0.389	96	82	82
5	1	78	1	1	1	0.0500	0.0500	0	1	0.519	83	82	82
5	1	79	9	1	3	0.0500	0.0500	1	1	0.575	0	0	82
5	1	80	9	2	2	0.0500	0.0500	0	1	0.323	0	82	82
5	1	81	9	2	3	0.0500	0.0500	1	1	0.550	0	0	82
5	1	82	1	2	2	0.0500	0.0500	0	1	0.432	92	82	82
5	1	83	0	1	1	0.0500	0.0500	0	1	0.484	9	0	0
5	1	84	9	2	3	0.0500	0.0500	1	1	0.535	0	82	0
5	1	85	0	2	3	0.0500	0.0500	1	1	0.518	8	82	0
5	1	86	0	2	2	0.0500	0.0500	1	1	0.629	7	82	0
5	1	87	1	1	1	0.0500	0.0500	0	1	0.450	90	82	82
5	1	88	0	2	3	0.0500	0.0500	1	1	0.587	8	82	0
5	1	89	9	1	3	0.0500	0.0500	0	1	0.284	0	0	0
5	1	90	1	2	3	0.0500	0.0500	0	1	0.618	73	82	82
5	1	91	1	1	1	0.0500	0.0500	0	1	0.505	84	82	82
5	1	92	9	1	1	0.0500	0.0500	1	0	0.554	0	0	82
5	1	93	1	1	3	0.0500	0.0500	1	1	0.588	76	82	0
5	1	94	9	2	2	0.0500	0.0500	0	1	0.415	0	0	0
5	1	95	1	1	1	0.0500	0.0500	0	1	0.482	87	82	82
5	1	96	1	2	2	0.0500	0.0500	1	0	0.564	0	0	82
5	1	97	0	2	3	0.0500	0.0500	1	1	0.543	8	82	0
5	1	98	0	2	2	0.0500	0.0500	0	1	0.369	10	0	0
5	1	99	1	1	3	0.0500	0.0500	1	1	0.598	75	82	0
5	1	100	9	1	2	0.0500	0.0500	1	0	0.745	0	82	0
5	1	101	0	2	1	0.0500	0.0500	1	1	0.655	7	82	0
5	1	102	0	1	2	0.0500	0.0500	0	1	0.604	7	0	0
5	1	103	1	1	3	0.0500	0.0500	1	0	0.640	0	82	0
5	1	104	0	2	2	0.0500	0.0500	1	1	0.463	9	82	0
5	1	105	9	2	3	0.0500	0.0500	1	1	0.408	0	82	0
5	1	106	1	2	3	0.0500	0.0500	0	1	0.473	88	82	82
5	1	107	0	1	3	0.0500	0.0500	0	1	0.442	9	0	0
5	1	108	1	1	3	0.0500	0.0500	0	1	0.649	70	82	82
5	1	109	0	1	3	0.0500	0.0500	1	1	0.531	8	0	82
5	1	110	0	1	1	0.0500	0.0500	1	0	0.388	0	0	82
5	1	111	1	1	3	0.0500	0.0500	1	1	0.497	85	82	0
5	1	112	9	1	3	0.0500	0.0500	1	0	0.523	0	82	0
5	1	113	0	1	2	0.0500	0.0500	0	1	0.570	8	0	0
5	1	114	1	1	3	0.0500	0.0500	1	1	0.545	81	82	0
5	1	115	1	2	3	0.0500	0.0500	0	1	0.503	85	82	82
5	1	116	0	2	1	0.0500	0.0500	1	1	0.521	8	82	0
5	1	117	0	1	1	0.0500	0.0500	0	1	0.402	9	0	0
5	1	118	0	2	1	0.0500	0.0500	0	1	0.505	8	0	0
5	1	119	0	2	3	0.0500	0.0500	0	1	0.470	9	0	0
5	1	120	0	1	1	0.0500	0.0500	1	1	0.545	8	0	82
5	1	121	9	2	1	0.0500	0.0500	0	1	0.446	0	82	82
5	1	122	1	1	3	0.0500	0.0500	0	1	0.496	85	82	82
5	1	123	0	2	3	0.0500	0.0500	0	1	0.459	9	0	0
5	1	124	0	1	3	0.0500	0.0500	1	1	0.465	9	0	82
5	1	125	1	2	2	0.0500	0.0500	1	1	0.518	83	0	82
5	1	126	9	2	2	0.0500	0.0500	1	1	0.521	0	82	0
5	1	127	1	1	1	0.0500	0.0500	1	0	0.514	0	82	0
5	1	128	9	1	1	0.0500	0.0500	0	1	0.419	0	82	82
5	1	129	1	1	1	0.0500	0.0500	0	1	0.355	100	82	82
5	1	130	1	1	3	0.0500	0.0500	1	0	0.428	0	82	0
5	1	131	0	1	1	0.0500	0.0500	1	0	0.467	0	0	82
5	1	132	9	2	3	0.0500	0.0500	0	1	0.519	0	82	82
5	1	133	1	1	3	0.0500	0.0500	0	1	0.540	81	82	82
5	1	134	1	2	3	0.0500	0.0500	1	1	0.410	94	0	82
5	1	135	9	2	3	0.0500	0.0500	0	1	0.473	0	82	82
5	1	136	1	2	3	0.0500	0.0500	1	1	0.433	92	0	82
5	1	137	1	2	3	0.0500	0.0500	1	1	0.441	91	0	82
5	1	138	9	1	3	0.0500	0.0500	0	1	0.465	0	0	0
5	1	139	9	2	3	0.0500	0.0500	0	1	0.409	0	0	0
5	1	140	1	1	3	0.0500	0.0500	0	1	0.419	93	82	82
5	1	141	1	2	3	0.0500	0.0500	0	1	0.375	97	82	82
5	1	142	0	2	3	0.0500	0.0500	0	1	0.319	10	0	0
5	1	143	1	1	2	0.0500	0.0500	0	1	0.365	98	82	82
5	1	144	1	1	3	0.0500	0.0500	0	1	0.932	50	82	82
5	1	145	0	2	2	0.0500	0.0500	1	1	0.375	10	82	0
5	1	146	0	1	3	0.0500	0.0500	1	0	0.428	0	0	82
5	1	147	0	1	3	0.0500	0.0500	1	1	0.475	9	0	82
5	1	148	9	1	1	0.0500	0.0500	0	1	0.368	0	0	0
5	1	149	1	2	2	0.0500	0.0500	0	1	0.320	100	82	82
5	1	150	1	2	2	0.0500	0.0500	0	1	0.288	100	82	82
5	1	151	9	1	3	0.0500	0.0500	0	1	0.470	0	0	0
5	1	152	0	1	3	0.0500	0.0500	0	1	0.429	9	0	0
5	1	153	0	1	3	0.0500	0.0500	1	0	0.407	0	0	82
5	1	154	0	1	2	0.0500	0.0500	0	0	0.341	0	0	0
5	1	155	0	2	2	0.0500	0.0500	0	1	0.434	9	0	0
5	1	156	1	1	3	0.0500	0.0500	0	1	0.370	98	82	82
5	1	157	0	1	3	0.0500	0.0500	0	1	0.489	9	0	0
5	1	158	0	1	3	0.0500	0.0500	0	1	0.300	10	0	0
5	1	159	1	2	3	0.0500	0.0500	1	0	0.362	0	0	82
5	1	160	1	2	3	0.0500	0.0500	1	1	0.416	93	0	82
5	1	161	0	1	2	0.0500	0.0500	0	1	0.307	10	0	0
5	1	162	0	1	1	0.0500	0.0500	1	1	0.555	8	0	82
5	1	163	1	1	1	0.0500	0.0500	1	0	0.248	0	82	0
5	1	164	0	1	3	0.0500	0.0500	0	1	0.387	10	0	0
5	1	165	0	2	2	0.0500	0.0500	1	1	0.443	9	82	0
5	1	166	1	2	3	0.0500	0.0500	1	0	0.404	0	0	82
5	1	167	0	1	1	0.0500	0.0500	0	1	0.469	9	0	0
5	1	168	0	2	2	0.0500	0.0500	0	1	0.354	10	0	0
5	1	169	1	2	3	0.0500	0.0500	0	1	0.309	100	82	82
5	1	170	0	1	1	0.0500	0.0500	0	1	0.527	8	0	0
5	1	171	0	2	1	0.0500	0.0500	1	0	0.483	0	82	0
5	1	172	0	1	2	0.0500	0.0500	1	1	0.385	10	0	82
5	1	173	1	2	3	0.0500	0.0500	0	1	0.434	92	82	82
5	1	174	9	2	3	0.0500	0.0500	0	1	0.399	0	82	82
5	1	175	0	2	3	0.0500	0.0500	1	0	0.312	0	82	0
5	1	176	0	1	1	0.0500	0.0500	1	0	0.567	0	0	82
5	1	177	1	1	1	0.0500	0.0500	1	1	0.695	66	82	0
5	1	178	0	2	2	0.0500	0.0500	0	1	0.407	9	0	0
5	1	179	0	1	1	0.0500	0.0500	1	1	0.544	8	0	82
5	1	180	1	2	1	0.0500	0.0500	0	1	0.528	82	82	82
5	1	181	1	2	3	0.0500	0.0500	0	1	0.460	89	82	82
5	1	182	9	2	2	0.0500	0.0500	0	1	0.409	0	0	0
5	1	183	0	1	3	0.0500	0.0500	1	0	0.395	0	0	82
5	1	184	9	1	1	0.0500	0.0500	1	1	0.641	0	82	0
5	1	185	9	2	2	0.0500	0.0500	0	1	0.443	0	82	82
5	1	186	9	1	1	0.0500	0.0500	0	1	0.416	0	0	0
5	1	187	0	2	2	0.0500	0.0500	0	1	0.495	9	0	0
5	1	188	1	2	2	0.0500	0.0500	1	1	0.462	89	0	82
5	1	189	1	2	3	0.0500	0.0500	0	1	0.566	78	82	82
5	1	190	1	2	2	0.0500	0.0500	1	1	0.511	84	0	82
5	1	191	1	1	2	0.0500	0.0500	1	0	0.345	0	82	0
5	1	192	0	2	2	0.0500	0.0500	0	1	0.571	8	0	0
5	1	193	0	1	1	0.0500	0.0500	1	0	0.753	0	0	82
5	1	194	9	1	1	0.0500	0.0500	0	1	0.491	0	0	0
5	1	195	0	2	3	0.0500	0.0500	1	1	0.584	8	82	0
5	1	196	0	2	2	0.0500	0.0500	1	0	0.251	0	82	0
5	1	197	1	1	2	0.0500	0.0500	1	1	0.571	78	82	0
5	1	198	0	1	3	0.0500	0.0500	1	0	0.460	0	0	82
5	1	199	1	1	1	0.0500	0.0500	1	1	0.636	71	82	0
5	1	200	1	1	1	0.0500	0.0500	1	1	0.564	79	82	0
5	1	201	9	2	3	0.0500	0.0500	1	1	0.624	0	82	0
5	1	202	9	2	2	0.0500	0.0500	0	1	0.624	0	82	82
5	1	203	1	1	2	0.0500	0.0500	1	0	0.710	0	82	0
5	1	204	9	2	3	0.0500	0.0500	0	1	0.518	0	82	82
5	1	205	1	1	3	0.0500	0.0500	0	1	0.456	89	82	82
5	1	206	0	2	3	0.0500	0.0500	1	0	0.565	0	82	0
5	1	207	1	1	1	0.0500	0.0500	0	1	0.613	74	82	82
5	1	208	1	2	2	0.0500	0.0500	0	1	0.352	100	82	82
5	1	209	0	1	1	0.0500	0.0500	1	1	0.593	8	0	82
5	1	210	1	2	2	0.0500	0.0500	1	1	0.586	76	0	82
5	1	211	1	2	3	0.0500	0.0500	1	1	0.564	79	0	82
5	1	212	1	2	3	0.0500	0.0500	0	1	0.423	93	82	82
5	1	213	0	2	2	0.0500	0.0500	0	1	0.480	9	0	0
5	1	214	9	2	1	0.0500	0.0500	0	1	0.583	0	0	0
5	1	215	0	2	3	0.0500	0.0500	0	1	0.437	9	0	0
5	1	216	1	2	3	0.0500	0.0500	0	1	0.464	89	82	82
5	1	217	0	1	3	0.0500	0.0500	0	1	0.386	10	0	0
5	1	218	1	1	1	0.0500	0.0500	0	1	0.431	92	82	82
5	1	219	0	1	3	0.0500	0.0500	0	1	0.418	9	0	0
5	1	220	9	2	2	0.0500	0.0500	1	0	0.300	0	0	82
5	1	221	0	1	1	0.0500	0.0500	1	0	1.336	0	0	82
5	1	222	1	2	1	0.0500	0.0500	1	1	0.462	89	0	82
5	1	223	9	1	1	0.0500	0.0500	1	1	0.523	0	0	82
5	1	224	0	1	3	0.0500	0.0500	1	1	0.486	9	0	82
5	1	225	9	2	1	0.0500	0.0500	1	1	0.551	0	82	0
5	1	226	0	1	3	0.0500	0.0500	1	1	0.446	9	0	82
5	1	227	1	2	2	0.0500	0.0500	1	1	0.465	89	0	82
5	1	228	1	1	1	0.0500	0.0500	1	0	0.497	0	82	0
5	1	229	0	2	3	0.0500	0.0500	1	1	0.508	8	82	0
5	1	230	0	1	1	0.0500	0.0500	0	1	0.437	9	0	0
5	1	231	0	1	1	0.0500	0.0500	0	1	0.451	9	0	0
5	1	232	0	1	1	0.0500	0.0500	1	1	0.507	8	0	82
5	1	233	1	2	2	0.0500	0.0500	0	1	0.520	83	82	82
5	1	234	1	2	2	0.0500	0.0500	1	1	0.513	84	0	82
5	1	235	0	2	3	0.0500	0.0500	1	1	0.520	8	82	0
5	1	236	0	1	1	0.0500	0.0500	1	0	0.350	0	0	82
5	1	237	1	2	2	0.0500	0.0500	1	1	0.472	88	0	82
5	1	238	1	2	2	0.0500	0.0500	0	0	0.469	0	82	82
5	1	239	9	2	2	0.0500	0.0500	0	1	0.458	0	0	0
5	1	240	0	1	1	0.0500	0.0500	0	1	0.447	9	0	0
5	1	241	9	1	3	0.0500	0.0500	1	1	1.139	0	82	0
5	1	242	9	2	3	0.0500	0.0500	0	1	0.502	0	0	0
5	1	243	9	1	1	0.0500	0.0500	1	1	0.687	0	82	0
5	1	244	0	2	3	0.0500	0.0500	0	1	0.420	9	0	0
5	1	245	1	1	3	0.0500	0.0500	1	1	0.662	69	82	0
5	1	246	0	2	2	0.0500	0.0500	1	1	0.483	9	82	0
5	1	247	0	2	3	0.0500	0.0500	0	1	0.460	9	0	0
5	1	248	1	1	1	0.0500	0.0500	0	1	0.617	73	82	82
5	1	249	0	1	3	0.0500	0.0500	0	1	0.417	9	0	0
5	1	250	1	1	3	0.0500	0.0500	1	1	0.483	87	82	0
5	1	251	0	2	2	0.0500	0.0500	0	1	0.523	8	0	0
5	1	252	9	1	1	0.0500	0.0500	0	1	0.412	0	0	0
5	1	253	0	2	3	0.0500	0.0500	0	1	0.406	9	0	0
5	1	254	1	1	2	0.0500	0.0500	1	0	0.481	0	82	0
5	1	255	1	2	2	0.0500	0.0500	0	1	0.276	100	82	82
5	1	256	0	1	3	0.0500	0.0500	1	1	0.571	8	0	82
5	1	257	9	1	2	0.0500	0.0500	1	0	0.286	0	0	82
5	1	258	1	2	3	0.0500	0.0500	1	0	0.660	0	0	82
5	1	259	1	2	2	0.0500	0.0500	0	1	0.514	84	82	82
5	1	260	1	1	2	0.0500	0.0500	0	1	0.501	85	82	82
5	1	261	0	2	3	0.0500	0.0500	0	1	0.481	9	0	0
5	1	262	0	2	3	0.0500	0.0500	1	1	0.412	9	82	0
5	1	263	1	2	2	0.0500	0.0500	0	1	0.379	97	82	82
5	1	264	1	2	3	0.0500	0.0500	0	1	0.329	100	82	82
5	1	265	0	1	1	0.0500	0.0500	1	0	0.407	0	0	82
5	1	266	1	1	1	0.0500	0.0500	1	0	0.426	0	82	0
5	1	267	9	2	2	0.0500	0.0500	0	1	0.424	0	82	82
5	1	268	0	1	3	0.0500	0.0500	0	1	0.483	9	0	0
5	1	269	0	2	2	0.0500	0.0500	1	1	0.722	6	82	0
5	1	270	0	2	3	0.0500	0.0500	1	1	0.411	9	82	0
5	1	271	0	2	2	0.0500	0.0500	0	1	0.484	9	0	0
5	1	272	0	1	1	0.0500	0.0500	0	1	0.422	9	0	0
5	1	273	1	2	1	0.0500	0.0500	0	1	0.674	68	82	82
5	1	274	0	2	3	0.0500	0.0500	0	1	0.434	9	0	0
5	1	275	1	2	3	0.0500	0.0500	1	0	0.523	0	0	82
5	1	276	9	2	1	0.0500	0.0500	1	1	0.471	0	0	82
5	1	277	9	1	3	0.0500	0.0500	1	0	0.395	0	82	0
5	1	278	0	2	3	0.0500	0.0500	1	1	0.504	8	82	0
5	1	279	0	1	1	0.0500	0.0500	0	1	0.366	10	0	0
5	1	280	9	1	1	0.0500	0.0500	1	1	0.546	0	0	82
5	1	281	1	2	2	0.0500	0.0500	1	1	0.521	83	0	82
5	1	282	0	1	1	0.0500	0.0500	0	1	0.356	10	0	0
5	1	283	9	1	1	0.0500	0.0500	0	1	0.346	0	82	82
5	1	284	1	1	3	0.0500	0.0500	1	0	0.280	0	82	0
5	1	285	9	2	2	0.0500	0.0500	1	1	0.536	0	0	82
5	1	286	9	2	3	0.0500	0.0500	1	1	0.626	0	82	0
5	1	287	1	1	3	0.0500	0.0500	0	1	0.352	100	82	82
5	1	288	1	2	1	0.0500	0.0500	1	1	0.449	90	0	82
5	1	289	0	1	2	0.0500	0.0500	1	0	0.274	0	0	82
5	1	290	1	1	1	0.0500	0.0500	1	0	0.521	0	82	0
5	1	291	9	1	3	0.0500	0.0500	1	0	0.403	0	0	82
5	1	292	0	2	1	0.0500	0.0500	1	1	0.547	8	82	0
5	1	293	1	2	3	0.0500	0.0500	0	1	0.553	80	82	82
5	1	294	1	1	1	0.0500	0.0500	1	0	0.526	0	82	0
5	1	295	1	2	2	0.0500	0.0500	1	1	0.470	88	0	82
5	1	296	9	1	3	0.0500	0.0500	0	1	0.789	0	82	82
5	1	297	0	2	2	0.0500	0.0500	0	1	0.511	8	0	0
5	1	298	1	2	3	0.0500	0.0500	1	1	0.539	81	0	82
5	1	299	0	1	3	0.0500	0.0500	1	0	0.577	0	0	82
5	1	300	0	2	2	0.0500	0.0500	1	1	0.550	8	82	0
5	1	301	1	1	3	0.0500	0.0500	0	0	0.885	0	82	82
5	1	302	0	1	3	0.0500	0.0500	1	1	0.436	9	0	82
5	1	303	0	1	1	0.0500	0.0500	0	1	0.373	10	0	0
5	1	304	1	1	1	0.0500	0.0500	0	1	0.364	99	82	82
5	1	305	0	2	3	0.0500	0.0500	0	1	0.484	9	0	0
5	1	306	1	1	3	0.0500	0.0500	1	1	0.387	96	82	0
5	1	307	9	1	3	0.0500	0.0500	0	1	0.419	0	82	82
5	1	308	0	2	3	0.0500	0.0500	0	0	0.535	0	0	0
5	1	309	1	1	2	0.0500	0.0500	0	1	0.474	88	82	82
5	1	310	9	1	2	0.0500	0.0500	0	1	0.454	0	0	0
5	1	311	1	1	3	0.0500	0.0500	1	0	0.485	0	82	0
5	1	312	1	2	3	0.0500	0.0500	1	1	0.516	83	0	82
5	1	313	1	1	1	0.0500	0.0500	1	0	0.624	0	82	0
5	1	314	1	1	1	0.0500	0.0500	0	1	0.421	93	82	82
5	1	315	1	2	3	0.0500	0.0500	0	1	0.468	88	82	82
5	1	316	1	2	1	0.0500	0.0500	0	1	0.408	94	82	82
5	1	317	1	1	3	0.0500	0.0500	0	1	0.419	93	82	82
5	1	318	0	2	1	0.0500	0.0500	0	1	0.495	9	0	0
5	1	319	9	2	2	0.0500	0.0500	1	1	0.436	0	0	82
5	1	320	1	2	3	0.0500	0.0500	1	1	0.496	85	0	82
5	1	321	0	2	2	0.0500	0.0500	0	1	0.254	10	0	0
5	1	322	0	1	2	0.0500	0.0500	1	0	0.352	0	0	82
5	1	323	9	2	2	0.0500	0.0500	1	0	0.045	0	0	82
5	1	324	1	1	3	0.0500	0.0500	0	0	-0.087	0	82	82
5	1	325	0	2	2	0.0500	0.0500	0	1	0.326	10	0	0
5	1	326	0	1	1	0.0500	0.0500	0	1	0.509	8	0	0
5	1	327	0	1	3	0.0500	0.0500	0	1	0.294	10	0	0
5	1	328	1	2	3	0.0500	0.0500	1	0	0.226	0	0	82
5	1	329	0	1	3	0.0500	0.0500	0	1	0.562	8	0	0
5	1	330	1	1	1	0.0500	0.0500	0	1	0.448	90	82	82
5	1	331	9	1	3	0.0500	0.0500	1	0	0.410	0	0	82
5	1	332	1	2	3	0.0500	0.0500	1	1	0.428	92	0	82
5	1	333	1	2	1	0.0500	0.0500	1	1	0.340	100	0	82
5	1	334	0	1	1	0.0500	0.0500	1	1	0.144	10	0	82
5	1	335	1	2	2	0.0500	0.0500	1	0	0.065	0	0	82
5	1	336	0	1	1	0.0500	0.0500	0	1	0.375	10	0	0
5	1	337	9	1	1	0.0500	0.0500	0	1	0.275	0	82	82
5	1	338	1	1	1	0.0500	0.0500	1	1	0.111	100	82	0
5	1	339	1	1	3	0.0500	0.0500	1	0	0.070	0	82	0
5	1	340	0	2	3	0.0500	0.0500	0	1	0.309	10	0	0
5	1	341	9	1	3	0.0500	0.0500	1	0	0.598	0	0	82
5	1	342	0	1	3	0.0500	0.0500	1	1	0.550	8	0	82
5	1	343	1	2	3	0.0500	0.0500	0	0	0.418	0	82	82
5	1	344	0	2	2	0.0500	0.0500	0	1	0.368	10	0	0
5	1	345	9	2	2	0.0500	0.0500	1	1	0.509	0	82	0
5	1	346	1	2	2	0.0500	0.0500	0	1	0.128	100	82	82
5	1	347	1	2	2	0.0500	0.0500	1	1	0.463	89	0	82
5	1	348	9	2	3	0.0500	0.0500	1	0	0.233	0	0	82
5	1	349	0	1	3	0.0500	0.0500	0	0	0.588	0	0	0
5	1	350	1	2	2	0.0500	0.0500	1	0	0.291	0	0	82
5	1	351	9	1	1	0.0500	0.0500	0	0	0.285	0	82	82
5	1	352	1	2	3	0.0500	0.0500	1	0	0.304	0	0	82
5	1	353	0	2	3	0.0500	0.0500	0	1	0.471	9	0	0
5	1	354	9	2	3	0.0500	0.0500	0	1	0.585	0	0	0
5	1	355	9	1	1	0.0500	0.0500	1	1	0.589	0	82	0
5	1	356	0	2	2	0.0500	0.0500	1	0	0.367	0	82	0
5	1	357	0	2	2	0.0500	0.0500	0	1	0.509	8	0	0
5	1	358	9	2	2	0.0500	0.0500	1	1	0.586	0	82	0
5	1	359	0	2	2	0.0500	0.0500	1	0	0.121	0	82	0
5	1	360	0	2	3	0.0500	0.0500	0	1	0.514	8	0	0
5	1	361	1	2	2	0.0500	0.0500	0	1	0.617	73	82	82
5	1	362	0	2	3	0.0500	0.0500	0	1	0.360	10	0	0
5	1	363	1	1	2	0.0500	0.0500	1	0	0.318	0	82	0
5	1	364	9	2	1	0.0500	0.0500	0	1	0.392	0	82	82
5	1	365	0	1	3	0.0500	0.0500	1	1	0.446	9	0	82
5	1	366	1	2	3	0.0500	0.0500	0	1	0.235	100	82	82
5	1	367	9	2	3	0.0500	0.0500	0	1	0.370	0	82	82
5	1	368	1	2	2	0.0500	0.0500	1	1	0.273	100	0	82
5	1	369	1	1	1	0.0500	0.0500	1	0	0.222	0	82	0
5	1	370	1	2	3	0.0500	0.0500	0	1	0.258	100	82	82
5	1	371	0	1	3	0.0500	0.0500	1	1	0.338	10	0	82
5	1	372	1	1	3	0.0500	0.0500	0	1	0.285	100	82	82
5	1	373	1	2	2	0.0500	0.0500	1	0	0.207	0	0	82
5	1	374	1	1	1	0.0500	0.0500	1	1	0.177	100	82	0
5	1	375	0	2	3	0.0500	0.0500	0	1	0.261	10	0	0
5	1	376	0	2	3	0.0500	0.0500	1	1	0.338	10	82	0
5	1	377	0	2	2	0.0500	0.0500	0	1	-0.160	10	0	0
5	1	378	9	2	2	0.0500	0.0500	1	0	0.225	0	82	0
5	1	379	1	1	3	0.0500	0.0500	1	0	0.455	0	82	0
5	1	380	9	2	2	0.0500	0.0500	0	0	0.450	0	0	0
5	1	381	0	2	2	0.0500	0.0500	0	1	0.328	10	0	0
5	1	382	1	2	3	0.0500	0.0500	1	1	0.262	100	0	82
5	1	383	0	1	1	0.0500	0.0500	1	1	0.238	10	0	82
5	1	384	9	1	3	0.0500	0.0500	0	1	0.328	0	0	0
5	1	385	9	1	1	0.0500	0.0500	0	0	0.202	0	0	0
5	1	386	1	2	3	0.0500	0.0500	1	0	0.325	0	0	82
5	1	387	0	1	3	0.0500	0.0500	0	1	0.430	9	0	0
5	1	388	1	1	3	0.0500	0.0500	1	0	0.352	0	82	0
5	1	389	1	2	2	0.0500	0.0500	1	1	0.405	95	0	82
5	1	390	9	1	1	0.0500	0.0500	0	1	0.356	0	82	82
5	1	391	9	1	1	0.0500	0.0500	1	0	0.441	0	0	82
5	1	392	9	2	2	0.0500	0.0500	0	1	0.367	0	0	0
5	1	393	0	1	1	0.0500	0.0500	0	0	0.193	0	0	0
5	1	394	9	1	1	0.0500	0.0500	1	0	0.382	0	0	82
5	1	395	1	1	3	0.0500	0.0500	1	1	0.367	98	82	0
5	1	396	9	1	3	0.0500	0.0500	1	0	0.361	0	82	0
5	1	397	1	1	3	0.0500	0.0500	0	0	0.414	0	82	82
5	1	398	1	1	1	0.0500	0.0500	0	1	0.367	98	82	82
5	1	399	0	1	1	0.0500	0.0500	1	1	0.294	10	0	82
5	1	400	0	1	1	0.0500	0.0500	1	0	0.384	0	0	82
5	1	401	9	1	3	0.0500	0.0500	0	1	0.361	0	0	0
5	1	402	1	1	1	0.0500	0.0500	0	1	0.324	100	82	82
5	1	403	0	1	3	0.0500	0.0500	0	1	0.191	10	0	0
5	1	404	0	1	3	0.0500	0.0500	1	1	0.413	9	0	82
5	1	405	9	1	2	0.0500	0.0500	0	1	0.205	0	82	82
5	1	406	1	2	1	0.0500	0.0500	0	0	0.323	0	82	82
5	1	407	0	1	1	0.0500	0.0500	1	0	0.200	0	0	82
5	1	408	9	1	1	0.0500	0.0500	0	0	0.206	0	0	0
5	1	409	1	1	1	0.0500	0.0500	0	1	0.437	91	82	82
5	1	410	0	2	3	0.0500	0.0500	0	1	0.320	10	0	0
5	1	411	0	2	2	0.0500	0.0500	1	0	0.180	0	82	0
5	1	412	0	2	3	0.0500	0.0500	0	1	0.377	10	0	0
5	1	413	0	2	3	0.0500	0.0500	1	1	0.494	9	82	0
5	1	414	9	1	1	0.0500	0.0500	1	0	0.285	0	0	82
5	1	415	0	1	3	0.0500	0.0500	1	0	0.413	0	0	82
5	1	416	0	2	2	0.0500	0.0500	0	1	0.121	10	0	0
5	1	417	1	2	2	0.0500	0.0500	0	1	0.299	100	82	82
5	1	418	0	1	1	0.0500	0.0500	0	1	0.327	10	0	0
5	1	419	1	1	2	0.0500	0.0500	1	0	0.313	0	82	0
5	1	420	0	1	3	0.0500	0.0500	0	1	0.257	10	0	0
5	1	421	1	1	1	0.0500	0.0500	0	1	0.390	96	82	82
5	1	422	1	1	1	0.0500	0.0500	1	1	0.240	100	82	0
5	1	423	0	1	3	0.0500	0.0500	0	1	0.218	10	0	0
5	1	424	0	2	1	0.0500	0.0500	1	1	0.216	10	82	0
5	1	425	9	2	3	0.0500	0.0500	0	1	0.381	0	82	82
5	1	426	0	1	3	0.0500	0.0500	1	0	0.152	0	0	82
5	1	427	0	2	3	0.0500	0.0500	1	0	0.359	0	82	0
5	1	428	0	1	1	0.0500	0.0500	0	1	0.269	10	0	0
5	1	429	1	1	3	0.0500	0.0500	0	0	0.230	0	82	82
5	1	430	1	2	2	0.0500	0.0500	1	0	0.066	0	0	82
5	1	431	9	2	3	0.0500	0.0500	1	1	0.302	0	0	82
5	1	432	9	2	1	0.0500	0.0500	1	1	0.348	0	0	82
5	1	433	1	2	1	0.0500	0.0500	0	0	0.213	0	82	82
5	1	434	0	2	3	0.0500	0.0500	1	0	0.148	0	82	0
5	1	435	0	2	2	0.0500	0.0500	1	1	0.371	10	82	0
5	1	436	9	1	2	0.0500	0.0500	1	0	0.116	0	82	0
5	1	437	1	1	3	0.0500	0.0500	0	0	0.312	0	82	82
5	1	438	1	1	1	0.0500	0.0500	1	0	0.283	0	82	0
5	1	439	1	2	2	0.0500	0.0500	0	1	0.206	100	82	82
5	1	440	0	1	3	0.0500	0.0500	1	1	0.404	9	0	82
5	1	441	0	2	3	0.0500	0.0500	1	0	0.673	0	82	0
5	1	442	1	1	1	0.0500	0.0500	1	0	0.421	0	82	0
5	1	443	0	2	2	0.0500	0.0500	1	1	0.394	10	82	0
5	1	444	9	2	2	0.0500	0.0500	1	1	0.436	0	82	0
5	1	445	0	1	3	0.0500	0.0500	0	1	0.415	9	0	0
5	1	446	9	2	3	0.0500	0.0500	1	1	0.434	0	0	82
5	1	447	0	1	2	0.0500	0.0500	1	0	0.220	0	0	82
5	1	448	0	1	3	0.0500	0.0500	1	0	0.373	0	0	82
5	1	449	1	2	3	0.0500	0.0500	1	0	0.345	0	0	82
5	1	450	1	1	2	0.0500	0.0500	0	1	0.555	79	82	82
5	1	451	1	2	3	0.0500	0.0500	0	0	3.931	0	82	82
5	1	452	1	2	3	0.0500	0.0500	1	0	0.345	0	0	82
5	1	453	1	2	3	0.0500	0.0500	1	1	0.490	86	0	82
5	1	454	1	1	3	0.0500	0.0500	0	1	0.303	100	82	82
5	1	455	0	2	2	0.0500	0.0500	1	0	0.330	0	82	0
5	1	456	0	2	2	0.0500	0.0500	0	0	-0.008	0	0	0
5	1	457	0	1	1	0.0500	0.0500	1	0	0.249	0	0	82
5	1	458	1	2	2	0.0500	0.0500	0	1	0.241	100	82	82
5	1	459	0	2	2	0.0500	0.0500	0	1	0.173	10	0	0
5	1	460	1	2	2	0.0500	0.0500	1	0	0.326	0	0	82
5	1	461	1	1	1	0.0500	0.0500	1	0	0.523	0	82	0
5	1	462	9	2	2	0.0500	0.0500	0	0	0.473	0	82	82
5	1	463	9	1	3	0.0500	0.0500	1	0	0.541	0	0	82
5	1	464	9	2	3	0.0500	0.0500	0	1	0.453	0	0	0
5	1	465	9	2	3	0.0500	0.0500	0	1	0.338	0	82	82
5	1	466	9	2	2	0.0500	0.0500	1	0	0.435	0	0	82
5	1	467	0	2	2	0.0500	0.0500	0	1	0.356	10	0	0
5	1	468	1	1	3	0.0500	0.0500	0	1	0.403	95	82	82
5	1	469	1	1	1	0.0500	0.0500	0	1	0.378	97	82	82
5	1	470	0	1	2	0.0500	0.0500	0	1	0.291	10	0	0
5	1	471	1	1	3	0.0500	0.0500	0	0	0.166	0	82	82
5	1	472	9	1	1	0.0500	0.0500	1	1	0.133	0	0	82
5	1	473	1	2	2	0.0500	0.0500	1	0	0.227	0	0	82
5	1	474	1	1	3	0.0500	0.0500	1	1	0.406	94	82	0
5	1	475	1	2	2	0.0500	0.0500	0	0	0.456	0	82	82
5	1	476	1	2	3	0.0500	0.0500	1	0	0.498	0	0	82
5	1	477	0	2	2	0.0500	0.0500	1	1	0.495	9	82	0
5	1	478	9	2	2	0.0500	0.0500	1	1	0.424	0	82	0
5	1	479	9	2	1	0.0500	0.0500	1	1	0.417	0	82	0
5	1	480	0	1	3	0.0500	0.0500	0	0	0.394	0	0	0
5	1	481	9	1	1	0.0500	0.0500	0	1	0.373	0	0	0
5	1	482	0	1	3	0.0500	0.0500	0	1	0.407	9	0	0
5	1	483	9	2	3	0.0500	0.0500	1	1	0.551	0	0	82
5	1	484	9	1	1	0.0500	0.0500	1	0	0.279	0	82	0
5	1	485	0	2	3	0.0500	0.0500	1	1	0.345	10	82	0
5	1	486	9	2	3	0.0500	0.0500	0	1	0.359	0	82	82
5	1	487	0	2	3	0.0500	0.0500	1	1	0.245	10	82	0
5	1	488	1	2	2	0.0500	0.0500	0	0	0.377	0	82	82
5	1	489	0	1	1	0.0500	0.0500	0	1	0.329	10	0	0
5	1	490	0	2	3	0.0500	0.0500	0	1	0.419	9	0	0
5	1	491	1	1	1	0.0500	0.0500	1	0	0.447	0	82	0
5	1	492	1	2	3	0.0500	0.0500	0	1	0.399	95	82	82
5	1	493	1	2	3	0.0500	0.0500	1	1	0.594	76	0	82
5	1	494	9	2	3	0.0500	0.0500	1	0	-0.045	0	0	82
5	1	495	1	1	3	0.0500	0.0500	0	1	0.026	100	82	82
5	1	496	0	2	2	0.0500	0.0500	0	1	0.364	10	0	0
5	1	497	1	2	1	0.0500	0.0500	1	1	0.429	92	0	82
5	1	498	0	2	2	0.0500	0.0500	0	1	0.296	10	0	0
5	1	499	0	2	2	0.0500	0.0500	0	0	0.323	0	0	0
5	1	500	0	2	2	0.0500	0.0500	0	1	0.325	10	0	0
5	1	501	0	2	3	0.0500	0.0500	0	1	0.350	10	0	0
5	1	502	1	2	2	0.0500	0.0500	1	0	0.298	0	0	82
5	1	503	9	2	2	0.0500	0.0500	1	0	0.256	0	0	82
5	1	504	9	1	1	0.0500	0.0500	0	0	0.526	0	0	0
5	1	505	0	2	1	0.0500	0.0500	0	1	0.351	10	0	0
5	1	506	1	1	3	0.0500	0.0500	0	1	0.366	98	82	82
5	1	507	1	1	1	0.0500	0.0500	0	0	0.311	0	82	82
5	1	508	0	1	1	0.0500	0.0500	0	1	0.257	10	0	0
5	1	509	0	2	2	0.0500	0.0500	0	1	0.280	10	0	0
5	1	510	9	1	3	0.0500	0.0500	1	0	0.321	0	0	82
5	1	511	9	1	3	0.0500	0.0500	0	1	0.320	0	82	82
5	1	512	1	2	3	0.0500	0.0500	0	1	0.276	100	82	82
5	1	513	0	2	3	0.0500	0.0500	0	1	0.318	10	0	0
5	1	514	9	2	3	0.0500	0.0500	0	1	0.245	0	0	0
5	1	515	9	2	3	0.0500	0.0500	1	0	0.374	0	82	0
5	1	516	1	2	3	0.0500	0.0500	0	1	0.432	92	82	82
5	1	517	1	1	3	0.0500	0.0500	0	0	0.230	0	82	82
5	1	518	9	2	3	0.0500	0.0500	1	0	0.469	0	82	0
5	1	519	1	1	1	0.0500	0.0500	0	1	0.401	95	82	82
5	1	520	1	1	1	0.0500	0.0500	0	1	0.454	90	82	82
5	1	521	1	2	1	0.0500	0.0500	0	1	0.334	100	82	82
5	1	522	1	2	3	0.0500	0.0500	0	1	0.374	98	82	82
5	1	523	1	1	3	0.0500	0.0500	1	0	0.481	0	82	0
5	1	524	1	2	3	0.0500	0.0500	0	1	0.491	86	82	82
5	1	525	1	2	3	0.0500	0.0500	1	1	0.423	93	0	82
5	1	526	0	1	2	0.0500	0.0500	1	0	0.247	0	0	82
5	1	527	1	1	2	0.0500	0.0500	1	0	0.349	0	82	0
5	1	528	0	1	1	0.0500	0.0500	1	0	0.338	0	0	82
5	1	529	0	1	1	0.0500	0.0500	1	0	0.371	0	0	82
5	1	530	9	1	3	0.0500	0.0500	1	1	0.146	0	82	0
5	1	531	1	2	3	0.0500	0.0500	1	1	0.520	83	0	82
5	1	532	1	2	2	0.0500	0.0500	1	0	0.297	0	0	82
5	1	533	0	2	3	0.0500	0.0500	0	1	0.492	9	0	0
5	1	534	0	1	3	0.0500	0.0500	0	0	0.431	0	0	0
5	1	535	9	1	3	0.0500	0.0500	1	1	0.417	0	0	82
5	1	536	0	1	2	0.0500	0.0500	0	1	0.336	10	0	0
5	1	537	0	2	2	0.0500	0.0500	1	1	0.462	9	82	0
5	1	538	1	2	3	0.0500	0.0500	1	1	0.544	81	0	82
5	1	539	0	2	3	0.0500	0.0500	0	1	0.459	9	0	0
5	1	540	0	2	2	0.0500	0.0500	1	1	0.400	9	82	0
5	1	541	9	1	1	0.0500	0.0500	0	1	0.403	0	82	82
5	1	542	9	2	1	0.0500	0.0500	0	1	0.476	0	0	0
5	1	543	9	1	3	0.0500	0.0500	0	1	0.366	0	82	82
5	1	544	0	2	2	0.0500	0.0500	0	1	0.368	10	0	0
5	1	545	0	1	1	0.0500	0.0500	1	1	0.545	8	0	82
5	1	546	0	1	1	0.0500	0.0500	0	1	0.359	10	0	0
5	1	547	0	1	3	0.0500	0.0500	1	0	0.361	0	0	82
5	1	548	9	2	2	0.0500	0.0500	0	1	0.357	0	0	0
5	1	549	0	1	3	0.0500	0.0500	1	1	0.462	9	0	82
5	1	550	1	1	2	0.0500	0.0500	0	1	0.258	100	82	82
5	1	551	0	2	3	0.0500	0.0500	1	1	0.400	10	82	0
5	1	552	0	2	3	0.0500	0.0500	0	0	0.378	0	0	0
5	1	553	9	2	2	0.0500	0.0500	1	1	0.417	0	0	82
5	1	554	0	2	2	0.0500	0.0500	1	1	0.523	8	82	0
5	1	555	0	1	1	0.0500	0.0500	0	1	0.433	9	0	0
5	1	556	1	1	1	0.0500	0.0500	1	0	0.602	0	82	0
5	1	557	0	2	1	0.0500	0.0500	1	0	0.377	0	82	0
5	1	558	1	1	1	0.0500	0.0500	1	0	0.354	0	82	0
5	1	559	1	2	2	0.0500	0.0500	1	1	0.455	89	0	82
5	1	560	1	1	1	0.0500	0.0500	1	1	0.459	89	82	0
5	1	561	1	2	2	0.0500	0.0500	0	1	0.309	100	82	82
5	1	562	9	2	2	0.0500	0.0500	0	1	0.340	0	82	82
5	1	563	9	2	3	0.0500	0.0500	1	1	0.469	0	82	0
5	1	564	1	1	3	0.0500	0.0500	1	0	0.550	0	82	0
5	1	565	1	2	3	0.0500	0.0500	0	1	0.340	100	82	82
5	1	566	1	2	1	0.0500	0.0500	1	1	0.328	100	0	82
5	1	567	1	1	1	0.0500	0.0500	1	0	0.349	0	82	0
5	1	568	0	2	1	0.0500	0.0500	0	1	0.254	10	0	0
5	1	569	9	1	1	0.0500	0.0500	0	0	0.219	0	82	82
5	1	570	0	1	1	0.0500	0.0500	0	1	0.365	10	0	0
5	1	571	1	1	3	0.0500	0.0500	1	1	0.481	87	82	0
5	1	572	1	1	2	0.0500	0.0500	0	1	0.212	100	82	82
5	1	573	1	1	3	0.0500	0.0500	1	1	0.491	86	82	0
5	1	574	0	2	3	0.0500	0.0500	0	1	0.254	10	0	0
5	1	575	9	1	1	0.0500	0.0500	0	1	0.182	0	82	82
5	1	576	0	2	3	0.0500	0.0500	1	1	0.411	9	82	0
5	1	577	0	1	1	0.0500	0.0500	1	0	0.424	0	0	82
5	1	578	1	2	1	0.0500	0.0500	1	0	0.451	0	0	82
5	1	579	0	1	2	0.0500	0.0500	0	1	0.374	10	0	0
5	1	580	0	1	3	0.0500	0.0500	1	1	0.534	8	0	82
5	1	581	0	1	1	0.0500	0.0500	0	1	0.325	10	0	0
5	1	582	9	1	3	0.0500	0.0500	1	1	0.384	0	0	82
5	1	583	0	1	1	0.0500	0.0500	0	1	0.328	10	0	0
5	1	584	9	1	1	0.0500	0.0500	1	0	0.293	0	82	0
5	1	585	1	2	3	0.0500	0.0500	0	1	0.321	100	82	82
5	1	586	0	2	1	0.0500	0.0500	1	1	0.364	10	82	0
5	1	587	1	1	1	0.0500	0.0500	0	1	0.275	100	82	82
5	1	588	0	2	2	0.0500	0.0500	0	0	0.046	0	0	0
5	1	589	1	2	3	0.0500	0.0500	1	1	0.511	84	0	82
5	1	590	9	1	2	0.0500	0.0500	1	0	0.268	0	0	82
5	1	591	1	2	2	0.0500	0.0500	0	1	0.221	100	82	82
5	1	592	1	1	1	0.0500	0.0500	0	0	0.284	0	82	82
5	1	593	0	2	2	0.0500	0.0500	1	0	0.216	0	82	0
5	1	594	1	2	2	0.0500	0.0500	0	0	0.099	0	82	82
5	1	595	1	1	3	0.0500	0.0500	0	1	0.226	100	82	82
5	1	596	1	2	3	0.0500	0.0500	1	1	0.384	97	0	82
5	1	597	0	1	1	0.0500	0.0500	1	0	0.317	0	0	82
5	1	598	9	1	3	0.0500	0.0500	0	1	0.384	0	82	82
5	1	599	9	1	3	0.0500	0.0500	1	1	0.301	0	82	0
5	1	600	0	2	3	0.0500	0.0500	0	1	0.161	10	0	0
5	1	601	1	2	2	0.0500	0.0500	0	1	0.061	100	82	82
5	1	602	1	1	3	0.0500	0.0500	1	1	0.334	100	82	0
5	1	603	1	2	3	0.0500	0.0500	0	1	0.231	100	82	82
5	1	604	0	1	1	0.0500	0.0500	0	0	0.135	0	0	0
5	1	605	1	2	3	0.0500	0.0500	1	1	0.379	97	0	82
5	1	606	0	1	1	0.0500	0.0500	1	0	0.353	0	0	82
5	1	607	0	1	3	0.0500	0.0500	1	0	0.311	0	0	82
5	1	608	0	1	1	0.0500	0.0500	0	0	0.102	0	0	0
5	1	609	0	2	2	0.0500	0.0500	1	1	0.427	9	82	0
5	1	610	1	2	3	0.0500	0.0500	0	0	0.490	0	82	82
5	1	611	9	1	3	0.0500	0.0500	0	1	0.343	0	0	0
5	1	612	0	2	3	0.0500	0.0500	1	1	0.433	9	82	0
5	1	613	1	1	3	0.0500	0.0500	0	1	0.374	98	82	82
5	1	614	1	1	3	0.0500	0.0500	1	0	0.404	0	82	0
5	1	615	0	2	2	0.0500	0.0500	1	1	0.293	10	82	0
5	1	616	1	2	2	0.0500	0.0500	1	1	0.355	99	0	82
5	1	617	0	1	3	0.0500	0.0500	1	0	0.434	0	0	82
5	1	618	1	1	3	0.0500	0.0500	1	1	0.489	86	82	0
5	1	619	1	2	2	0.0500	0.0500	1	0	0.345	0	0	82
5	1	620	0	1	3	0.0500	0.0500	0	1	0.487	9	0	0
5	1	621	1	1	1	0.0500	0.0500	1	0	0.379	0	82	0
5	1	622	9	1	1	0.0500	0.0500	1	0	1.075	0	82	0
5	1	623	1	1	3	0.0500	0.0500	0	1	0.364	99	82	82
5	1	624	1	2	3	0.0500	0.0500	0	1	0.524	83	82	82
5	1	625	1	1	2	0.0500	0.0500	0	1	0.415	94	82	82
5	1	626	0	1	1	0.0500	0.0500	1	0	0.426	0	0	82
5	1	627	1	1	3	0.0500	0.0500	1	1	0.540	81	82	0
5	1	628	1	1	1	0.0500	0.0500	1	0	0.393	0	82	0
5	1	629	0	1	3	0.0500	0.0500	0	0	0.530	0	0	0
5	1	630	0	2	3	0.0500	0.0500	1	1	0.479	9	82	0
5	1	631	0	2	1	0.0500	0.0500	0	1	0.392	10	0	0
5	1	632	0	2	3	0.0500	0.0500	1	1	0.591	8	82	0
5	1	633	9	2	3	0.0500	0.0500	0	1	0.457	0	0	0
5	1	634	0	1	1	0.0500	0.0500	0	1	0.466	9	0	0
5	1	635	9	2	2	0.0500	0.0500	0	1	0.466	0	0	0
5	1	636	1	1	3	0.0500	0.0500	1	1	0.498	85	82	0
5	1	637	0	1	3	0.0500	0.0500	0	1	0.444	9	0	0
5	1	638	0	1	1	0.0500	0.0500	0	1	0.426	9	0	0
5	1	639	0	2	2	0.0500	0.0500	1	1	0.423	9	82	0
5	1	640	0	2	2	0.0500	0.0500	1	1	0.493	9	82	0
5	1	641	0	2	3	0.0500	0.0500	0	1	0.535	8	0	0
5	1	642	9	1	2	0.0500	0.0500	0	1	0.372	0	0	0
5	1	643	1	1	3	0.0500	0.0500	1	1	0.455	90	82	0
5	1	644	0	2	2	0.0500	0.0500	1	0	0.244	0	82	0
5	1	645	1	2	2	0.0500	0.0500	0	0	0.448	0	82	82
5	1	646	0	2	3	0.0500	0.0500	0	1	0.481	9	0	0
5	1	647	0	1	1	0.0500	0.0500	0	1	0.416	9	0	0
5	1	648	9	2	3	0.0500	0.0500	1	1	0.340	0	82	0
5	1	649	1	2	3	0.0500	0.0500	1	1	0.471	88	0	82
5	1	650	0	1	1	0.0500	0.0500	1	0	0.371	0	0	82
5	1	651	0	1	1	0.0500	0.0500	1	1	0.698	7	0	82
5	1	652	1	2	2	0.0500	0.0500	1	1	0.599	75	0	82
5	1	653	9	2	2	0.0500	0.0500	1	1	0.350	0	0	82
5	1	654	0	2	3	0.0500	0.0500	1	1	0.451	9	82	0
5	1	655	0	1	3	0.0500	0.0500	0	1	0.378	10	0	0
5	1	656	1	1	2	0.0500	0.0500	1	0	0.453	0	82	0
5	1	657	0	1	3	0.0500	0.0500	0	0	0.502	0	0	0
5	1	658	1	1	1	0.0500	0.0500	0	1	0.361	99	82	82
5	1	659	9	2	3	0.0500	0.0500	0	1	0.478	0	0	0
5	1	660	9	2	2	0.0500	0.0500	1	1	0.393	0	82	0
5	1	661	9	1	1	0.0500	0.0500	1	1	0.604	0	82	0
5	1	662	0	2	2	0.0500	0.0500	1	0	0.259	0	82	0
5	1	663	1	1	3	0.0500	0.0500	1	0	0.560	0	82	0
5	1	664	1	2	2	0.0500	0.0500	1	1	0.562	79	0	82
5	1	665	1	1	1	0.0500	0.0500	0	1	0.528	82	82	82
5	1	666	1	2	2	0.0500	0.0500	0	1	0.394	96	82	82
5	1	667	9	1	3	0.0500	0.0500	1	0	0.441	0	82	0
5	1	668	0	1	3	0.0500	0.0500	0	1	0.457	9	0	0
5	1	669	0	1	1	0.0500	0.0500	1	1	0.555	8	0	82
5	1	670	1	2	3	0.0500	0.0500	1	1	0.470	88	0	82
5	1	671	0	2	1	0.0500	0.0500	1	1	0.478	9	82	0
5	1	672	1	1	1	0.0500	0.0500	0	1	0.374	98	82	82
5	1	673	0	1	3	0.0500	0.0500	0	1	0.386	10	0	0
5	1	674	1	2	2	0.0500	0.0500	1	1	0.442	91	0	82
5	1	675	1	1	1	0.0500	0.0500	0	1	0.310	100	82	82
5	1	676	0	1	2	0.0500	0.0500	1	1	0.433	9	0	82
5	1	677	1	1	3	0.0500	0.0500	1	1	0.459	89	82	0
5	1	678	1	2	2	0.0500	0.0500	0	1	0.393	96	82	82
5	1	679	0	2	3	0.0500	0.0500	0	1	0.435	9	0	0
5	1	680	0	2	3	0.0500	0.0500	1	1	0.403	9	82	0
5	1	681	0	1	3	0.0500	0.0500	1	0	0.630	0	0	82
5	1	682	1	2	3	0.0500	0.0500	0	0	0.266	0	82	82
5	1	683	1	2	2	0.0500	0.0500	0	1	0.400	95	82	82
5	1	684	0	1	1	0.0500	0.0500	1	0	0.497	0	0	82
5	1	685	0	2	2	0.0500	0.0500	0	1	0.443	9	0	0
5	1	686	1	1	1	0.0500	0.0500	1	0	0.378	0	82	0
5	1	687	0	1	3	0.0500	0.0500	1	1	0.621	7	0	82
5	1	688	1	2	2	0.0500	0.0500	0	1	0.211	100	82	82
5	1	689	0	1	3	0.0500	0.0500	1	1	0.484	9	0	82
5	1	690	0	2	2	0.0500	0.0500	0	1	0.171	10	0	0
5	1	691	0	2	3	0.0500	0.0500	1	1	0.321	10	82	0
5	1	692	1	2	3	0.0500	0.0500	0	1	0.071	100	82	82
5	1	693	1	2	3	0.0500	0.0500	1	1	0.007	100	0	82
5	1	694	0	2	2	0.0500	0.0500	1	0	2.322	0	82	0
5	1	695	1	2	2	0.0500	0.0500	0	1	0.166	100	82	82
5	1	696	1	2	2	0.0500	0.0500	1	1	0.444	91	0	82
5	1	697	9	2	2	0.0500	0.0500	0	1	-0.004	0	82	82
5	1	698	1	1	1	0.0500	0.0500	1	1	0.474	88	82	0
5	1	699	0	2	3	0.0500	0.0500	0	1	0.183	10	0	0
5	1	700	1	1	1	0.0500	0.0500	1	1	0.248	100	82	0
5	1	701	0	1	3	0.0500	0.0500	0	1	0.132	10	0	0
5	1	702	1	2	1	0.0500	0.0500	0	0	0.173	0	82	82
5	1	703	1	1	3	0.0500	0.0500	0	1	-0.106	100	82	82
5	1	704	1	1	3	0.0500	0.0500	0	0	0.269	0	82	82
5	1	705	0	1	1	0.0500	0.0500	0	1	0.150	10	0	0
5	1	706	1	1	1	0.0500	0.0500	0	1	0.258	100	82	82
5	1	707	0	1	2	0.0500	0.0500	1	0	0.096	0	0	82
5	1	708	1	2	3	0.0500	0.0500	0	1	3.351	50	82	82
5	1	709	1	1	3	0.0500	0.0500	0	1	0.349	100	82	82
5	1	710	1	2	2	0.0500	0.0500	1	0	0.357	0	0	82
5	1	711	1	2	1	0.0500	0.0500	1	1	0.039	100	0	82
5	1	712	0	2	1	0.0500	0.0500	0	1	-0.135	10	0	0
5	1	713	0	1	3	0.0500	0.0500	1	0	0.390	0	0	82
5	1	714	1	1	1	0.0500	0.0500	0	1	0.092	100	82	82
5	1	715	0	2	2	0.0500	0.0500	0	0	0.006	0	0	0
5	1	716	9	1	3	0.0500	0.0500	0	0	0.429	0	0	0
5	1	717	0	2	3	0.0500	0.0500	1	0	0.425	0	82	0
5	1	718	9	2	2	0.0500	0.0500	0	1	0.133	0	82	82
5	1	719	0	1	2	0.0500	0.0500	0	1	3.588	5	0	0
5	1	720	9	1	3	0.0500	0.0500	0	1	0.381	0	82	82
