sub	sess	t	rew	loc	cue	co1	co2	or	resp	rt	rew_tot	left_col	right_col
17	1	1	0	2	3	0.0892	0.0500	1	1	0.565	8	82	0
17	1	2	1	1	1	0.0892	0.0500	0	1	0.581	77	82	82
17	1	3	9	2	1	0.0892	0.0500	0	1	0.466	0	0	0
17	1	4	9	1	1	0.0892	0.0500	0	1	0.546	0	82	82
17	1	5	1	1	3	0.0892	0.0500	0	1	0.532	82	82	82
17	1	6	0	1	2	0.0892	0.0500	1	1	0.700	7	0	82
17	1	7	0	1	1	0.0892	0.0500	0	1	0.476	9	0	0
17	1	8	9	1	1	0.0892	0.0500	0	1	0.492	0	0	0
17	1	9	0	1	3	0.0892	0.0500	0	1	0.545	8	0	0
17	1	10	1	2	2	0.0892	0.0500	1	1	0.544	81	0	82
17	1	11	1	1	1	0.0892	0.0500	0	1	0.500	85	82	82
17	1	12	0	2	1	0.0892	0.0500	1	1	0.753	6	82	0
17	1	13	1	1	3	0.0892	0.0500	1	0	0.911	0	82	0
17	1	14	0	1	3	0.0892	0.0500	1	1	0.640	7	0	82
17	1	15	1	1	1	0.0892	0.0500	0	1	0.457	89	82	82
17	1	16	9	1	1	0.0892	0.0500	1	1	0.584	0	0	82
17	1	17	0	2	2	0.0892	0.0500	0	1	0.500	9	0	0
17	1	18	0	1	1	0.0892	0.0500	0	1	0.514	8	0	0
17	1	19	9	1	3	0.0892	0.0500	1	1	0.740	0	82	0
17	1	20	1	2	3	0.0892	0.0500	1	1	0.606	74	0	82
17	1	21	1	2	3	0.0892	0.0500	1	0	0.763	0	0	82
17	1	22	0	2	2	0.0892	0.0500	1	0	0.971	0	82	0
17	1	23	1	1	2	0.0892	0.0500	0	1	0.946	50	82	82
17	1	24	0	1	1	0.0892	0.0500	0	1	0.832	5	0	0
17	1	25	0	2	2	0.0892	0.0500	1	1	0.842	5	82	0
17	1	26	1	2	2	0.0892	0.0500	0	1	0.663	69	82	82
17	1	27	0	2	2	0.0892	0.0500	0	1	0.558	8	0	0
17	1	28	9	1	3	0.0892	0.0500	0	1	0.659	0	82	82
17	1	29	9	1	1	0.0892	0.0500	0	1	0.434	0	0	0
17	1	30	1	1	3	0.0892	0.0500	0	1	0.695	65	82	82
17	1	31	0	1	1	0.0892	0.0500	1	1	0.708	6	0	82
17	1	32	1	1	1	0.0892	0.0500	0	1	0.530	82	82	82
17	1	33	0	1	2	0.0892	0.0500	0	1	0.592	8	0	0
17	1	34	1	2	2	0.0892	0.0500	1	1	0.645	71	0	82
17	1	35	9	1	1	0.0892	0.0500	0	1	0.488	0	82	82
17	1	36	1	2	3	0.0892	0.0500	1	1	0.752	60	0	82
17	1	37	9	1	1	0.0892	0.0500	1	1	0.717	0	82	0
17	1	38	0	1	1	0.0892	0.0500	0	1	0.506	8	0	0
17	1	39	0	2	2	0.0892	0.0500	0	1	0.489	9	0	0
17	1	40	9	1	3	0.0892	0.0500	1	1	0.873	0	82	0
17	1	41	1	1	2	0.0892	0.0500	1	0	0.690	0	82	0
17	1	42	0	2	2	0.0892	0.0500	1	0	0.642	0	82	0
17	1	43	1	1	1	0.0892	0.0500	1	1	0.864	50	82	0
17	1	44	9	1	1	0.0892	0.0500	0	1	0.539	0	82	82
17	1	45	9	2	3	0.0892	0.0500	1	1	0.705	0	82	0
17	1	46	1	2	2	0.0892	0.0500	0	1	0.456	89	82	82
17	1	47	0	1	1	0.0892	0.0500	1	0	0.701	0	0	82
17	1	48	0	1	1	0.0892	0.0500	1	1	0.562	8	0	82
17	1	49	1	2	3	0.0892	0.0500	0	1	0.870	50	82	82
17	1	50	9	1	3	0.0892	0.0500	1	0	0.483	0	0	82
17	1	51	0	2	3	0.0892	0.0500	0	1	0.476	9	0	0
17	1	52	1	1	1	0.0892	0.0500	0	1	0.580	77	82	82
17	1	53	1	2	1	0.0892	0.0500	0	1	0.550	80	82	82
17	1	54	9	1	3	0.0892	0.0500	1	1	0.708	0	0	82
17	1	55	0	1	1	0.0892	0.0500	0	1	0.480	9	0	0
17	1	56	1	1	1	0.0892	0.0500	1	1	0.679	67	82	0
17	1	57	0	1	1	0.0892	0.0500	1	1	0.635	7	0	82
17	1	58	0	1	2	0.0892	0.0500	1	1	0.784	6	0	82
17	1	59	0	2	3	0.0892	0.0500	0	1	0.518	8	0	0
17	1	60	1	2	1	0.0892	0.0500	1	0	0.530	0	0	82
17	1	61	1	2	2	0.0892	0.0500	0	1	0.494	86	82	82
17	1	62	0	2	2	0.0892	0.0500	0	1	0.347	10	0	0
17	1	63	1	2	3	0.0892	0.0500	1	1	1.027	50	0	82
17	1	64	1	1	1	0.0892	0.0500	1	0	1.007	0	82	0
17	1	65	9	2	2	0.0892	0.0500	1	1	0.539	0	0	82
17	1	66	0	1	3	0.0892	0.0500	0	1	0.625	7	0	0
17	1	67	9	1	1	0.0892	0.0500	0	1	0.527	0	0	0
17	1	68	0	1	3	0.0892	0.0500	1	1	0.728	6	0	82
17	1	69	1	2	3	0.0892	0.0500	1	1	0.602	75	0	82
17	1	70	1	2	2	0.0892	0.0500	0	1	0.702	65	82	82
17	1	71	1	1	1	0.0892	0.0500	0	1	0.718	63	82	82
17	1	72	0	2	2	0.0892	0.0500	1	1	0.826	5	82	0
17	1	73	0	2	2	0.0892	0.0500	0	1	0.493	9	0	0
17	1	74	1	2	3	0.0892	0.0500	1	1	0.684	67	0	82
17	1	75	1	2	3	0.0892	0.0500	0	1	0.747	60	82	82
17	1	76	0	1	3	0.0892	0.0500	1	1	0.539	8	0	82
17	1	77	0	2	3	0.0892	0.0500	0	0	0.660	0	0	0
17	1	78	1	2	2	0.0892	0.0500	1	1	0.648	70	0	82
17	1	79	0	2	2	0.0892	0.0500	0	1	0.449	9	0	0
17	1	80	1	2	3	0.0892	0.0500	0	1	0.528	82	82	82
17	1	81	1	2	3	0.0892	0.0500	0	1	0.551	80	82	82
17	1	82	9	2	2	0.0892	0.0500	1	0	0.314	0	82	0
17	1	83	9	1	1	0.0892	0.0500	1	1	0.584	0	82	0
17	1	84	0	1	3	0.0892	0.0500	1	1	0.636	7	0	82
17	1	85	1	2	2	0.0892	0.0500	1	0	0.379	0	0	82
17	1	86	0	2	3	0.0892	0.0500	1	1	0.593	8	82	0
17	1	87	1	2	2	0.0892	0.0500	1	1	0.474	88	0	82
17	1	88	0	1	3	0.0892	0.0500	1	1	0.485	9	0	82
17	1	89	0	2	3	0.0892	0.0500	1	1	0.649	7	82	0
17	1	90	1	1	3	0.0892	0.0500	1	1	0.570	78	82	0
17	1	91	1	2	3	0.0892	0.0500	0	1	0.495	86	82	82
17	1	92	1	1	1	0.0892	0.0500	1	1	0.669	68	82	0
17	1	93	1	2	3	0.0892	0.0500	0	1	0.488	86	82	82
17	1	94	1	1	3	0.0892	0.0500	0	1	0.464	89	82	82
17	1	95	1	1	2	0.0892	0.0500	0	0	0.713	0	82	82
17	1	96	1	2	1	0.0892	0.0500	1	1	0.826	52	0	82
17	1	97	1	2	3	0.0892	0.0500	1	1	0.535	82	0	82
17	1	98	9	2	1	0.0892	0.0500	0	0	0.996	0	82	82
17	1	99	1	1	3	0.0892	0.0500	0	1	0.656	69	82	82
17	1	100	1	2	3	0.0892	0.0500	0	1	0.490	86	82	82
17	1	101	1	1	3	0.0892	0.0500	0	1	0.604	75	82	82
17	1	102	1	1	3	0.0892	0.0500	1	1	0.573	78	82	0
17	1	103	1	2	3	0.0892	0.0500	1	1	0.548	80	0	82
17	1	104	9	1	1	0.0892	0.0500	1	0	0.695	0	82	0
17	1	105	0	1	2	0.0892	0.0500	0	1	0.787	6	0	0
17	1	106	0	1	3	0.0892	0.0500	0	1	0.486	9	0	0
17	1	107	9	1	3	0.0892	0.0500	1	1	0.744	0	82	0
17	1	108	1	2	2	0.0892	0.0500	0	0	0.702	0	82	82
17	1	109	1	2	2	0.0892	0.0500	0	1	0.751	60	82	82
17	1	110	0	1	3	0.0892	0.0500	1	0	0.658	0	0	82
17	1	111	1	2	3	0.0892	0.0500	1	1	1.042	50	0	82
17	1	112	1	1	1	0.0892	0.0500	1	1	0.604	75	82	0
17	1	113	0	2	1	0.0892	0.0500	1	1	0.680	7	82	0
17	1	114	0	2	3	0.0892	0.0500	1	1	0.568	8	82	0
17	1	115	9	2	2	0.0892	0.0500	0	1	0.676	0	0	0
17	1	116	0	1	1	0.0892	0.0500	0	1	0.867	5	0	0
17	1	117	0	1	2	0.0892	0.0500	1	1	0.811	5	0	82
17	1	118	1	1	2	0.0892	0.0500	0	1	0.728	62	82	82
17	1	119	0	1	1	0.0892	0.0500	1	1	0.540	8	0	82
17	1	120	9	1	3	0.0892	0.0500	1	1	0.704	0	82	0
17	1	121	0	2	1	0.0892	0.0500	0	0	1.164	0	0	0
17	1	122	9	2	2	0.0892	0.0500	0	1	0.475	0	0	0
17	1	123	1	1	3	0.0892	0.0500	0	1	0.561	79	82	82
17	1	124	0	2	3	0.0892	0.0500	1	1	0.585	8	82	0
17	1	125	0	2	2	0.0892	0.0500	0	1	0.597	8	0	0
17	1	126	1	1	3	0.0892	0.0500	1	1	0.684	67	82	0
17	1	127	9	1	3	0.0892	0.0500	0	0	0.496	0	0	0
17	1	128	1	2	3	0.0892	0.0500	0	1	0.871	50	82	82
17	1	129	1	1	3	0.0892	0.0500	0	1	0.699	65	82	82
17	1	130	1	2	2	0.0892	0.0500	1	1	0.591	76	0	82
17	1	131	1	2	3	0.0892	0.0500	0	1	0.570	78	82	82
17	1	132	0	2	3	0.0892	0.0500	1	1	0.637	7	82	0
17	1	133	0	2	2	0.0892	0.0500	1	1	0.486	9	82	0
17	1	134	1	2	1	0.0892	0.0500	0	1	0.567	78	82	82
17	1	135	1	2	3	0.0892	0.0500	1	1	0.760	59	0	82
17	1	136	1	1	1	0.0892	0.0500	1	1	0.551	80	82	0
17	1	137	0	2	2	0.0892	0.0500	1	1	0.687	7	82	0
17	1	138	0	2	3	0.0892	0.0500	0	0	0.802	0	0	0
17	1	139	1	2	1	0.0892	0.0500	0	1	0.646	70	82	82
17	1	140	0	1	1	0.0892	0.0500	1	1	0.740	6	0	82
17	1	141	9	2	2	0.0892	0.0500	0	1	0.517	0	82	82
17	1	142	0	1	3	0.0892	0.0500	1	1	0.578	8	0	82
17	1	143	0	2	3	0.0892	0.0500	1	1	0.701	6	82	0
17	1	144	9	1	1	0.0892	0.0500	1	1	0.588	0	0	82
17	1	145	1	2	1	0.0892	0.0500	1	1	0.650	70	0	82
17	1	146	0	1	3	0.0892	0.0500	0	0	0.526	0	0	0
17	1	147	0	2	3	0.0892	0.0500	1	1	0.561	8	82	0
17	1	148	9	1	3	0.0892	0.0500	0	0	0.610	0	0	0
17	1	149	1	1	1	0.0892	0.0500	1	0	0.717	0	82	0
17	1	150	0	2	1	0.0892	0.0500	0	1	0.633	7	0	0
17	1	151	9	1	3	0.0892	0.0500	1	0	0.626	0	0	82
17	1	152	1	2	3	0.0892	0.0500	0	1	0.545	80	82	82
17	1	153	1	1	3	0.0892	0.0500	1	1	0.627	72	82	0
17	1	154	1	1	3	0.0892	0.0500	0	1	0.560	79	82	82
17	1	155	1	2	2	0.0892	0.0500	1	0	0.657	0	0	82
17	1	156	0	2	2	0.0892	0.0500	0	0	0.848	0	0	0
17	1	157	0	2	3	0.0892	0.0500	0	1	0.484	9	0	0
17	1	158	0	1	3	0.0892	0.0500	1	1	0.574	8	0	82
17	1	159	0	2	3	0.0892	0.0500	0	1	0.549	8	0	0
17	1	160	0	2	2	0.0892	0.0500	0	0	0.906	0	0	0
17	1	161	0	2	3	0.0892	0.0500	0	1	0.475	9	0	0
17	1	162	9	1	2	0.0892	0.0500	1	0	0.614	0	0	82
17	1	163	0	1	1	0.0892	0.0500	1	1	0.549	8	0	82
17	1	164	1	2	2	0.0892	0.0500	0	1	0.457	89	82	82
17	1	165	9	2	3	0.0892	0.0500	0	1	0.598	0	82	82
17	1	166	0	1	3	0.0892	0.0500	1	1	0.564	8	0	82
17	1	167	0	2	2	0.0892	0.0500	1	1	0.893	5	82	0
17	1	168	0	1	3	0.0892	0.0500	0	1	0.678	7	0	0
17	1	169	9	2	3	0.0892	0.0500	0	0	0.802	0	82	82
17	1	170	1	1	3	0.0892	0.0500	0	0	1.519	0	82	82
17	1	171	0	2	2	0.0892	0.0500	1	1	0.781	6	82	0
17	1	172	0	2	3	0.0892	0.0500	1	1	0.634	7	82	0
17	1	173	0	2	2	0.0892	0.0500	1	1	0.538	8	82	0
17	1	174	1	2	2	0.0892	0.0500	1	1	0.566	78	0	82
17	1	175	0	1	1	0.0892	0.0500	1	1	0.740	6	0	82
17	1	176	0	2	2	0.0892	0.0500	1	0	0.969	0	82	0
17	1	177	0	2	3	0.0892	0.0500	1	1	0.878	5	82	0
17	1	178	9	2	3	0.0892	0.0500	0	0	0.665	0	82	82
17	1	179	1	2	3	0.0892	0.0500	1	0	0.884	0	0	82
17	1	180	0	1	2	0.0892	0.0500	1	1	0.631	7	0	82
17	1	181	0	1	3	0.0892	0.0500	0	0	0.561	0	0	0
17	1	182	1	1	2	0.0892	0.0500	1	1	0.635	72	82	0
17	1	183	1	1	3	0.0892	0.0500	0	0	0.562	0	82	82
17	1	184	9	2	3	0.0892	0.0500	0	1	0.728	0	0	0
17	1	185	1	1	3	0.0892	0.0500	1	0	0.656	0	82	0
17	1	186	1	1	3	0.0892	0.0500	1	1	0.629	72	82	0
17	1	187	9	2	3	0.0892	0.0500	1	1	0.764	0	0	82
17	1	188	0	1	1	0.0892	0.0500	1	0	1.039	0	0	82
17	1	189	0	1	1	0.0892	0.0500	0	1	0.614	7	0	0
17	1	190	1	2	2	0.0892	0.0500	1	1	0.602	75	0	82
17	1	191	0	1	1	0.0892	0.0500	0	1	0.497	9	0	0
17	1	192	1	1	1	0.0892	0.0500	0	1	0.537	81	82	82
17	1	193	1	2	2	0.0892	0.0500	1	1	0.739	61	0	82
17	1	194	0	1	3	0.0892	0.0500	1	0	1.023	0	0	82
17	1	195	1	2	2	0.0892	0.0500	0	1	0.569	78	82	82
17	1	196	0	1	2	0.0892	0.0500	0	1	0.833	5	0	0
17	1	197	0	2	3	0.0892	0.0500	1	0	0.956	0	82	0
17	1	198	0	2	2	0.0892	0.0500	1	1	0.767	6	82	0
17	1	199	9	1	1	0.0892	0.0500	0	1	0.508	0	82	82
17	1	200	0	1	1	0.0892	0.0500	0	1	1.012	5	0	0
17	1	201	1	2	3	0.0892	0.0500	1	1	0.718	63	0	82
17	1	202	0	1	3	0.0892	0.0500	0	1	0.762	6	0	0
17	1	203	0	2	2	0.0892	0.0500	1	0	0.839	0	82	0
17	1	204	1	1	3	0.0892	0.0500	1	1	0.924	50	82	0
17	1	205	1	1	1	0.0892	0.0500	1	1	0.569	78	82	0
17	1	206	0	2	3	0.0892	0.0500	0	1	0.640	7	0	0
17	1	207	0	2	2	0.0892	0.0500	0	1	0.705	6	0	0
17	1	208	0	1	1	0.0892	0.0500	0	1	0.456	9	0	0
17	1	209	1	1	1	0.0892	0.0500	0	1	0.417	93	82	82
17	1	210	0	2	3	0.0892	0.0500	0	1	0.468	9	0	0
17	1	211	1	2	3	0.0892	0.0500	1	1	0.655	70	0	82
17	1	212	1	1	1	0.0892	0.0500	1	1	0.760	59	82	0
17	1	213	0	1	3	0.0892	0.0500	0	1	0.514	8	0	0
17	1	214	1	1	1	0.0892	0.0500	0	1	0.451	90	82	82
17	1	215	1	2	2	0.0892	0.0500	0	1	0.505	84	82	82
17	1	216	0	2	1	0.0892	0.0500	1	1	1.355	5	82	0
17	1	217	9	2	2	0.0892	0.0500	1	0	0.995	0	82	0
17	1	218	9	2	2	0.0892	0.0500	1	1	0.742	0	82	0
17	1	219	9	1	2	0.0892	0.0500	1	0	0.805	0	82	0
17	1	220	9	1	3	0.0892	0.0500	0	1	0.554	0	82	82
17	1	221	9	2	3	0.0892	0.0500	0	1	0.533	0	0	0
17	1	222	0	1	3	0.0892	0.0500	1	1	0.691	7	0	82
17	1	223	0	2	2	0.0892	0.0500	1	1	0.702	6	82	0
17	1	224	1	2	3	0.0892	0.0500	0	1	0.726	62	82	82
17	1	225	0	2	3	0.0892	0.0500	0	1	0.455	9	0	0
17	1	226	1	1	1	0.0892	0.0500	1	1	0.546	80	82	0
17	1	227	1	2	2	0.0892	0.0500	0	1	0.634	72	82	82
17	1	228	1	1	3	0.0892	0.0500	1	1	0.576	77	82	0
17	1	229	1	2	3	0.0892	0.0500	0	1	0.500	85	82	82
17	1	230	0	1	1	0.0892	0.0500	0	1	0.526	8	0	0
17	1	231	1	1	1	0.0892	0.0500	0	1	0.408	94	82	82
17	1	232	9	2	3	0.0892	0.0500	0	1	0.439	0	82	82
17	1	233	9	1	3	0.0892	0.0500	1	1	0.688	0	0	82
17	1	234	0	2	3	0.0892	0.0500	0	1	0.435	9	0	0
17	1	235	0	2	2	0.0892	0.0500	0	1	0.407	9	0	0
17	1	236	9	2	2	0.0892	0.0500	0	1	0.376	0	0	0
17	1	237	9	1	1	0.0892	0.0500	1	1	0.537	0	0	82
17	1	238	9	2	3	0.0892	0.0500	1	1	0.692	0	82	0
17	1	239	0	2	2	0.0892	0.0500	0	1	0.605	7	0	0
17	1	240	1	1	1	0.0892	0.0500	0	1	0.459	89	82	82
17	1	241	9	2	3	0.0892	0.0500	1	1	0.653	0	0	82
17	1	242	1	2	2	0.0892	0.0500	0	1	0.455	89	82	82
17	1	243	1	2	2	0.0892	0.0500	1	1	1.038	50	0	82
17	1	244	1	1	3	0.0892	0.0500	1	1	0.601	75	82	0
17	1	245	1	2	1	0.0892	0.0500	1	0	0.549	0	0	82
17	1	246	0	2	3	0.0892	0.0500	1	1	0.643	7	82	0
17	1	247	0	1	1	0.0892	0.0500	0	0	0.871	0	0	0
17	1	248	0	1	3	0.0892	0.0500	1	1	0.555	8	0	82
17	1	249	1	2	3	0.0892	0.0500	1	1	0.621	73	0	82
17	1	250	1	1	1	0.0892	0.0500	1	1	0.525	82	82	0
17	1	251	1	1	1	0.0892	0.0500	1	0	0.831	0	82	0
17	1	252	1	2	1	0.0892	0.0500	0	1	0.534	82	82	82
17	1	253	1	2	2	0.0892	0.0500	1	1	0.564	79	0	82
17	1	254	0	1	3	0.0892	0.0500	0	1	0.548	8	0	0
17	1	255	0	1	1	0.0892	0.0500	1	1	0.512	8	0	82
17	1	256	0	2	1	0.0892	0.0500	1	1	0.941	5	82	0
17	1	257	1	2	3	0.0892	0.0500	1	1	0.687	66	0	82
17	1	258	9	2	2	0.0892	0.0500	1	1	1.039	0	0	82
17	1	259	9	2	2	0.0892	0.0500	0	1	0.576	0	82	82
17	1	260	1	1	3	0.0892	0.0500	0	1	0.591	76	82	82
17	1	261	9	2	3	0.0892	0.0500	1	0	0.687	0	0	82
17	1	262	1	1	1	0.0892	0.0500	1	1	0.581	77	82	0
17	1	263	1	1	1	0.0892	0.0500	1	1	0.485	87	82	0
17	1	264	1	1	2	0.0892	0.0500	0	1	0.710	64	82	82
17	1	265	1	1	1	0.0892	0.0500	1	0	0.573	0	82	0
17	1	266	9	2	2	0.0892	0.0500	1	0	0.589	0	0	82
17	1	267	0	1	1	0.0892	0.0500	1	1	0.591	8	0	82
17	1	268	1	1	1	0.0892	0.0500	0	1	0.465	88	82	82
17	1	269	1	1	1	0.0892	0.0500	0	1	0.387	96	82	82
17	1	270	0	2	2	0.0892	0.0500	0	1	0.423	9	0	0
17	1	271	9	2	2	0.0892	0.0500	1	1	0.541	0	0	82
17	1	272	0	1	1	0.0892	0.0500	0	1	0.624	7	0	0
17	1	273	9	2	3	0.0892	0.0500	0	1	0.557	0	0	0
17	1	274	0	1	3	0.0892	0.0500	1	0	0.744	0	0	82
17	1	275	9	2	1	0.0892	0.0500	1	0	1.183	0	82	0
17	1	276	0	2	3	0.0892	0.0500	1	1	0.832	5	82	0
17	1	277	0	2	3	0.0892	0.0500	0	1	0.491	9	0	0
17	1	278	0	2	2	0.0892	0.0500	1	1	0.594	8	82	0
17	1	279	0	2	3	0.0892	0.0500	0	1	0.614	7	0	0
17	1	280	1	2	3	0.0892	0.0500	0	1	0.481	87	82	82
17	1	281	1	1	3	0.0892	0.0500	0	1	0.652	70	82	82
17	1	282	9	2	2	0.0892	0.0500	0	1	0.434	0	82	82
17	1	283	0	2	2	0.0892	0.0500	1	1	0.601	7	82	0
17	1	284	1	1	1	0.0892	0.0500	1	1	0.639	71	82	0
17	1	285	9	1	1	0.0892	0.0500	0	1	0.605	0	0	0
17	1	286	0	2	3	0.0892	0.0500	0	1	0.484	9	0	0
17	1	287	0	2	1	0.0892	0.0500	0	1	0.570	8	0	0
17	1	288	1	2	2	0.0892	0.0500	0	1	0.579	77	82	82
17	1	289	1	2	2	0.0892	0.0500	1	1	0.844	51	0	82
17	1	290	0	1	2	0.0892	0.0500	0	1	0.608	7	0	0
17	1	291	1	1	2	0.0892	0.0500	1	1	0.691	66	82	0
17	1	292	0	1	3	0.0892	0.0500	0	1	0.615	7	0	0
17	1	293	9	1	3	0.0892	0.0500	0	1	0.496	0	82	82
17	1	294	1	1	3	0.0892	0.0500	0	1	0.512	84	82	82
17	1	295	1	1	3	0.0892	0.0500	1	1	0.855	50	82	0
17	1	296	1	2	2	0.0892	0.0500	0	1	0.447	90	82	82
17	1	297	0	1	1	0.0892	0.0500	1	1	0.672	7	0	82
17	1	298	0	2	3	0.0892	0.0500	0	1	0.503	8	0	0
17	1	299	9	1	3	0.0892	0.0500	0	1	0.444	0	0	0
17	1	300	0	1	3	0.0892	0.0500	0	1	0.434	9	0	0
17	1	301	0	2	3	0.0892	0.0500	1	1	0.746	6	82	0
17	1	302	0	2	3	0.0892	0.0500	1	1	0.498	9	82	0
17	1	303	1	1	3	0.0892	0.0500	0	0	0.529	0	82	82
17	1	304	1	1	3	0.0892	0.0500	1	1	0.586	76	82	0
17	1	305	1	1	1	0.0892	0.0500	0	1	0.492	86	82	82
17	1	306	1	1	3	0.0892	0.0500	0	1	0.434	92	82	82
17	1	307	0	1	1	0.0892	0.0500	1	1	0.616	7	0	82
17	1	308	1	2	3	0.0892	0.0500	1	1	0.598	75	0	82
17	1	309	1	2	2	0.0892	0.0500	1	1	0.567	78	0	82
17	1	310	0	1	1	0.0892	0.0500	0	1	0.796	6	0	0
17	1	311	1	2	3	0.0892	0.0500	0	1	0.468	88	82	82
17	1	312	0	1	3	0.0892	0.0500	0	1	0.630	7	0	0
17	1	313	0	1	1	0.0892	0.0500	1	0	0.625	0	0	82
17	1	314	0	1	3	0.0892	0.0500	1	0	0.729	0	0	82
17	1	315	9	1	2	0.0892	0.0500	0	0	1.500	0	82	82
17	1	316	9	2	1	0.0892	0.0500	1	0	0.590	0	0	82
17	1	317	1	2	2	0.0892	0.0500	1	0	0.605	0	0	82
17	1	318	0	2	2	0.0892	0.0500	0	1	0.454	9	0	0
17	1	319	0	2	1	0.0892	0.0500	0	1	0.566	8	0	0
17	1	320	1	2	2	0.0892	0.0500	0	1	0.516	83	82	82
17	1	321	9	2	2	0.0892	0.0500	1	1	0.644	0	82	0
17	1	322	9	1	1	0.0892	0.0500	1	1	0.597	0	82	0
17	1	323	1	1	1	0.0892	0.0500	0	1	0.607	74	82	82
17	1	324	9	2	3	0.0892	0.0500	1	0	0.744	0	82	0
17	1	325	1	1	2	0.0892	0.0500	1	1	0.749	60	82	0
17	1	326	9	2	3	0.0892	0.0500	1	0	0.704	0	82	0
17	1	327	0	1	1	0.0892	0.0500	0	1	0.562	8	0	0
17	1	328	0	1	3	0.0892	0.0500	0	1	0.502	8	0	0
17	1	329	1	2	2	0.0892	0.0500	0	1	0.692	66	82	82
17	1	330	1	1	3	0.0892	0.0500	1	1	0.635	71	82	0
17	1	331	9	2	3	0.0892	0.0500	1	1	0.876	0	0	82
17	1	332	0	2	2	0.0892	0.0500	0	1	0.471	9	0	0
17	1	333	1	2	2	0.0892	0.0500	1	1	0.699	65	0	82
17	1	334	0	1	1	0.0892	0.0500	1	1	1.055	5	0	82
17	1	335	0	1	1	0.0892	0.0500	1	1	0.655	7	0	82
17	1	336	0	1	3	0.0892	0.0500	0	1	0.871	5	0	0
17	1	337	1	1	1	0.0892	0.0500	0	1	0.551	80	82	82
17	1	338	0	1	3	0.0892	0.0500	0	1	0.549	8	0	0
17	1	339	1	1	3	0.0892	0.0500	0	1	0.542	81	82	82
17	1	340	1	2	3	0.0892	0.0500	0	1	0.728	62	82	82
17	1	341	9	1	2	0.0892	0.0500	0	1	0.544	0	0	0
17	1	342	9	1	3	0.0892	0.0500	0	1	0.510	0	82	82
17	1	343	0	1	3	0.0892	0.0500	1	1	0.645	7	0	82
17	1	344	1	2	2	0.0892	0.0500	0	1	0.590	76	82	82
17	1	345	0	1	3	0.0892	0.0500	0	1	0.535	8	0	0
17	1	346	1	1	3	0.0892	0.0500	1	1	0.602	75	82	0
17	1	347	9	2	2	0.0892	0.0500	0	1	0.449	0	0	0
17	1	348	9	1	3	0.0892	0.0500	0	1	0.562	0	0	0
17	1	349	0	2	3	0.0892	0.0500	0	1	0.468	9	0	0
17	1	350	1	1	3	0.0892	0.0500	1	1	0.580	77	82	0
17	1	351	0	1	3	0.0892	0.0500	1	1	0.731	6	0	82
17	1	352	0	2	2	0.0892	0.0500	0	1	0.513	8	0	0
17	1	353	0	2	2	0.0892	0.0500	1	1	0.893	5	82	0
17	1	354	1	1	3	0.0892	0.0500	1	1	0.620	73	82	0
17	1	355	0	2	3	0.0892	0.0500	1	1	0.633	7	82	0
17	1	356	9	1	1	0.0892	0.0500	1	0	0.709	0	0	82
17	1	357	9	2	2	0.0892	0.0500	0	1	0.539	0	82	82
17	1	358	0	1	1	0.0892	0.0500	0	1	0.518	8	0	0
17	1	359	1	2	3	0.0892	0.0500	0	1	0.498	85	82	82
17	1	360	9	2	3	0.0892	0.0500	0	1	0.417	0	0	0
17	1	361	9	1	3	0.0892	0.0500	1	1	0.955	0	0	82
17	1	362	1	2	2	0.0892	0.0500	1	1	0.621	73	0	82
17	1	363	0	1	1	0.0892	0.0500	1	1	0.733	6	0	82
17	1	364	0	1	3	0.0892	0.0500	0	1	0.588	8	0	0
17	1	365	1	1	1	0.0892	0.0500	1	1	0.663	69	82	0
17	1	366	1	1	1	0.0892	0.0500	0	1	0.520	83	82	82
17	1	367	0	2	3	0.0892	0.0500	1	0	0.512	0	82	0
17	1	368	0	1	1	0.0892	0.0500	1	0	0.744	0	0	82
17	1	369	1	2	3	0.0892	0.0500	0	0	0.751	0	82	82
17	1	370	9	2	2	0.0892	0.0500	0	1	0.512	0	82	82
17	1	371	0	1	1	0.0892	0.0500	0	0	0.925	0	0	0
17	1	372	0	1	1	0.0892	0.0500	0	1	0.697	7	0	0
17	1	373	9	2	2	0.0892	0.0500	0	1	0.645	0	82	82
17	1	374	0	2	3	0.0892	0.0500	0	1	0.603	7	0	0
17	1	375	0	2	2	0.0892	0.0500	0	0	1.363	0	0	0
17	1	376	9	2	3	0.0892	0.0500	1	1	0.766	0	82	0
17	1	377	0	2	3	0.0892	0.0500	0	1	0.763	6	0	0
17	1	378	9	1	1	0.0892	0.0500	0	1	0.520	0	82	82
17	1	379	1	1	3	0.0892	0.0500	1	1	0.673	68	82	0
17	1	380	0	2	2	0.0892	0.0500	0	1	0.433	9	0	0
17	1	381	0	2	3	0.0892	0.0500	1	1	0.588	8	82	0
17	1	382	9	2	2	0.0892	0.0500	1	1	0.522	0	0	82
17	1	383	1	2	3	0.0892	0.0500	0	1	0.537	81	82	82
17	1	384	1	2	1	0.0892	0.0500	1	1	0.634	72	0	82
17	1	385	1	2	1	0.0892	0.0500	0	1	0.531	82	82	82
17	1	386	1	1	3	0.0892	0.0500	1	1	0.530	82	82	0
17	1	387	0	2	2	0.0892	0.0500	0	1	0.485	9	0	0
17	1	388	0	2	2	0.0892	0.0500	1	1	0.557	8	82	0
17	1	389	1	2	3	0.0892	0.0500	0	1	0.711	64	82	82
17	1	390	1	2	2	0.0892	0.0500	1	1	0.550	80	0	82
17	1	391	0	1	1	0.0892	0.0500	1	1	0.698	7	0	82
17	1	392	0	2	3	0.0892	0.0500	1	1	0.581	8	82	0
17	1	393	9	2	1	0.0892	0.0500	0	1	0.537	0	82	82
17	1	394	9	1	3	0.0892	0.0500	1	1	0.780	0	0	82
17	1	395	0	1	2	0.0892	0.0500	0	1	0.613	7	0	0
17	1	396	1	2	3	0.0892	0.0500	0	1	0.457	89	82	82
17	1	397	1	2	3	0.0892	0.0500	0	1	0.483	87	82	82
17	1	398	1	2	3	0.0892	0.0500	1	1	0.683	67	0	82
17	1	399	0	2	3	0.0892	0.0500	1	1	0.870	5	82	0
17	1	400	0	2	2	0.0892	0.0500	1	1	0.642	7	82	0
17	1	401	1	2	2	0.0892	0.0500	0	1	0.715	63	82	82
17	1	402	9	1	1	0.0892	0.0500	1	0	0.779	0	0	82
17	1	403	0	2	3	0.0892	0.0500	1	0	0.596	0	82	0
17	1	404	9	1	3	0.0892	0.0500	0	1	0.583	0	0	0
17	1	405	1	2	2	0.0892	0.0500	1	1	0.686	66	0	82
17	1	406	1	2	3	0.0892	0.0500	1	1	0.570	78	0	82
17	1	407	0	1	1	0.0892	0.0500	0	1	0.651	7	0	0
17	1	408	0	1	3	0.0892	0.0500	0	1	0.526	8	0	0
17	1	409	1	2	3	0.0892	0.0500	1	1	0.573	78	0	82
17	1	410	1	2	3	0.0892	0.0500	1	1	0.525	82	0	82
17	1	411	1	1	1	0.0892	0.0500	0	1	0.486	86	82	82
17	1	412	1	2	2	0.0892	0.0500	0	1	0.545	81	82	82
17	1	413	0	1	1	0.0892	0.0500	1	1	1.302	5	0	82
17	1	414	0	1	1	0.0892	0.0500	0	1	0.607	7	0	0
17	1	415	0	1	2	0.0892	0.0500	1	1	0.637	7	0	82
17	1	416	1	2	2	0.0892	0.0500	1	1	0.643	71	0	82
17	1	417	1	1	1	0.0892	0.0500	0	1	0.398	95	82	82
17	1	418	1	2	2	0.0892	0.0500	1	1	0.510	84	0	82
17	1	419	0	1	1	0.0892	0.0500	1	1	1.309	5	0	82
17	1	420	1	1	1	0.0892	0.0500	0	1	0.508	84	82	82
17	1	421	1	1	3	0.0892	0.0500	0	1	0.586	76	82	82
17	1	422	1	2	3	0.0892	0.0500	0	1	0.475	87	82	82
17	1	423	0	1	3	0.0892	0.0500	1	0	0.909	0	0	82
17	1	424	1	1	3	0.0892	0.0500	1	1	0.619	73	82	0
17	1	425	0	2	2	0.0892	0.0500	1	0	0.490	0	82	0
17	1	426	9	1	3	0.0892	0.0500	0	1	0.465	0	82	82
17	1	427	0	2	2	0.0892	0.0500	0	1	0.556	8	0	0
17	1	428	0	2	2	0.0892	0.0500	0	1	0.477	9	0	0
17	1	429	1	1	3	0.0892	0.0500	1	1	0.673	68	82	0
17	1	430	9	2	1	0.0892	0.0500	1	0	0.695	0	82	0
17	1	431	1	1	2	0.0892	0.0500	0	1	0.773	58	82	82
17	1	432	1	2	3	0.0892	0.0500	0	1	0.655	69	82	82
17	1	433	0	2	2	0.0892	0.0500	1	0	0.487	0	82	0
17	1	434	0	2	1	0.0892	0.0500	0	1	0.548	8	0	0
17	1	435	1	1	3	0.0892	0.0500	0	1	0.642	71	82	82
17	1	436	1	2	2	0.0892	0.0500	1	1	0.536	81	0	82
17	1	437	0	2	3	0.0892	0.0500	1	0	0.616	0	82	0
17	1	438	1	1	1	0.0892	0.0500	1	1	0.793	56	82	0
17	1	439	1	1	3	0.0892	0.0500	1	0	0.704	0	82	0
17	1	440	1	1	1	0.0892	0.0500	0	1	0.581	77	82	82
17	1	441	1	1	3	0.0892	0.0500	1	0	1.551	0	82	0
17	1	442	9	2	3	0.0892	0.0500	0	1	0.503	0	82	82
17	1	443	0	1	3	0.0892	0.0500	1	0	0.627	0	0	82
17	1	444	9	2	2	0.0892	0.0500	1	1	0.563	0	0	82
17	1	445	0	1	2	0.0892	0.0500	1	1	0.886	5	0	82
17	1	446	0	1	3	0.0892	0.0500	1	0	0.801	0	0	82
17	1	447	1	1	1	0.0892	0.0500	1	0	1.732	0	82	0
17	1	448	1	1	3	0.0892	0.0500	1	1	0.813	54	82	0
17	1	449	0	2	2	0.0892	0.0500	1	1	0.905	5	82	0
17	1	450	1	1	3	0.0892	0.0500	0	1	0.624	73	82	82
17	1	451	1	2	2	0.0892	0.0500	1	1	0.554	80	0	82
17	1	452	0	1	1	0.0892	0.0500	0	1	0.479	9	0	0
17	1	453	1	1	3	0.0892	0.0500	0	1	0.486	86	82	82
17	1	454	9	1	1	0.0892	0.0500	0	1	0.520	0	82	82
17	1	455	1	1	2	0.0892	0.0500	0	1	0.516	83	82	82
17	1	456	9	1	2	0.0892	0.0500	0	1	0.494	0	0	0
17	1	457	0	1	1	0.0892	0.0500	1	1	0.782	6	0	82
17	1	458	1	1	3	0.0892	0.0500	0	1	0.661	69	82	82
17	1	459	0	1	1	0.0892	0.0500	1	1	0.593	8	0	82
17	1	460	9	1	1	0.0892	0.0500	1	0	0.597	0	0	82
17	1	461	1	1	3	0.0892	0.0500	1	1	0.794	56	82	0
17	1	462	0	2	2	0.0892	0.0500	1	0	0.496	0	82	0
17	1	463	0	1	1	0.0892	0.0500	0	1	0.410	9	0	0
17	1	464	1	2	2	0.0892	0.0500	0	1	0.461	89	82	82
17	1	465	1	1	3	0.0892	0.0500	1	1	0.641	71	82	0
17	1	466	1	2	3	0.0892	0.0500	1	1	0.589	76	0	82
17	1	467	0	1	3	0.0892	0.0500	1	1	0.566	8	0	82
17	1	468	0	2	3	0.0892	0.0500	0	1	0.488	9	0	0
17	1	469	1	1	1	0.0892	0.0500	0	1	0.713	64	82	82
17	1	470	9	2	3	0.0892	0.0500	0	1	0.539	0	82	82
17	1	471	0	2	2	0.0892	0.0500	0	1	0.509	8	0	0
17	1	472	0	2	2	0.0892	0.0500	1	1	0.747	6	82	0
17	1	473	1	1	1	0.0892	0.0500	0	1	0.590	76	82	82
17	1	474	1	1	1	0.0892	0.0500	1	1	0.727	62	82	0
17	1	475	0	1	1	0.0892	0.0500	1	1	0.715	6	0	82
17	1	476	9	2	3	0.0892	0.0500	1	1	0.945	0	82	0
17	1	477	0	2	3	0.0892	0.0500	0	1	0.599	8	0	0
17	1	478	1	2	1	0.0892	0.0500	1	1	0.702	65	0	82
17	1	479	1	2	1	0.0892	0.0500	0	1	1.781	50	82	82
17	1	480	0	2	1	0.0892	0.0500	1	1	0.936	5	82	0
17	1	481	0	2	2	0.0892	0.0500	0	1	0.817	5	0	0
17	1	482	1	2	2	0.0892	0.0500	0	1	0.642	71	82	82
17	1	483	0	2	2	0.0892	0.0500	0	1	0.451	9	0	0
17	1	484	0	1	1	0.0892	0.0500	1	1	0.572	8	0	82
17	1	485	0	2	2	0.0892	0.0500	1	1	0.844	5	82	0
17	1	486	0	2	2	0.0892	0.0500	1	1	0.555	8	82	0
17	1	487	0	2	3	0.0892	0.0500	0	1	0.576	8	0	0
17	1	488	1	2	3	0.0892	0.0500	0	1	0.482	87	82	82
17	1	489	9	1	1	0.0892	0.0500	0	1	0.710	0	0	0
17	1	490	1	1	1	0.0892	0.0500	1	1	0.631	72	82	0
17	1	491	0	2	1	0.0892	0.0500	0	0	0.643	0	0	0
17	1	492	1	1	2	0.0892	0.0500	1	1	0.658	69	82	0
17	1	493	0	2	2	0.0892	0.0500	1	1	0.645	7	82	0
17	1	494	9	1	3	0.0892	0.0500	0	0	0.597	0	0	0
17	1	495	9	1	3	0.0892	0.0500	1	1	0.454	0	82	0
17	1	496	1	2	2	0.0892	0.0500	1	1	0.487	86	0	82
17	1	497	9	2	3	0.0892	0.0500	1	1	0.600	0	82	0
17	1	498	0	2	3	0.0892	0.0500	0	1	0.486	9	0	0
17	1	499	1	1	1	0.0892	0.0500	0	1	0.476	87	82	82
17	1	500	0	2	2	0.0892	0.0500	0	1	0.477	9	0	0
17	1	501	0	2	1	0.0892	0.0500	1	0	0.697	0	82	0
17	1	502	0	1	1	0.0892	0.0500	0	1	0.503	8	0	0
17	1	503	1	1	3	0.0892	0.0500	1	1	0.508	84	82	0
17	1	504	1	1	1	0.0892	0.0500	1	1	0.433	92	82	0
17	1	505	9	2	2	0.0892	0.0500	1	0	0.616	0	82	0
17	1	506	0	2	3	0.0892	0.0500	0	1	0.512	8	0	0
17	1	507	9	2	1	0.0892	0.0500	1	1	0.561	0	0	82
17	1	508	1	1	3	0.0892	0.0500	0	1	0.599	75	82	82
17	1	509	0	2	2	0.0892	0.0500	1	1	0.612	7	82	0
17	1	510	1	2	2	0.0892	0.0500	1	1	0.587	76	0	82
17	1	511	1	2	3	0.0892	0.0500	1	1	0.496	85	0	82
17	1	512	0	1	2	0.0892	0.0500	0	1	0.760	6	0	0
17	1	513	1	2	2	0.0892	0.0500	0	1	0.608	74	82	82
17	1	514	0	2	3	0.0892	0.0500	0	1	0.562	8	0	0
17	1	515	1	2	3	0.0892	0.0500	1	1	0.514	84	0	82
17	1	516	9	1	1	0.0892	0.0500	1	1	0.659	0	82	0
17	1	517	0	2	3	0.0892	0.0500	0	1	0.641	7	0	0
17	1	518	0	1	3	0.0892	0.0500	0	1	0.522	8	0	0
17	1	519	9	1	1	0.0892	0.0500	0	1	0.446	0	82	82
17	1	520	9	1	1	0.0892	0.0500	0	1	0.368	0	0	0
17	1	521	1	2	3	0.0892	0.0500	1	1	0.572	78	0	82
17	1	522	9	1	3	0.0892	0.0500	1	1	0.465	0	82	0
17	1	523	1	2	2	0.0892	0.0500	0	0	0.777	0	82	82
17	1	524	0	1	1	0.0892	0.0500	1	1	0.598	8	0	82
17	1	525	9	2	2	0.0892	0.0500	1	1	0.493	0	0	82
17	1	526	0	1	3	0.0892	0.0500	1	0	0.760	0	0	82
17	1	527	1	2	2	0.0892	0.0500	0	0	1.150	0	82	82
17	1	528	1	2	2	0.0892	0.0500	0	1	0.735	62	82	82
17	1	529	0	2	3	0.0892	0.0500	1	1	0.754	6	82	0
17	1	530	0	1	1	0.0892	0.0500	0	1	0.790	6	0	0
17	1	531	0	1	3	0.0892	0.0500	0	1	0.438	9	0	0
17	1	532	1	1	1	0.0892	0.0500	0	1	0.637	71	82	82
17	1	533	0	2	2	0.0892	0.0500	0	1	0.476	9	0	0
17	1	534	0	1	1	0.0892	0.0500	0	1	0.454	9	0	0
17	1	535	1	1	3	0.0892	0.0500	0	1	0.416	93	82	82
17	1	536	1	2	2	0.0892	0.0500	0	1	0.466	88	82	82
17	1	537	1	1	3	0.0892	0.0500	1	1	0.667	68	82	0
17	1	538	9	2	3	0.0892	0.0500	1	1	0.484	0	0	82
17	1	539	0	1	3	0.0892	0.0500	0	1	0.600	7	0	0
17	1	540	0	2	3	0.0892	0.0500	1	1	0.856	5	82	0
17	1	541	1	1	3	0.0892	0.0500	0	1	0.510	84	82	82
17	1	542	0	1	3	0.0892	0.0500	0	1	0.524	8	0	0
17	1	543	1	2	2	0.0892	0.0500	1	1	0.519	83	0	82
17	1	544	1	1	1	0.0892	0.0500	1	0	1.161	0	82	0
17	1	545	0	1	3	0.0892	0.0500	0	1	0.479	9	0	0
17	1	546	9	2	2	0.0892	0.0500	0	1	1.273	0	82	82
17	1	547	1	2	3	0.0892	0.0500	0	1	0.544	81	82	82
17	1	548	1	2	2	0.0892	0.0500	1	1	0.563	79	0	82
17	1	549	1	2	1	0.0892	0.0500	1	1	0.533	82	0	82
17	1	550	1	1	1	0.0892	0.0500	1	1	0.523	83	82	0
17	1	551	0	2	3	0.0892	0.0500	0	1	0.511	8	0	0
17	1	552	1	1	3	0.0892	0.0500	0	1	0.481	87	82	82
17	1	553	1	1	3	0.0892	0.0500	0	1	0.370	98	82	82
17	1	554	1	1	1	0.0892	0.0500	1	1	0.663	69	82	0
17	1	555	0	1	3	0.0892	0.0500	1	0	1.174	0	0	82
17	1	556	1	2	1	0.0892	0.0500	0	1	1.090	50	82	82
17	1	557	1	2	2	0.0892	0.0500	1	1	0.520	83	0	82
17	1	558	1	2	3	0.0892	0.0500	1	1	0.517	83	0	82
17	1	559	1	2	2	0.0892	0.0500	0	1	0.559	79	82	82
17	1	560	0	1	1	0.0892	0.0500	0	1	0.500	9	0	0
17	1	561	1	2	1	0.0892	0.0500	1	1	0.536	81	0	82
17	1	562	1	2	2	0.0892	0.0500	0	1	0.519	83	82	82
17	1	563	1	1	3	0.0892	0.0500	1	1	0.519	83	82	0
17	1	564	0	2	2	0.0892	0.0500	0	1	0.377	10	0	0
17	1	565	1	1	1	0.0892	0.0500	0	1	0.458	89	82	82
17	1	566	0	2	2	0.0892	0.0500	1	1	0.695	7	82	0
17	1	567	9	2	3	0.0892	0.0500	0	1	0.531	0	82	82
17	1	568	0	2	1	0.0892	0.0500	1	0	0.811	0	82	0
17	1	569	0	1	3	0.0892	0.0500	1	1	0.534	8	0	82
17	1	570	0	1	3	0.0892	0.0500	0	0	0.711	0	0	0
17	1	571	9	1	3	0.0892	0.0500	1	1	0.580	0	0	82
17	1	572	1	1	2	0.0892	0.0500	0	0	0.584	0	82	82
17	1	573	0	1	1	0.0892	0.0500	0	1	0.479	9	0	0
17	1	574	9	2	3	0.0892	0.0500	1	1	0.670	0	0	82
17	1	575	1	1	1	0.0892	0.0500	1	1	0.561	79	82	0
17	1	576	1	2	3	0.0892	0.0500	0	1	0.475	88	82	82
17	1	577	0	2	3	0.0892	0.0500	0	1	0.558	8	0	0
17	1	578	1	2	3	0.0892	0.0500	0	1	0.445	90	82	82
17	1	579	0	2	3	0.0892	0.0500	1	0	0.600	0	82	0
17	1	580	0	1	2	0.0892	0.0500	1	1	0.616	7	0	82
17	1	581	0	2	2	0.0892	0.0500	1	1	0.642	7	82	0
17	1	582	1	2	3	0.0892	0.0500	1	1	0.491	86	0	82
17	1	583	1	1	1	0.0892	0.0500	1	1	1.022	50	82	0
17	1	584	1	1	2	0.0892	0.0500	1	1	0.650	70	82	0
17	1	585	1	1	1	0.0892	0.0500	1	1	0.525	82	82	0
17	1	586	0	2	1	0.0892	0.0500	1	1	0.850	5	82	0
17	1	587	0	2	3	0.0892	0.0500	1	1	0.610	7	82	0
17	1	588	9	1	3	0.0892	0.0500	1	1	0.507	0	82	0
17	1	589	1	2	3	0.0892	0.0500	1	1	0.645	71	0	82
17	1	590	9	1	1	0.0892	0.0500	1	1	0.519	0	0	82
17	1	591	9	2	1	0.0892	0.0500	0	1	0.448	0	0	0
17	1	592	0	1	3	0.0892	0.0500	1	0	0.776	0	0	82
17	1	593	1	2	3	0.0892	0.0500	0	1	0.714	64	82	82
17	1	594	9	1	2	0.0892	0.0500	1	1	0.499	0	82	0
17	1	595	1	1	1	0.0892	0.0500	0	1	0.510	84	82	82
17	1	596	0	1	2	0.0892	0.0500	1	0	0.734	0	0	82
17	1	597	0	2	2	0.0892	0.0500	1	1	0.711	6	82	0
17	1	598	9	1	1	0.0892	0.0500	1	1	1.052	0	0	82
17	1	599	0	1	1	0.0892	0.0500	1	1	0.707	6	0	82
17	1	600	9	2	2	0.0892	0.0500	0	1	0.517	0	0	0
17	1	601	1	2	2	0.0892	0.0500	0	1	0.475	87	82	82
17	1	602	9	2	2	0.0892	0.0500	1	0	0.652	0	82	0
17	1	603	1	1	2	0.0892	0.0500	0	1	0.506	84	82	82
17	1	604	1	1	3	0.0892	0.0500	0	1	0.465	88	82	82
17	1	605	1	1	3	0.0892	0.0500	1	1	0.592	76	82	0
17	1	606	9	1	3	0.0892	0.0500	1	1	0.569	0	82	0
17	1	607	0	1	2	0.0892	0.0500	0	1	0.488	9	0	0
17	1	608	1	1	1	0.0892	0.0500	1	0	0.635	0	82	0
17	1	609	9	1	3	0.0892	0.0500	0	1	0.486	0	82	82
17	1	610	1	2	2	0.0892	0.0500	0	1	0.598	75	82	82
17	1	611	0	1	2	0.0892	0.0500	0	1	0.462	9	0	0
17	1	612	0	2	3	0.0892	0.0500	1	1	0.843	5	82	0
17	1	613	1	2	3	0.0892	0.0500	0	1	0.642	71	82	82
17	1	614	0	1	3	0.0892	0.0500	0	1	0.520	8	0	0
17	1	615	0	1	1	0.0892	0.0500	0	1	0.642	7	0	0
17	1	616	0	2	3	0.0892	0.0500	1	1	0.743	6	82	0
17	1	617	0	1	3	0.0892	0.0500	0	1	0.624	7	0	0
17	1	618	0	1	1	0.0892	0.0500	1	0	0.616	0	0	82
17	1	619	1	2	3	0.0892	0.0500	0	1	0.604	75	82	82
17	1	620	0	1	3	0.0892	0.0500	1	1	0.544	8	0	82
17	1	621	0	1	1	0.0892	0.0500	0	1	0.618	7	0	0
17	1	622	9	2	2	0.0892	0.0500	0	1	0.491	0	0	0
17	1	623	1	2	2	0.0892	0.0500	1	1	0.510	84	0	82
17	1	624	9	1	2	0.0892	0.0500	1	1	0.757	0	0	82
17	1	625	0	1	1	0.0892	0.0500	1	1	0.509	8	0	82
17	1	626	1	1	1	0.0892	0.0500	1	1	0.540	81	82	0
17	1	627	0	2	2	0.0892	0.0500	1	0	0.600	0	82	0
17	1	628	0	1	1	0.0892	0.0500	0	1	0.475	9	0	0
17	1	629	1	1	3	0.0892	0.0500	0	1	0.436	91	82	82
17	1	630	1	2	3	0.0892	0.0500	1	1	0.563	79	0	82
17	1	631	0	1	3	0.0892	0.0500	0	1	0.576	8	0	0
17	1	632	1	2	3	0.0892	0.0500	1	1	0.470	88	0	82
17	1	633	1	1	3	0.0892	0.0500	0	1	0.538	81	82	82
17	1	634	0	2	3	0.0892	0.0500	0	1	0.510	8	0	0
17	1	635	9	2	2	0.0892	0.0500	1	0	0.592	0	82	0
17	1	636	0	1	3	0.0892	0.0500	1	1	0.701	6	0	82
17	1	637	0	1	3	0.0892	0.0500	1	1	0.478	9	0	82
17	1	638	0	1	3	0.0892	0.0500	1	1	0.550	8	0	82
17	1	639	0	1	3	0.0892	0.0500	0	1	0.498	9	0	0
17	1	640	9	2	3	0.0892	0.0500	0	1	0.524	0	0	0
17	1	641	1	1	3	0.0892	0.0500	0	1	0.484	87	82	82
17	1	642	9	1	3	0.0892	0.0500	0	1	0.433	0	0	0
17	1	643	0	2	3	0.0892	0.0500	0	1	0.415	9	0	0
17	1	644	1	1	1	0.0892	0.0500	1	1	0.542	81	82	0
17	1	645	1	1	3	0.0892	0.0500	1	1	0.428	92	82	0
17	1	646	1	1	1	0.0892	0.0500	0	1	0.509	84	82	82
17	1	647	9	2	2	0.0892	0.0500	1	1	0.539	0	0	82
17	1	648	9	2	3	0.0892	0.0500	1	0	0.584	0	82	0
17	1	649	1	1	2	0.0892	0.0500	1	1	0.558	79	82	0
17	1	650	1	2	2	0.0892	0.0500	0	0	0.912	0	82	82
17	1	651	1	2	1	0.0892	0.0500	0	1	1.033	50	82	82
17	1	652	1	1	3	0.0892	0.0500	0	1	0.551	80	82	82
17	1	653	1	2	3	0.0892	0.0500	1	1	0.520	83	0	82
17	1	654	9	2	3	0.0892	0.0500	1	1	0.510	0	0	82
17	1	655	1	1	1	0.0892	0.0500	0	1	0.440	91	82	82
17	1	656	0	1	3	0.0892	0.0500	1	0	0.911	0	0	82
17	1	657	9	1	1	0.0892	0.0500	1	0	0.569	0	82	0
17	1	658	0	2	2	0.0892	0.0500	1	1	0.597	8	82	0
17	1	659	9	1	1	0.0892	0.0500	1	1	0.576	0	82	0
17	1	660	1	2	2	0.0892	0.0500	1	1	0.556	79	0	82
17	1	661	1	1	2	0.0892	0.0500	1	1	0.538	81	82	0
17	1	662	0	2	3	0.0892	0.0500	0	1	0.507	8	0	0
17	1	663	0	1	3	0.0892	0.0500	0	1	0.455	9	0	0
17	1	664	0	1	3	0.0892	0.0500	0	1	0.440	9	0	0
17	1	665	0	1	3	0.0892	0.0500	1	1	0.579	8	0	82
17	1	666	1	2	3	0.0892	0.0500	0	1	0.625	73	82	82
17	1	667	0	1	1	0.0892	0.0500	0	1	0.429	9	0	0
17	1	668	9	2	3	0.0892	0.0500	1	1	0.600	0	0	82
17	1	669	0	2	3	0.0892	0.0500	1	1	0.919	5	82	0
17	1	670	0	2	1	0.0892	0.0500	0	1	1.202	5	0	0
17	1	671	9	1	3	0.0892	0.0500	0	0	0.819	0	82	82
17	1	672	9	2	2	0.0892	0.0500	1	0	0.666	0	82	0
17	1	673	0	2	3	0.0892	0.0500	0	1	0.629	7	0	0
17	1	674	0	1	3	0.0892	0.0500	1	1	0.707	6	0	82
17	1	675	9	1	1	0.0892	0.0500	0	1	0.614	0	0	0
17	1	676	1	2	2	0.0892	0.0500	1	1	0.573	78	0	82
17	1	677	9	2	2	0.0892	0.0500	0	1	0.596	0	0	0
17	1	678	0	1	3	0.0892	0.0500	0	0	0.753	0	0	0
17	1	679	9	2	3	0.0892	0.0500	0	1	0.407	0	0	0
17	1	680	0	1	1	0.0892	0.0500	1	1	0.619	7	0	82
17	1	681	0	2	2	0.0892	0.0500	0	1	0.496	9	0	0
17	1	682	1	1	1	0.0892	0.0500	0	1	0.486	86	82	82
17	1	683	1	1	3	0.0892	0.0500	1	1	0.515	83	82	0
17	1	684	0	2	1	0.0892	0.0500	0	1	0.570	8	0	0
17	1	685	1	2	2	0.0892	0.0500	1	1	0.614	74	0	82
17	1	686	0	1	3	0.0892	0.0500	1	1	0.616	7	0	82
17	1	687	9	1	1	0.0892	0.0500	0	1	0.486	0	0	0
17	1	688	1	2	2	0.0892	0.0500	0	0	0.566	0	82	82
17	1	689	1	2	2	0.0892	0.0500	0	1	0.384	97	82	82
17	1	690	0	1	1	0.0892	0.0500	0	1	0.471	9	0	0
17	1	691	1	2	3	0.0892	0.0500	1	1	0.527	82	0	82
17	1	692	0	2	2	0.0892	0.0500	0	0	0.576	0	0	0
17	1	693	1	1	1	0.0892	0.0500	0	1	0.430	92	82	82
17	1	694	9	1	3	0.0892	0.0500	1	1	0.712	0	0	82
17	1	695	0	1	1	0.0892	0.0500	1	1	0.583	8	0	82
17	1	696	1	1	3	0.0892	0.0500	1	0	0.611	0	82	0
17	1	697	0	2	2	0.0892	0.0500	0	0	0.572	0	0	0
17	1	698	1	1	3	0.0892	0.0500	0	1	0.506	84	82	82
17	1	699	1	2	3	0.0892	0.0500	0	0	0.897	0	82	82
17	1	700	9	2	3	0.0892	0.0500	0	1	1.082	0	82	82
17	1	701	9	2	3	0.0892	0.0500	0	1	0.529	0	0	0
17	1	702	1	2	3	0.0892	0.0500	1	1	0.585	77	0	82
17	1	703	9	2	2	0.0892	0.0500	0	1	0.708	0	82	82
17	1	704	0	2	3	0.0892	0.0500	0	1	0.508	8	0	0
17	1	705	9	1	1	0.0892	0.0500	0	1	0.848	0	82	82
17	1	706	9	1	1	0.0892	0.0500	1	1	0.501	0	82	0
17	1	707	0	2	2	0.0892	0.0500	0	1	0.522	8	0	0
17	1	708	9	2	2	0.0892	0.0500	0	1	0.518	0	0	0
17	1	709	9	2	3	0.0892	0.0500	0	0	0.544	0	0	0
17	1	710	0	1	1	0.0892	0.0500	1	1	0.584	8	0	82
17	1	711	0	2	3	0.0892	0.0500	1	0	0.613	0	82	0
17	1	712	0	2	3	0.0892	0.0500	1	0	0.699	0	82	0
17	1	713	9	1	3	0.0892	0.0500	0	0	0.568	0	0	0
17	1	714	0	1	3	0.0892	0.0500	0	1	0.730	6	0	0
17	1	715	0	2	3	0.0892	0.0500	1	1	0.864	5	82	0
17	1	716	9	1	3	0.0892	0.0500	0	1	0.488	0	82	82
17	1	717	1	1	1	0.0892	0.0500	1	1	0.519	83	82	0
17	1	718	0	2	2	0.0892	0.0500	0	1	0.650	7	0	0
17	1	719	9	1	2	0.0892	0.0500	0	1	0.891	0	82	82
17	1	720	1	1	1	0.0892	0.0500	0	1	0.405	95	82	82
