sub	sess	t	rew	loc	cue	co1	co2	or	resp	rt	rew_tot	left_col	right_col
8	1	1	1	1	3	0.2675	0.0500	1	1	0.695	65	0	82
8	1	2	1	1	3	0.2675	0.0500	0	1	0.638	71	0	0
8	1	3	1	1	3	0.2675	0.0500	0	1	0.631	72	0	0
8	1	4	1	2	2	0.2675	0.0500	0	0	0.771	0	0	0
8	1	5	0	2	3	0.2675	0.0500	0	1	0.827	5	82	82
8	1	6	0	2	2	0.2675	0.0500	0	1	0.655	7	82	82
8	1	7	1	1	1	0.2675	0.0500	0	1	0.968	50	0	0
8	1	8	0	2	3	0.2675	0.0500	1	1	0.674	7	0	82
8	1	9	1	1	1	0.2675	0.0500	0	1	0.633	72	0	0
8	1	10	0	1	1	0.2675	0.0500	1	1	0.682	7	82	0
8	1	11	1	2	2	0.2675	0.0500	1	1	0.872	50	82	0
8	1	12	9	2	2	0.2675	0.0500	1	1	0.744	0	82	0
8	1	13	9	2	3	0.2675	0.0500	1	1	0.768	0	0	82
8	1	14	0	1	1	0.2675	0.0500	1	1	0.580	8	82	0
8	1	15	1	2	2	0.2675	0.0500	0	1	0.967	50	0	0
8	1	16	9	2	3	0.2675	0.0500	1	1	0.523	0	82	0
8	1	17	1	1	3	0.2675	0.0500	0	0	0.740	0	0	0
8	1	18	0	2	3	0.2675	0.0500	0	1	0.548	8	82	82
8	1	19	1	1	1	0.2675	0.0500	1	1	0.430	92	0	82
8	1	20	9	1	3	0.2675	0.0500	1	0	0.640	0	82	0
8	1	21	1	1	1	0.2675	0.0500	0	1	0.695	66	0	0
8	1	22	9	2	3	0.2675	0.0500	1	1	0.524	0	0	82
8	1	23	9	1	1	0.2675	0.0500	0	0	0.625	0	0	0
8	1	24	0	1	1	0.2675	0.0500	1	1	0.593	8	82	0
8	1	25	9	1	3	0.2675	0.0500	0	0	0.617	0	0	0
8	1	26	0	1	1	0.2675	0.0500	1	1	0.494	9	82	0
8	1	27	1	1	3	0.2675	0.0500	1	1	0.534	82	0	82
8	1	28	1	1	3	0.2675	0.0500	0	1	0.499	85	0	0
8	1	29	1	2	2	0.2675	0.0500	0	1	0.712	64	0	0
8	1	30	1	1	1	0.2675	0.0500	0	1	0.765	58	0	0
8	1	31	1	1	3	0.2675	0.0500	0	1	0.531	82	0	0
8	1	32	1	1	3	0.2675	0.0500	1	1	0.384	97	0	82
8	1	33	1	2	3	0.2675	0.0500	1	0	0.451	0	82	0
8	1	34	9	2	2	0.2675	0.0500	0	1	0.889	0	82	82
8	1	35	9	2	3	0.2675	0.0500	0	1	0.534	0	0	0
8	1	36	1	2	2	0.2675	0.0500	0	1	0.468	88	0	0
8	1	37	0	1	3	0.2675	0.0500	1	1	0.498	9	82	0
8	1	38	0	1	3	0.2675	0.0500	1	1	0.822	5	82	0
8	1	39	1	1	1	0.2675	0.0500	1	1	0.440	91	0	82
8	1	40	1	1	1	0.2675	0.0500	1	1	0.403	95	0	82
8	1	41	1	1	1	0.2675	0.0500	0	1	0.495	85	0	0
8	1	42	1	2	3	0.2675	0.0500	1	1	0.402	95	82	0
8	1	43	9	1	3	0.2675	0.0500	1	1	0.392	0	0	82
8	1	44	1	2	3	0.2675	0.0500	1	1	0.482	87	82	0
8	1	45	0	2	2	0.2675	0.0500	0	1	0.607	7	82	82
8	1	46	1	1	1	0.2675	0.0500	1	1	0.425	93	0	82
8	1	47	0	2	3	0.2675	0.0500	1	0	0.594	0	0	82
8	1	48	9	2	2	0.2675	0.0500	1	1	1.089	0	0	82
8	1	49	0	1	3	0.2675	0.0500	1	1	0.550	8	82	0
8	1	50	1	2	3	0.2675	0.0500	0	1	0.626	72	0	0
8	1	51	1	2	1	0.2675	0.0500	1	1	0.536	81	82	0
8	1	52	0	1	1	0.2675	0.0500	0	1	0.601	7	82	82
8	1	53	1	2	3	0.2675	0.0500	1	1	0.473	88	82	0
8	1	54	9	2	3	0.2675	0.0500	0	1	0.683	0	0	0
8	1	55	9	2	2	0.2675	0.0500	1	1	0.487	0	82	0
8	1	56	9	1	1	0.2675	0.0500	0	1	0.793	0	0	0
8	1	57	1	1	3	0.2675	0.0500	1	1	0.623	73	0	82
8	1	58	0	1	3	0.2675	0.0500	1	1	0.657	7	82	0
8	1	59	0	1	3	0.2675	0.0500	1	0	0.618	0	82	0
8	1	60	1	1	1	0.2675	0.0500	1	1	0.429	92	0	82
8	1	61	1	2	2	0.2675	0.0500	1	1	0.515	83	82	0
8	1	62	0	2	1	0.2675	0.0500	0	1	0.564	8	82	82
8	1	63	0	2	3	0.2675	0.0500	1	1	0.831	5	0	82
8	1	64	0	1	1	0.2675	0.0500	1	1	0.633	7	82	0
8	1	65	9	1	2	0.2675	0.0500	0	1	0.442	0	0	0
8	1	66	9	1	3	0.2675	0.0500	0	1	0.564	0	82	82
8	1	67	1	2	1	0.2675	0.0500	1	1	0.391	96	82	0
8	1	68	1	1	1	0.2675	0.0500	0	1	0.457	89	0	0
8	1	69	1	2	1	0.2675	0.0500	1	1	0.395	96	82	0
8	1	70	1	2	1	0.2675	0.0500	0	1	0.540	81	0	0
8	1	71	1	2	2	0.2675	0.0500	0	0	0.352	0	0	0
8	1	72	1	1	1	0.2675	0.0500	1	1	0.422	93	0	82
8	1	73	0	1	1	0.2675	0.0500	0	1	0.690	7	82	82
8	1	74	1	1	2	0.2675	0.0500	0	1	0.504	85	0	0
8	1	75	0	1	3	0.2675	0.0500	1	1	0.931	5	82	0
8	1	76	9	1	1	0.2675	0.0500	0	1	0.499	0	82	82
8	1	77	0	2	2	0.2675	0.0500	0	1	0.506	8	82	82
8	1	78	1	2	3	0.2675	0.0500	0	1	0.554	80	0	0
8	1	79	1	1	1	0.2675	0.0500	1	1	0.386	96	0	82
8	1	80	0	2	3	0.2675	0.0500	1	0	0.530	0	0	82
8	1	81	0	2	2	0.2675	0.0500	1	1	0.629	7	0	82
8	1	82	0	2	3	0.2675	0.0500	0	1	0.513	8	82	82
8	1	83	1	1	1	0.2675	0.0500	0	0	1.517	0	0	0
8	1	84	1	1	2	0.2675	0.0500	1	1	0.479	87	0	82
8	1	85	1	1	1	0.2675	0.0500	1	1	0.458	89	0	82
8	1	86	1	2	3	0.2675	0.0500	1	1	0.508	84	82	0
8	1	87	1	1	1	0.2675	0.0500	0	1	0.930	50	0	0
8	1	88	1	1	1	0.2675	0.0500	1	1	0.477	87	0	82
8	1	89	1	1	3	0.2675	0.0500	1	1	0.493	86	0	82
8	1	90	9	1	2	0.2675	0.0500	1	0	0.798	0	82	0
8	1	91	0	1	3	0.2675	0.0500	0	1	0.446	9	82	82
8	1	92	1	1	2	0.2675	0.0500	1	1	0.422	93	0	82
8	1	93	9	2	2	0.2675	0.0500	0	1	0.567	0	0	0
8	1	94	9	2	3	0.2675	0.0500	1	1	0.943	0	0	82
8	1	95	0	2	2	0.2675	0.0500	1	1	0.815	5	0	82
8	1	96	0	1	3	0.2675	0.0500	0	1	0.675	7	82	82
8	1	97	9	1	3	0.2675	0.0500	0	0	0.808	0	0	0
8	1	98	1	2	2	0.2675	0.0500	1	1	0.594	76	82	0
8	1	99	9	2	3	0.2675	0.0500	0	1	0.553	0	82	82
8	1	100	0	1	2	0.2675	0.0500	1	1	0.593	8	82	0
8	1	101	0	2	3	0.2675	0.0500	0	1	0.596	8	82	82
8	1	102	9	2	1	0.2675	0.0500	0	1	0.758	0	0	0
8	1	103	1	1	3	0.2675	0.0500	1	1	0.397	95	0	82
8	1	104	0	2	2	0.2675	0.0500	0	1	0.514	8	82	82
8	1	105	0	2	3	0.2675	0.0500	0	1	0.448	9	82	82
8	1	106	1	2	3	0.2675	0.0500	0	1	0.442	91	0	0
8	1	107	9	1	1	0.2675	0.0500	1	1	0.363	0	0	82
8	1	108	1	2	3	0.2675	0.0500	0	1	0.478	87	0	0
8	1	109	9	2	2	0.2675	0.0500	0	1	0.613	0	82	82
8	1	110	0	1	1	0.2675	0.0500	0	0	0.730	0	82	82
8	1	111	0	2	2	0.2675	0.0500	0	1	0.482	9	82	82
8	1	112	0	1	1	0.2675	0.0500	1	1	0.586	8	82	0
8	1	113	0	2	3	0.2675	0.0500	1	1	0.631	7	0	82
8	1	114	9	1	1	0.2675	0.0500	0	1	0.648	0	0	0
8	1	115	1	2	2	0.2675	0.0500	0	1	0.456	89	0	0
8	1	116	1	1	3	0.2675	0.0500	0	1	0.422	93	0	0
8	1	117	0	2	2	0.2675	0.0500	1	1	1.056	5	0	82
8	1	118	0	2	2	0.2675	0.0500	0	1	0.454	9	82	82
8	1	119	1	1	1	0.2675	0.0500	1	1	0.415	93	0	82
8	1	120	1	2	3	0.2675	0.0500	1	1	0.446	90	82	0
8	1	121	0	1	3	0.2675	0.0500	1	1	0.706	6	82	0
8	1	122	0	1	2	0.2675	0.0500	0	1	1.047	5	82	82
8	1	123	0	1	1	0.2675	0.0500	1	1	0.617	7	82	0
8	1	124	1	2	3	0.2675	0.0500	0	1	0.486	86	0	0
8	1	125	1	1	1	0.2675	0.0500	0	0	0.444	0	0	0
8	1	126	1	1	1	0.2675	0.0500	0	0	0.556	0	0	0
8	1	127	1	1	2	0.2675	0.0500	0	1	0.457	89	0	0
8	1	128	0	1	1	0.2675	0.0500	0	1	0.497	9	82	82
8	1	129	1	2	2	0.2675	0.0500	0	0	0.868	0	0	0
8	1	130	1	2	3	0.2675	0.0500	0	1	0.611	74	0	0
8	1	131	0	2	2	0.2675	0.0500	1	1	0.875	5	0	82
8	1	132	9	2	2	0.2675	0.0500	1	1	0.587	0	0	82
8	1	133	0	1	3	0.2675	0.0500	1	0	0.930	0	82	0
8	1	134	1	2	1	0.2675	0.0500	0	1	0.575	78	0	0
8	1	135	9	2	2	0.2675	0.0500	0	1	0.521	0	0	0
8	1	136	0	2	3	0.2675	0.0500	0	1	0.533	8	82	82
8	1	137	9	1	1	0.2675	0.0500	1	1	0.374	0	0	82
8	1	138	1	2	2	0.2675	0.0500	1	0	0.445	0	82	0
8	1	139	1	1	3	0.2675	0.0500	0	1	1.513	50	0	0
8	1	140	0	1	1	0.2675	0.0500	1	1	0.756	6	82	0
8	1	141	9	2	3	0.2675	0.0500	1	1	0.620	0	82	0
8	1	142	9	1	1	0.2675	0.0500	1	1	0.881	0	82	0
8	1	143	1	2	3	0.2675	0.0500	0	1	0.461	89	0	0
8	1	144	0	1	2	0.2675	0.0500	0	1	0.555	8	82	82
8	1	145	0	2	3	0.2675	0.0500	0	0	0.572	0	82	82
8	1	146	0	2	2	0.2675	0.0500	1	1	0.633	7	0	82
8	1	147	9	1	1	0.2675	0.0500	0	1	0.674	0	82	82
8	1	148	1	2	2	0.2675	0.0500	1	1	0.717	63	82	0
8	1	149	0	1	3	0.2675	0.0500	0	1	1.163	5	82	82
8	1	150	0	2	1	0.2675	0.0500	1	1	0.774	6	0	82
8	1	151	1	2	2	0.2675	0.0500	0	0	0.618	0	0	0
8	1	152	1	2	3	0.2675	0.0500	1	1	0.583	77	82	0
8	1	153	0	1	1	0.2675	0.0500	0	1	1.034	5	82	82
8	1	154	1	1	1	0.2675	0.0500	0	0	0.529	0	0	0
8	1	155	0	1	1	0.2675	0.0500	1	1	0.620	7	82	0
8	1	156	0	2	1	0.2675	0.0500	1	1	0.927	5	0	82
8	1	157	1	2	3	0.2675	0.0500	0	1	0.761	59	0	0
8	1	158	0	2	3	0.2675	0.0500	1	1	1.059	5	0	82
8	1	159	0	2	3	0.2675	0.0500	0	1	0.445	9	82	82
8	1	160	1	1	3	0.2675	0.0500	1	1	0.475	88	0	82
8	1	161	0	1	2	0.2675	0.0500	1	0	0.652	0	82	0
8	1	162	0	1	1	0.2675	0.0500	0	1	0.552	8	82	82
8	1	163	0	1	1	0.2675	0.0500	1	1	0.619	7	82	0
8	1	164	0	2	2	0.2675	0.0500	0	1	0.635	7	82	82
8	1	165	1	2	2	0.2675	0.0500	1	1	0.631	72	82	0
8	1	166	0	2	3	0.2675	0.0500	0	1	0.597	8	82	82
8	1	167	9	1	1	0.2675	0.0500	1	1	0.496	0	0	82
8	1	168	1	2	2	0.2675	0.0500	1	1	0.510	84	82	0
8	1	169	9	1	2	0.2675	0.0500	0	1	0.511	0	82	82
8	1	170	0	2	2	0.2675	0.0500	0	1	0.823	5	82	82
8	1	171	0	2	2	0.2675	0.0500	1	1	0.738	6	0	82
8	1	172	9	2	2	0.2675	0.0500	1	0	0.514	0	0	82
8	1	173	1	1	1	0.2675	0.0500	1	1	0.595	76	0	82
8	1	174	0	1	3	0.2675	0.0500	0	1	0.628	7	82	82
8	1	175	9	2	2	0.2675	0.0500	0	0	0.578	0	0	0
8	1	176	1	2	1	0.2675	0.0500	0	1	0.499	85	0	0
8	1	177	1	2	3	0.2675	0.0500	0	1	0.559	79	0	0
8	1	178	0	1	2	0.2675	0.0500	1	0	0.461	0	82	0
8	1	179	0	1	3	0.2675	0.0500	0	1	0.446	9	82	82
8	1	180	1	1	1	0.2675	0.0500	0	1	0.541	81	0	0
8	1	181	0	2	3	0.2675	0.0500	1	1	0.722	6	0	82
8	1	182	0	1	1	0.2675	0.0500	1	0	0.584	0	82	0
8	1	183	0	1	3	0.2675	0.0500	0	1	0.510	8	82	82
8	1	184	9	1	1	0.2675	0.0500	0	1	1.268	0	82	82
8	1	185	0	2	2	0.2675	0.0500	0	1	0.788	6	82	82
8	1	186	1	1	3	0.2675	0.0500	1	1	0.395	95	0	82
8	1	187	0	2	2	0.2675	0.0500	0	1	0.630	7	82	82
8	1	188	9	2	2	0.2675	0.0500	1	0	0.814	0	0	82
8	1	189	0	2	3	0.2675	0.0500	1	1	0.694	7	0	82
8	1	190	0	2	2	0.2675	0.0500	1	1	0.606	7	0	82
8	1	191	1	2	1	0.2675	0.0500	1	1	0.469	88	82	0
8	1	192	9	1	3	0.2675	0.0500	1	0	0.693	0	82	0
8	1	193	1	2	2	0.2675	0.0500	1	1	0.770	58	82	0
8	1	194	9	1	3	0.2675	0.0500	1	0	0.697	0	82	0
8	1	195	0	1	3	0.2675	0.0500	1	1	0.938	5	82	0
8	1	196	9	1	3	0.2675	0.0500	1	1	0.599	0	82	0
8	1	197	1	1	3	0.2675	0.0500	1	1	1.083	50	0	82
8	1	198	9	1	3	0.2675	0.0500	1	1	0.663	0	0	82
8	1	199	0	2	3	0.2675	0.0500	1	1	0.608	7	0	82
8	1	200	1	1	1	0.2675	0.0500	0	1	0.552	80	0	0
8	1	201	1	2	2	0.2675	0.0500	0	1	0.647	70	0	0
8	1	202	0	1	1	0.2675	0.0500	0	1	0.597	8	82	82
8	1	203	1	1	1	0.2675	0.0500	1	0	0.550	0	0	82
8	1	204	9	2	3	0.2675	0.0500	0	1	0.679	0	82	82
8	1	205	0	2	1	0.2675	0.0500	1	1	0.677	7	0	82
8	1	206	0	1	3	0.2675	0.0500	1	0	1.095	0	82	0
8	1	207	9	2	2	0.2675	0.0500	0	1	0.595	0	0	0
8	1	208	1	2	3	0.2675	0.0500	0	1	0.606	74	0	0
8	1	209	9	1	1	0.2675	0.0500	0	1	0.537	0	82	82
8	1	210	0	1	1	0.2675	0.0500	0	1	0.509	8	82	82
8	1	211	9	2	3	0.2675	0.0500	1	1	0.439	0	82	0
8	1	212	9	1	1	0.2675	0.0500	1	0	0.491	0	82	0
8	1	213	9	2	1	0.2675	0.0500	1	1	0.428	0	82	0
8	1	214	1	2	2	0.2675	0.0500	0	1	0.434	92	0	0
8	1	215	1	2	2	0.2675	0.0500	1	1	0.589	76	82	0
8	1	216	1	2	3	0.2675	0.0500	1	1	0.706	64	82	0
8	1	217	0	2	1	0.2675	0.0500	0	1	0.510	8	82	82
8	1	218	0	1	2	0.2675	0.0500	0	1	0.458	9	82	82
8	1	219	9	1	1	0.2675	0.0500	1	0	0.723	0	82	0
8	1	220	0	1	3	0.2675	0.0500	1	1	0.769	6	82	0
8	1	221	0	1	1	0.2675	0.0500	0	1	0.544	8	82	82
8	1	222	0	2	3	0.2675	0.0500	1	1	0.416	9	0	82
8	1	223	9	1	2	0.2675	0.0500	1	1	0.456	0	0	82
8	1	224	0	2	2	0.2675	0.0500	1	1	0.414	9	0	82
8	1	225	0	2	3	0.2675	0.0500	1	1	0.403	9	0	82
8	1	226	9	1	3	0.2675	0.0500	0	0	0.473	0	0	0
8	1	227	0	1	1	0.2675	0.0500	0	0	0.762	0	82	82
8	1	228	0	1	3	0.2675	0.0500	0	1	0.434	9	82	82
8	1	229	9	1	1	0.2675	0.0500	1	1	0.430	0	0	82
8	1	230	1	1	1	0.2675	0.0500	1	1	0.544	81	0	82
8	1	231	0	1	1	0.2675	0.0500	1	1	0.512	8	82	0
8	1	232	1	2	3	0.2675	0.0500	1	1	0.504	85	82	0
8	1	233	9	2	3	0.2675	0.0500	0	1	0.553	0	0	0
8	1	234	0	2	2	0.2675	0.0500	0	1	0.517	8	82	82
8	1	235	0	2	3	0.2675	0.0500	1	1	0.522	8	0	82
8	1	236	9	2	3	0.2675	0.0500	0	1	0.462	0	82	82
8	1	237	1	2	3	0.2675	0.0500	1	1	0.378	97	82	0
8	1	238	1	1	3	0.2675	0.0500	0	0	0.579	0	0	0
8	1	239	0	2	2	0.2675	0.0500	1	1	0.628	7	0	82
8	1	240	1	1	3	0.2675	0.0500	0	1	0.468	88	0	0
8	1	241	0	1	1	0.2675	0.0500	0	1	0.521	8	82	82
8	1	242	0	1	2	0.2675	0.0500	1	1	0.501	8	82	0
8	1	243	1	2	2	0.2675	0.0500	1	1	0.489	86	82	0
8	1	244	1	2	2	0.2675	0.0500	1	0	0.581	0	82	0
8	1	245	0	2	3	0.2675	0.0500	1	1	0.548	8	0	82
8	1	246	1	1	3	0.2675	0.0500	0	1	0.542	81	0	0
8	1	247	0	1	3	0.2675	0.0500	0	1	0.663	7	82	82
8	1	248	1	2	2	0.2675	0.0500	1	1	0.698	65	82	0
8	1	249	0	1	2	0.2675	0.0500	0	1	0.659	7	82	82
8	1	250	0	1	3	0.2675	0.0500	1	1	0.496	9	82	0
8	1	251	0	1	1	0.2675	0.0500	1	1	0.628	7	82	0
8	1	252	9	2	1	0.2675	0.0500	1	1	0.654	0	0	82
8	1	253	0	1	1	0.2675	0.0500	1	1	0.484	9	82	0
8	1	254	0	2	2	0.2675	0.0500	1	1	0.482	9	0	82
8	1	255	1	1	3	0.2675	0.0500	1	1	0.380	97	0	82
8	1	256	0	2	3	0.2675	0.0500	0	0	0.574	0	82	82
8	1	257	1	1	2	0.2675	0.0500	0	1	0.475	88	0	0
8	1	258	0	2	1	0.2675	0.0500	1	1	0.657	7	0	82
8	1	259	1	1	1	0.2675	0.0500	1	1	0.426	92	0	82
8	1	260	9	2	3	0.2675	0.0500	1	1	0.531	0	82	0
8	1	261	1	1	3	0.2675	0.0500	1	1	0.409	94	0	82
8	1	262	0	1	3	0.2675	0.0500	0	1	0.534	8	82	82
8	1	263	1	2	3	0.2675	0.0500	0	1	0.632	72	0	0
8	1	264	0	1	3	0.2675	0.0500	0	1	0.481	9	82	82
8	1	265	0	2	2	0.2675	0.0500	1	1	0.636	7	0	82
8	1	266	0	2	3	0.2675	0.0500	0	1	0.490	9	82	82
8	1	267	0	2	2	0.2675	0.0500	1	1	0.519	8	0	82
8	1	268	1	1	1	0.2675	0.0500	1	1	0.391	96	0	82
8	1	269	1	2	3	0.2675	0.0500	0	1	0.637	71	0	0
8	1	270	1	2	3	0.2675	0.0500	0	1	0.558	79	0	0
8	1	271	0	2	2	0.2675	0.0500	1	1	0.691	7	0	82
8	1	272	1	2	2	0.2675	0.0500	0	1	0.464	89	0	0
8	1	273	0	1	1	0.2675	0.0500	0	1	0.507	8	82	82
8	1	274	0	1	3	0.2675	0.0500	1	1	0.726	6	82	0
8	1	275	9	1	3	0.2675	0.0500	0	1	0.639	0	0	0
8	1	276	9	1	3	0.2675	0.0500	1	1	0.689	0	0	82
8	1	277	0	2	2	0.2675	0.0500	1	1	0.820	5	0	82
8	1	278	0	2	3	0.2675	0.0500	1	1	0.549	8	0	82
8	1	279	9	1	1	0.2675	0.0500	1	0	0.654	0	82	0
8	1	280	1	2	2	0.2675	0.0500	0	0	0.497	0	0	0
8	1	281	9	1	3	0.2675	0.0500	1	1	0.652	0	0	82
8	1	282	0	2	2	0.2675	0.0500	0	1	0.580	8	82	82
8	1	283	1	2	2	0.2675	0.0500	1	1	0.529	82	82	0
8	1	284	9	1	3	0.2675	0.0500	0	1	0.490	0	82	82
8	1	285	0	1	3	0.2675	0.0500	0	1	0.864	5	82	82
8	1	286	1	1	1	0.2675	0.0500	1	1	0.457	89	0	82
8	1	287	0	2	3	0.2675	0.0500	1	0	0.734	0	0	82
8	1	288	0	2	2	0.2675	0.0500	0	1	0.541	8	82	82
8	1	289	1	2	3	0.2675	0.0500	1	1	0.904	50	82	0
8	1	290	0	1	1	0.2675	0.0500	0	1	0.587	8	82	82
8	1	291	1	1	1	0.2675	0.0500	0	0	0.366	0	0	0
8	1	292	1	2	2	0.2675	0.0500	0	1	0.824	53	0	0
8	1	293	1	1	2	0.2675	0.0500	1	1	0.459	89	0	82
8	1	294	0	1	1	0.2675	0.0500	1	1	0.728	6	82	0
8	1	295	1	1	2	0.2675	0.0500	1	1	0.420	93	0	82
8	1	296	1	1	3	0.2675	0.0500	0	1	0.688	66	0	0
8	1	297	0	2	3	0.2675	0.0500	0	1	0.473	9	82	82
8	1	298	0	1	3	0.2675	0.0500	0	1	0.885	5	82	82
8	1	299	1	1	3	0.2675	0.0500	0	1	0.461	89	0	0
8	1	300	0	1	1	0.2675	0.0500	0	1	0.424	9	82	82
8	1	301	9	2	3	0.2675	0.0500	1	0	0.625	0	0	82
8	1	302	0	1	3	0.2675	0.0500	0	1	0.495	9	82	82
8	1	303	1	2	3	0.2675	0.0500	1	1	0.499	85	82	0
8	1	304	1	2	2	0.2675	0.0500	1	1	0.546	80	82	0
8	1	305	0	1	1	0.2675	0.0500	1	0	0.528	0	82	0
8	1	306	1	2	3	0.2675	0.0500	1	1	0.485	87	82	0
8	1	307	0	2	2	0.2675	0.0500	1	0	0.541	0	0	82
8	1	308	1	1	3	0.2675	0.0500	0	0	1.732	0	0	0
8	1	309	1	1	3	0.2675	0.0500	1	1	0.521	83	0	82
8	1	310	0	1	3	0.2675	0.0500	0	1	0.554	8	82	82
8	1	311	1	1	3	0.2675	0.0500	1	1	0.396	95	0	82
8	1	312	1	2	2	0.2675	0.0500	1	0	0.491	0	82	0
8	1	313	0	1	3	0.2675	0.0500	0	1	0.739	6	82	82
8	1	314	9	2	2	0.2675	0.0500	0	0	0.192	0	82	82
8	1	315	1	1	3	0.2675	0.0500	0	0	0.372	0	0	0
8	1	316	1	2	3	0.2675	0.0500	1	1	0.497	85	82	0
8	1	317	0	2	3	0.2675	0.0500	0	1	0.291	10	82	82
8	1	318	1	2	3	0.2675	0.0500	1	1	0.281	100	82	0
8	1	319	1	2	3	0.2675	0.0500	1	0	0.214	0	82	0
8	1	320	9	2	2	0.2675	0.0500	1	0	0.270	0	82	0
8	1	321	9	2	3	0.2675	0.0500	0	1	0.430	0	82	82
8	1	322	9	1	1	0.2675	0.0500	0	0	0.242	0	0	0
8	1	323	0	1	3	0.2675	0.0500	1	1	0.342	10	82	0
8	1	324	1	1	1	0.2675	0.0500	0	1	0.371	98	0	0
8	1	325	1	2	3	0.2675	0.0500	0	0	0.253	0	0	0
8	1	326	1	1	3	0.2675	0.0500	0	1	0.350	100	0	0
8	1	327	1	1	3	0.2675	0.0500	0	1	0.324	100	0	0
8	1	328	1	2	3	0.2675	0.0500	0	0	0.332	0	0	0
8	1	329	0	2	2	0.2675	0.0500	0	0	0.355	0	82	82
8	1	330	1	1	1	0.2675	0.0500	0	1	0.724	63	0	0
8	1	331	9	1	3	0.2675	0.0500	0	0	0.231	0	82	82
8	1	332	0	2	3	0.2675	0.0500	0	0	0.319	0	82	82
8	1	333	1	2	2	0.2675	0.0500	0	1	0.892	50	0	0
8	1	334	1	2	2	0.2675	0.0500	0	1	0.608	74	0	0
8	1	335	1	2	1	0.2675	0.0500	0	1	0.544	81	0	0
8	1	336	0	2	2	0.2675	0.0500	1	0	0.414	0	0	82
8	1	337	1	2	2	0.2675	0.0500	1	1	0.631	72	82	0
8	1	338	0	1	1	0.2675	0.0500	0	1	0.442	9	82	82
8	1	339	0	2	3	0.2675	0.0500	0	0	0.414	0	82	82
8	1	340	0	2	3	0.2675	0.0500	0	1	0.494	9	82	82
8	1	341	0	2	2	0.2675	0.0500	0	1	0.562	8	82	82
8	1	342	0	2	2	0.2675	0.0500	0	1	0.464	9	82	82
8	1	343	9	2	2	0.2675	0.0500	0	1	0.379	0	82	82
8	1	344	0	2	1	0.2675	0.0500	0	1	0.379	10	82	82
8	1	345	1	1	3	0.2675	0.0500	1	1	0.347	100	0	82
8	1	346	9	2	2	0.2675	0.0500	1	0	0.222	0	82	0
8	1	347	1	2	2	0.2675	0.0500	0	1	0.299	100	0	0
8	1	348	1	2	3	0.2675	0.0500	0	1	0.559	79	0	0
8	1	349	1	1	2	0.2675	0.0500	0	0	0.256	0	0	0
8	1	350	0	1	3	0.2675	0.0500	1	0	0.220	0	82	0
8	1	351	0	2	1	0.2675	0.0500	0	1	0.494	9	82	82
8	1	352	0	2	3	0.2675	0.0500	1	0	0.745	0	0	82
8	1	353	0	1	1	0.2675	0.0500	0	1	0.520	8	82	82
8	1	354	1	1	3	0.2675	0.0500	1	0	0.481	0	0	82
8	1	355	9	2	3	0.2675	0.0500	0	1	0.647	0	0	0
8	1	356	9	1	3	0.2675	0.0500	0	1	0.511	0	82	82
8	1	357	0	1	3	0.2675	0.0500	0	1	0.356	10	82	82
8	1	358	9	2	1	0.2675	0.0500	0	1	0.539	0	82	82
8	1	359	1	1	3	0.2675	0.0500	1	1	0.333	100	0	82
8	1	360	0	1	3	0.2675	0.0500	1	0	0.556	0	82	0
8	1	361	0	2	2	0.2675	0.0500	1	1	0.846	5	0	82
8	1	362	0	1	1	0.2675	0.0500	0	1	0.623	7	82	82
8	1	363	0	1	1	0.2675	0.0500	1	0	0.860	0	82	0
8	1	364	0	1	1	0.2675	0.0500	1	1	0.621	7	82	0
8	1	365	0	1	3	0.2675	0.0500	0	1	0.436	9	82	82
8	1	366	1	1	3	0.2675	0.0500	0	1	0.721	63	0	0
8	1	367	9	2	3	0.2675	0.0500	0	1	0.448	0	82	82
8	1	368	1	1	3	0.2675	0.0500	0	0	0.488	0	0	0
8	1	369	1	2	1	0.2675	0.0500	0	1	0.561	79	0	0
8	1	370	0	2	3	0.2675	0.0500	1	1	0.501	8	0	82
8	1	371	9	1	3	0.2675	0.0500	0	1	0.830	0	0	0
8	1	372	0	1	3	0.2675	0.0500	1	1	0.717	6	82	0
8	1	373	9	1	2	0.2675	0.0500	1	1	0.513	0	0	82
8	1	374	9	1	1	0.2675	0.0500	1	1	0.503	0	82	0
8	1	375	0	1	3	0.2675	0.0500	1	0	0.431	0	82	0
8	1	376	0	1	2	0.2675	0.0500	1	1	0.783	6	82	0
8	1	377	1	1	1	0.2675	0.0500	1	1	0.426	92	0	82
8	1	378	0	2	2	0.2675	0.0500	0	1	1.065	5	82	82
8	1	379	0	1	3	0.2675	0.0500	0	1	0.566	8	82	82
8	1	380	0	1	3	0.2675	0.0500	0	1	0.489	9	82	82
8	1	381	0	2	1	0.2675	0.0500	1	0	0.667	0	0	82
8	1	382	0	2	3	0.2675	0.0500	0	0	0.441	0	82	82
8	1	383	0	2	3	0.2675	0.0500	0	1	0.476	9	82	82
8	1	384	0	2	2	0.2675	0.0500	0	1	0.479	9	82	82
8	1	385	0	1	3	0.2675	0.0500	0	1	0.538	8	82	82
8	1	386	9	2	2	0.2675	0.0500	0	1	0.427	0	0	0
8	1	387	0	1	3	0.2675	0.0500	1	1	0.577	8	82	0
8	1	388	1	2	2	0.2675	0.0500	1	1	0.514	84	82	0
8	1	389	1	2	3	0.2675	0.0500	0	1	0.448	90	0	0
8	1	390	1	2	2	0.2675	0.0500	0	1	0.755	60	0	0
8	1	391	1	2	1	0.2675	0.0500	1	1	0.492	86	82	0
8	1	392	1	1	1	0.2675	0.0500	1	1	0.426	92	0	82
8	1	393	0	2	3	0.2675	0.0500	1	1	0.613	7	0	82
8	1	394	9	2	3	0.2675	0.0500	1	0	0.935	0	0	82
8	1	395	1	1	1	0.2675	0.0500	1	1	0.452	90	0	82
8	1	396	0	2	1	0.2675	0.0500	1	1	0.643	7	0	82
8	1	397	1	1	3	0.2675	0.0500	0	1	0.534	82	0	0
8	1	398	1	1	3	0.2675	0.0500	0	1	0.417	93	0	0
8	1	399	1	1	1	0.2675	0.0500	1	1	0.498	85	0	82
8	1	400	1	2	3	0.2675	0.0500	1	1	0.444	91	82	0
8	1	401	0	2	2	0.2675	0.0500	0	1	0.708	6	82	82
8	1	402	9	2	3	0.2675	0.0500	1	1	0.458	0	82	0
8	1	403	1	1	3	0.2675	0.0500	0	1	0.505	85	0	0
8	1	404	0	1	1	0.2675	0.0500	1	0	1.022	0	82	0
8	1	405	9	1	3	0.2675	0.0500	1	1	0.643	0	82	0
8	1	406	1	2	3	0.2675	0.0500	0	1	0.446	90	0	0
8	1	407	0	2	2	0.2675	0.0500	1	1	0.487	9	0	82
8	1	408	0	2	2	0.2675	0.0500	0	1	0.249	10	82	82
8	1	409	1	2	3	0.2675	0.0500	0	0	0.285	0	0	0
8	1	410	1	2	2	0.2675	0.0500	1	0	0.304	0	82	0
8	1	411	0	2	2	0.2675	0.0500	0	1	0.040	10	82	82
8	1	412	0	2	3	0.2675	0.0500	1	1	0.179	10	0	82
8	1	413	9	2	3	0.2675	0.0500	1	1	0.370	0	82	0
8	1	414	0	2	2	0.2675	0.0500	0	1	0.378	10	82	82
8	1	415	0	2	3	0.2675	0.0500	0	0	0.311	0	82	82
8	1	416	9	1	3	0.2675	0.0500	0	1	0.383	0	0	0
8	1	417	0	1	1	0.2675	0.0500	1	1	0.570	8	82	0
8	1	418	0	1	1	0.2675	0.0500	0	0	0.348	0	82	82
8	1	419	9	1	1	0.2675	0.0500	0	1	0.491	0	0	0
8	1	420	1	1	3	0.2675	0.0500	0	0	0.745	0	0	0
8	1	421	1	1	1	0.2675	0.0500	1	1	0.528	82	0	82
8	1	422	1	1	1	0.2675	0.0500	0	0	0.513	0	0	0
8	1	423	1	2	3	0.2675	0.0500	1	1	0.480	87	82	0
8	1	424	9	1	1	0.2675	0.0500	0	1	0.448	0	0	0
8	1	425	9	1	1	0.2675	0.0500	0	1	0.462	0	82	82
8	1	426	1	2	1	0.2675	0.0500	0	1	0.907	50	0	0
8	1	427	0	1	3	0.2675	0.0500	1	1	0.394	10	82	0
8	1	428	9	2	3	0.2675	0.0500	0	0	0.450	0	0	0
8	1	429	9	1	3	0.2675	0.0500	0	1	0.584	0	82	82
8	1	430	0	2	2	0.2675	0.0500	1	1	0.602	7	0	82
8	1	431	9	1	1	0.2675	0.0500	1	1	0.541	0	0	82
8	1	432	1	2	2	0.2675	0.0500	0	1	0.459	89	0	0
8	1	433	1	1	1	0.2675	0.0500	1	1	0.462	89	0	82
8	1	434	1	1	1	0.2675	0.0500	1	0	0.407	0	0	82
8	1	435	9	1	1	0.2675	0.0500	0	0	0.482	0	0	0
8	1	436	1	1	3	0.2675	0.0500	1	1	0.607	74	0	82
8	1	437	9	2	3	0.2675	0.0500	0	1	0.712	0	82	82
8	1	438	9	1	2	0.2675	0.0500	1	1	0.560	0	82	0
8	1	439	0	1	3	0.2675	0.0500	1	1	0.494	9	82	0
8	1	440	9	2	3	0.2675	0.0500	1	0	0.560	0	0	82
8	1	441	0	2	2	0.2675	0.0500	1	1	0.743	6	0	82
8	1	442	1	2	2	0.2675	0.0500	0	1	0.871	50	0	0
8	1	443	0	2	1	0.2675	0.0500	1	1	0.514	8	0	82
8	1	444	0	2	2	0.2675	0.0500	0	1	0.460	9	82	82
8	1	445	9	2	1	0.2675	0.0500	0	1	0.566	0	82	82
8	1	446	0	2	3	0.2675	0.0500	1	1	0.633	7	0	82
8	1	447	9	2	3	0.2675	0.0500	0	1	0.562	0	82	82
8	1	448	0	2	2	0.2675	0.0500	1	1	0.599	8	0	82
8	1	449	0	1	3	0.2675	0.0500	0	1	0.569	8	82	82
8	1	450	0	2	2	0.2675	0.0500	1	1	0.894	5	0	82
8	1	451	0	1	1	0.2675	0.0500	0	1	0.507	8	82	82
8	1	452	9	2	3	0.2675	0.0500	0	1	0.479	0	0	0
8	1	453	0	2	3	0.2675	0.0500	1	0	0.517	0	0	82
8	1	454	0	1	3	0.2675	0.0500	1	1	0.523	8	82	0
8	1	455	0	1	3	0.2675	0.0500	0	1	0.643	7	82	82
8	1	456	1	2	2	0.2675	0.0500	1	1	0.512	84	82	0
8	1	457	1	2	3	0.2675	0.0500	1	1	0.365	98	82	0
8	1	458	1	1	1	0.2675	0.0500	0	0	0.678	0	0	0
8	1	459	0	2	3	0.2675	0.0500	0	1	0.966	5	82	82
8	1	460	1	1	3	0.2675	0.0500	1	1	0.781	57	0	82
8	1	461	9	2	2	0.2675	0.0500	0	1	0.518	0	0	0
8	1	462	1	1	1	0.2675	0.0500	1	0	10.683	0	0	82
8	1	463	0	1	2	0.2675	0.0500	0	1	0.555	8	82	82
8	1	464	1	2	2	0.2675	0.0500	1	0	4.581	0	82	0
8	1	465	0	2	3	0.2675	0.0500	1	0	0.486	0	0	82
8	1	466	9	2	2	0.2675	0.0500	1	1	7.429	0	0	82
8	1	467	9	2	2	0.2675	0.0500	0	1	0.750	0	0	0
8	1	468	0	1	1	0.2675	0.0500	0	1	0.503	8	82	82
8	1	469	9	1	3	0.2675	0.0500	0	1	0.581	0	82	82
8	1	470	9	1	3	0.2675	0.0500	0	1	0.499	0	82	82
8	1	471	0	1	3	0.2675	0.0500	0	1	0.379	10	82	82
8	1	472	1	2	3	0.2675	0.0500	1	1	0.417	93	82	0
8	1	473	0	2	3	0.2675	0.0500	1	1	0.746	6	0	82
8	1	474	0	1	3	0.2675	0.0500	1	1	0.789	6	82	0
8	1	475	1	2	3	0.2675	0.0500	1	1	0.451	90	82	0
8	1	476	1	2	3	0.2675	0.0500	1	1	0.421	93	82	0
8	1	477	0	2	1	0.2675	0.0500	0	0	0.511	0	82	82
8	1	478	0	2	3	0.2675	0.0500	1	1	0.881	5	0	82
8	1	479	0	1	1	0.2675	0.0500	1	0	0.451	0	82	0
8	1	480	1	2	2	0.2675	0.0500	1	1	0.549	80	82	0
8	1	481	0	1	1	0.2675	0.0500	1	1	0.545	8	82	0
8	1	482	1	1	3	0.2675	0.0500	0	1	0.538	81	0	0
8	1	483	1	2	2	0.2675	0.0500	0	1	0.582	77	0	0
8	1	484	1	1	1	0.2675	0.0500	1	1	0.387	96	0	82
8	1	485	0	1	1	0.2675	0.0500	1	1	0.595	8	82	0
8	1	486	1	2	3	0.2675	0.0500	0	1	0.573	78	0	0
8	1	487	1	1	3	0.2675	0.0500	1	1	0.539	81	0	82
8	1	488	9	1	1	0.2675	0.0500	0	0	0.641	0	82	82
8	1	489	0	2	3	0.2675	0.0500	0	1	0.725	6	82	82
8	1	490	1	2	2	0.2675	0.0500	1	1	0.452	90	82	0
8	1	491	1	1	3	0.2675	0.0500	1	1	0.562	79	0	82
8	1	492	9	2	3	0.2675	0.0500	0	1	0.721	0	82	82
8	1	493	0	2	2	0.2675	0.0500	1	1	0.488	9	0	82
8	1	494	0	1	1	0.2675	0.0500	1	1	0.486	9	82	0
8	1	495	0	2	3	0.2675	0.0500	1	1	0.565	8	0	82
8	1	496	0	1	3	0.2675	0.0500	0	1	0.616	7	82	82
8	1	497	1	1	2	0.2675	0.0500	1	1	0.476	87	0	82
8	1	498	0	1	3	0.2675	0.0500	0	1	0.477	9	82	82
8	1	499	9	1	3	0.2675	0.0500	1	1	0.657	0	82	0
8	1	500	0	1	1	0.2675	0.0500	1	0	0.657	0	82	0
8	1	501	1	1	1	0.2675	0.0500	0	1	0.580	77	0	0
8	1	502	9	2	3	0.2675	0.0500	0	1	0.825	0	0	0
8	1	503	1	1	3	0.2675	0.0500	1	1	0.428	92	0	82
8	1	504	1	1	3	0.2675	0.0500	1	1	0.452	90	0	82
8	1	505	1	2	2	0.2675	0.0500	0	1	0.714	64	0	0
8	1	506	1	1	1	0.2675	0.0500	0	1	0.515	84	0	0
8	1	507	9	2	2	0.2675	0.0500	1	1	0.756	0	0	82
8	1	508	0	2	2	0.2675	0.0500	1	1	0.858	5	0	82
8	1	509	1	2	2	0.2675	0.0500	0	1	0.628	72	0	0
8	1	510	0	2	3	0.2675	0.0500	1	1	0.726	6	0	82
8	1	511	1	1	3	0.2675	0.0500	1	1	0.476	87	0	82
8	1	512	9	1	3	0.2675	0.0500	1	1	0.487	0	0	82
8	1	513	1	1	2	0.2675	0.0500	0	0	0.442	0	0	0
8	1	514	0	1	3	0.2675	0.0500	1	1	0.402	9	82	0
8	1	515	0	1	3	0.2675	0.0500	1	1	0.897	5	82	0
8	1	516	0	1	1	0.2675	0.0500	0	1	0.637	7	82	82
8	1	517	0	2	2	0.2675	0.0500	0	1	0.617	7	82	82
8	1	518	9	1	1	0.2675	0.0500	0	1	0.638	0	82	82
8	1	519	9	1	1	0.2675	0.0500	0	1	0.507	0	0	0
8	1	520	1	1	3	0.2675	0.0500	0	1	0.547	80	0	0
8	1	521	1	1	3	0.2675	0.0500	0	1	0.519	83	0	0
8	1	522	1	2	3	0.2675	0.0500	1	1	0.454	90	82	0
8	1	523	0	1	1	0.2675	0.0500	0	1	-0.019	10	82	82
8	1	524	1	2	3	0.2675	0.0500	0	0	0.401	0	0	0
8	1	525	9	2	1	0.2675	0.0500	0	1	0.755	0	0	0
8	1	526	1	1	3	0.2675	0.0500	1	1	0.427	92	0	82
8	1	527	1	1	3	0.2675	0.0500	0	1	0.670	68	0	0
8	1	528	0	1	1	0.2675	0.0500	1	0	0.614	0	82	0
8	1	529	0	1	1	0.2675	0.0500	0	1	0.666	7	82	82
8	1	530	0	2	3	0.2675	0.0500	0	1	0.510	8	82	82
8	1	531	1	1	3	0.2675	0.0500	1	1	0.347	100	0	82
8	1	532	1	2	2	0.2675	0.0500	0	1	0.519	83	0	0
8	1	533	0	2	2	0.2675	0.0500	1	1	0.645	7	0	82
8	1	534	1	2	2	0.2675	0.0500	0	1	0.436	91	0	0
8	1	535	1	2	3	0.2675	0.0500	1	1	0.524	83	82	0
8	1	536	9	1	3	0.2675	0.0500	1	1	0.579	0	0	82
8	1	537	1	2	2	0.2675	0.0500	1	1	0.794	56	82	0
8	1	538	1	2	2	0.2675	0.0500	1	1	0.415	93	82	0
8	1	539	9	2	2	0.2675	0.0500	0	0	0.541	0	82	82
8	1	540	1	2	1	0.2675	0.0500	1	0	0.456	0	82	0
8	1	541	0	1	2	0.2675	0.0500	0	1	0.495	9	82	82
8	1	542	9	2	2	0.2675	0.0500	1	0	0.966	0	0	82
8	1	543	0	2	3	0.2675	0.0500	0	1	0.504	8	82	82
8	1	544	1	2	3	0.2675	0.0500	1	1	0.657	69	82	0
8	1	545	9	2	2	0.2675	0.0500	0	1	0.576	0	0	0
8	1	546	1	1	3	0.2675	0.0500	0	1	1.142	50	0	0
8	1	547	1	1	3	0.2675	0.0500	0	1	0.520	83	0	0
8	1	548	1	1	1	0.2675	0.0500	1	1	0.786	56	0	82
8	1	549	1	1	2	0.2675	0.0500	1	1	0.458	89	0	82
8	1	550	1	1	1	0.2675	0.0500	1	1	0.487	86	0	82
8	1	551	1	1	1	0.2675	0.0500	0	1	0.628	72	0	0
8	1	552	1	2	1	0.2675	0.0500	0	0	0.550	0	0	0
8	1	553	0	1	1	0.2675	0.0500	1	0	0.647	0	82	0
8	1	554	0	2	3	0.2675	0.0500	0	0	0.692	0	82	82
8	1	555	1	2	3	0.2675	0.0500	1	1	0.691	66	82	0
8	1	556	1	1	1	0.2675	0.0500	0	1	0.763	59	0	0
8	1	557	9	1	1	0.2675	0.0500	1	1	0.516	0	0	82
8	1	558	9	2	2	0.2675	0.0500	1	1	0.706	0	0	82
8	1	559	0	2	3	0.2675	0.0500	0	1	0.612	7	82	82
8	1	560	1	1	1	0.2675	0.0500	1	1	0.640	71	0	82
8	1	561	1	1	2	0.2675	0.0500	1	1	0.464	89	0	82
8	1	562	0	2	3	0.2675	0.0500	0	1	0.521	8	82	82
8	1	563	0	1	1	0.2675	0.0500	0	1	0.812	5	82	82
8	1	564	0	2	1	0.2675	0.0500	0	1	0.492	9	82	82
8	1	565	0	1	2	0.2675	0.0500	1	1	0.842	5	82	0
8	1	566	1	2	2	0.2675	0.0500	0	1	0.523	83	0	0
8	1	567	0	1	2	0.2675	0.0500	0	0	0.413	0	82	82
8	1	568	9	1	3	0.2675	0.0500	0	1	-0.031	0	82	82
8	1	569	1	2	3	0.2675	0.0500	0	1	0.452	90	0	0
8	1	570	1	1	1	0.2675	0.0500	0	1	0.535	82	0	0
8	1	571	1	1	2	0.2675	0.0500	1	1	0.448	90	0	82
8	1	572	1	2	2	0.2675	0.0500	1	1	0.594	76	82	0
8	1	573	1	1	3	0.2675	0.0500	1	1	0.570	78	0	82
8	1	574	1	1	1	0.2675	0.0500	0	1	0.615	73	0	0
8	1	575	0	2	2	0.2675	0.0500	0	0	0.082	0	82	82
8	1	576	1	1	3	0.2675	0.0500	1	0	0.282	0	0	82
8	1	577	0	2	3	0.2675	0.0500	0	1	0.003	10	82	82
8	1	578	0	1	1	0.2675	0.0500	0	0	-0.077	0	82	82
8	1	579	0	1	1	0.2675	0.0500	0	0	0.014	0	82	82
8	1	580	0	1	1	0.2675	0.0500	1	1	0.872	5	82	0
8	1	581	9	2	3	0.2675	0.0500	1	0	0.816	0	82	0
8	1	582	0	1	3	0.2675	0.0500	1	1	1.119	5	82	0
8	1	583	1	1	2	0.2675	0.0500	0	1	0.469	88	0	0
8	1	584	1	2	1	0.2675	0.0500	1	1	-0.014	100	82	0
8	1	585	9	2	1	0.2675	0.0500	1	0	0.077	0	82	0
8	1	586	9	1	2	0.2675	0.0500	0	0	-0.098	0	82	82
8	1	587	0	1	3	0.2675	0.0500	0	0	-0.092	0	82	82
8	1	588	1	1	1	0.2675	0.0500	1	0	-0.023	0	0	82
8	1	589	9	1	3	0.2675	0.0500	1	1	0.597	0	82	0
8	1	590	1	2	3	0.2675	0.0500	0	1	0.642	71	0	0
8	1	591	1	2	3	0.2675	0.0500	1	1	0.522	83	82	0
8	1	592	0	2	2	0.2675	0.0500	0	0	0.243	0	82	82
8	1	593	1	1	1	0.2675	0.0500	1	1	0.341	100	0	82
8	1	594	0	2	2	0.2675	0.0500	0	1	0.641	7	82	82
8	1	595	0	1	1	0.2675	0.0500	0	1	0.674	7	82	82
8	1	596	1	1	1	0.2675	0.0500	0	1	0.526	82	0	0
8	1	597	1	2	3	0.2675	0.0500	0	0	0.629	0	0	0
8	1	598	9	2	2	0.2675	0.0500	1	0	0.650	0	82	0
8	1	599	1	1	3	0.2675	0.0500	0	1	0.732	62	0	0
8	1	600	0	1	2	0.2675	0.0500	1	1	0.695	7	82	0
8	1	601	9	2	2	0.2675	0.0500	1	1	0.925	0	82	0
8	1	602	0	2	3	0.2675	0.0500	1	0	0.660	0	0	82
8	1	603	0	2	2	0.2675	0.0500	1	1	0.616	7	0	82
8	1	604	9	2	2	0.2675	0.0500	0	1	0.533	0	82	82
8	1	605	1	2	3	0.2675	0.0500	0	1	0.606	74	0	0
8	1	606	1	1	3	0.2675	0.0500	1	1	0.509	84	0	82
8	1	607	9	1	3	0.2675	0.0500	0	1	0.611	0	0	0
8	1	608	0	1	1	0.2675	0.0500	1	1	0.250	10	82	0
8	1	609	1	1	3	0.2675	0.0500	0	1	0.393	96	0	0
8	1	610	1	1	3	0.2675	0.0500	1	1	0.508	84	0	82
8	1	611	0	2	3	0.2675	0.0500	1	1	0.887	5	0	82
8	1	612	1	2	3	0.2675	0.0500	1	1	0.849	50	82	0
8	1	613	0	2	3	0.2675	0.0500	1	0	0.147	0	0	82
8	1	614	9	1	1	0.2675	0.0500	1	1	0.466	0	0	82
8	1	615	1	1	1	0.2675	0.0500	0	0	0.694	0	0	0
8	1	616	0	1	3	0.2675	0.0500	1	1	0.516	8	82	0
8	1	617	1	1	1	0.2675	0.0500	0	1	0.620	73	0	0
8	1	618	0	2	2	0.2675	0.0500	1	0	0.582	0	0	82
8	1	619	9	2	2	0.2675	0.0500	0	0	0.086	0	82	82
8	1	620	0	2	2	0.2675	0.0500	0	1	-0.001	10	82	82
8	1	621	1	1	3	0.2675	0.0500	1	1	0.013	100	0	82
8	1	622	0	2	3	0.2675	0.0500	0	1	0.002	10	82	82
8	1	623	1	2	3	0.2675	0.0500	1	0	0.047	0	82	0
8	1	624	1	2	2	0.2675	0.0500	0	1	0.048	100	0	0
8	1	625	0	1	3	0.2675	0.0500	0	0	-0.023	0	82	82
8	1	626	1	2	2	0.2675	0.0500	1	0	-0.073	0	82	0
8	1	627	0	2	2	0.2675	0.0500	1	0	0.158	0	0	82
8	1	628	0	1	3	0.2675	0.0500	0	1	0.014	10	82	82
8	1	629	0	1	3	0.2675	0.0500	1	0	0.011	0	82	0
8	1	630	1	2	2	0.2675	0.0500	0	0	0.194	0	0	0
8	1	631	9	2	1	0.2675	0.0500	1	1	0.132	0	0	82
8	1	632	1	2	3	0.2675	0.0500	1	0	-0.003	0	82	0
8	1	633	9	1	1	0.2675	0.0500	0	0	-0.077	0	82	82
8	1	634	1	2	2	0.2675	0.0500	0	0	0.026	0	0	0
8	1	635	0	1	1	0.2675	0.0500	0	1	0.739	6	82	82
8	1	636	0	2	1	0.2675	0.0500	0	0	-0.133	0	82	82
8	1	637	0	1	3	0.2675	0.0500	0	1	0.134	10	82	82
8	1	638	9	2	2	0.2675	0.0500	1	1	0.139	0	82	0
8	1	639	1	2	2	0.2675	0.0500	0	0	0.070	0	0	0
8	1	640	1	1	1	0.2675	0.0500	0	1	-0.035	100	0	0
8	1	641	1	2	3	0.2675	0.0500	0	1	0.056	100	0	0
8	1	642	0	1	3	0.2675	0.0500	1	1	0.022	10	82	0
8	1	643	1	1	1	0.2675	0.0500	1	1	0.085	100	0	82
8	1	644	0	2	3	0.2675	0.0500	0	0	0.201	0	82	82
8	1	645	0	1	1	0.2675	0.0500	1	1	0.275	10	82	0
8	1	646	0	1	1	0.2675	0.0500	1	1	0.513	8	82	0
8	1	647	1	2	2	0.2675	0.0500	1	1	0.570	78	82	0
8	1	648	1	2	3	0.2675	0.0500	1	1	0.561	79	82	0
8	1	649	9	1	1	0.2675	0.0500	1	1	0.818	0	82	0
8	1	650	1	1	3	0.2675	0.0500	0	1	0.581	77	0	0
8	1	651	0	1	1	0.2675	0.0500	0	0	-0.008	0	82	82
8	1	652	0	2	2	0.2675	0.0500	1	1	0.853	5	0	82
8	1	653	9	1	1	0.2675	0.0500	1	1	0.670	0	82	0
8	1	654	1	2	2	0.2675	0.0500	0	1	0.640	71	0	0
8	1	655	0	1	3	0.2675	0.0500	1	1	0.690	7	82	0
8	1	656	0	2	2	0.2675	0.0500	1	1	0.919	5	0	82
8	1	657	1	1	1	0.2675	0.0500	0	0	0.736	0	0	0
8	1	658	9	1	3	0.2675	0.0500	1	0	0.106	0	0	82
8	1	659	9	1	3	0.2675	0.0500	1	0	0.034	0	0	82
8	1	660	1	2	3	0.2675	0.0500	0	1	0.570	78	0	0
8	1	661	1	2	2	0.2675	0.0500	1	0	0.080	0	82	0
8	1	662	0	2	3	0.2675	0.0500	1	1	0.649	7	0	82
8	1	663	9	2	2	0.2675	0.0500	0	1	0.875	0	82	82
8	1	664	1	1	2	0.2675	0.0500	0	1	0.586	76	0	0
8	1	665	0	1	3	0.2675	0.0500	0	1	0.466	9	82	82
8	1	666	1	2	1	0.2675	0.0500	1	1	0.671	68	82	0
8	1	667	0	2	2	0.2675	0.0500	0	1	0.511	8	82	82
8	1	668	1	2	2	0.2675	0.0500	0	1	0.420	93	0	0
8	1	669	9	2	2	0.2675	0.0500	1	0	0.537	0	82	0
8	1	670	1	1	1	0.2675	0.0500	1	1	0.595	75	0	82
8	1	671	1	1	3	0.2675	0.0500	1	1	0.436	91	0	82
8	1	672	0	2	3	0.2675	0.0500	0	1	0.678	7	82	82
8	1	673	9	1	1	0.2675	0.0500	1	1	0.443	0	0	82
8	1	674	0	2	3	0.2675	0.0500	1	1	0.421	9	0	82
8	1	675	0	1	1	0.2675	0.0500	0	1	0.553	8	82	82
8	1	676	0	2	1	0.2675	0.0500	0	0	0.897	0	82	82
8	1	677	9	1	3	0.2675	0.0500	1	0	0.765	0	82	0
8	1	678	0	1	3	0.2675	0.0500	0	1	0.271	10	82	82
8	1	679	1	1	1	0.2675	0.0500	0	1	0.475	87	0	0
8	1	680	1	2	2	0.2675	0.0500	1	0	0.786	0	82	0
8	1	681	9	1	1	0.2675	0.0500	1	0	0.410	0	82	0
8	1	682	0	1	1	0.2675	0.0500	0	1	0.431	9	82	82
8	1	683	1	2	3	0.2675	0.0500	0	0	0.565	0	0	0
8	1	684	0	2	2	0.2675	0.0500	0	1	0.453	9	82	82
8	1	685	0	1	3	0.2675	0.0500	0	1	0.525	8	82	82
8	1	686	1	2	1	0.2675	0.0500	0	1	0.542	81	0	0
8	1	687	0	1	3	0.2675	0.0500	1	0	0.737	0	82	0
8	1	688	0	1	3	0.2675	0.0500	1	1	0.783	6	82	0
8	1	689	9	1	3	0.2675	0.0500	0	1	0.561	0	0	0
8	1	690	0	1	2	0.2675	0.0500	0	1	0.963	5	82	82
8	1	691	9	2	3	0.2675	0.0500	1	1	0.490	0	82	0
8	1	692	1	2	3	0.2675	0.0500	0	0	0.509	0	0	0
8	1	693	9	2	3	0.2675	0.0500	1	1	0.548	0	0	82
8	1	694	0	2	3	0.2675	0.0500	0	1	0.406	9	82	82
8	1	695	1	2	2	0.2675	0.0500	1	0	0.648	0	82	0
8	1	696	9	2	3	0.2675	0.0500	1	1	0.818	0	0	82
8	1	697	0	2	2	0.2675	0.0500	1	0	0.010	0	0	82
8	1	698	1	2	3	0.2675	0.0500	1	1	0.147	100	82	0
8	1	699	0	1	2	0.2675	0.0500	1	1	0.071	10	82	0
8	1	700	1	1	3	0.2675	0.0500	0	1	0.032	100	0	0
8	1	701	0	2	2	0.2675	0.0500	0	1	0.599	8	82	82
8	1	702	1	1	1	0.2675	0.0500	0	0	0.418	0	0	0
8	1	703	0	2	2	0.2675	0.0500	0	1	0.091	10	82	82
8	1	704	0	2	3	0.2675	0.0500	1	1	0.071	10	0	82
8	1	705	0	1	1	0.2675	0.0500	1	0	0.061	0	82	0
8	1	706	0	1	1	0.2675	0.0500	0	1	0.552	8	82	82
8	1	707	0	2	2	0.2675	0.0500	1	1	0.545	8	0	82
8	1	708	1	2	3	0.2675	0.0500	0	1	0.655	69	0	0
8	1	709	1	2	3	0.2675	0.0500	0	1	0.785	57	0	0
8	1	710	1	1	2	0.2675	0.0500	0	1	0.045	100	0	0
8	1	711	1	2	2	0.2675	0.0500	0	1	0.552	80	0	0
8	1	712	1	1	3	0.2675	0.0500	1	1	0.205	100	0	82
8	1	713	0	2	3	0.2675	0.0500	0	1	0.493	9	82	82
8	1	714	9	2	3	0.2675	0.0500	0	0	0.637	0	0	0
8	1	715	1	2	2	0.2675	0.0500	1	1	0.420	93	82	0
8	1	716	1	1	1	0.2675	0.0500	0	0	0.639	0	0	0
8	1	717	9	1	2	0.2675	0.0500	0	1	0.430	0	0	0
8	1	718	0	2	1	0.2675	0.0500	1	1	0.622	7	0	82
8	1	719	1	2	2	0.2675	0.0500	1	1	0.545	81	82	0
8	1	720	1	2	3	0.2675	0.0500	0	0	0.653	0	0	0
