sub	sess	t	rew	loc	cue	co1	co2	or	resp	rt	rew_tot	left_col	right_col
6	1	1	9	1	1	0.0500	0.0500	1	1	0.806	0	0	82
6	1	2	9	1	1	0.0500	0.0500	1	1	0.509	0	0	82
6	1	3	0	2	3	0.0500	0.0500	1	1	0.825	5	0	82
6	1	4	1	1	2	0.0500	0.0500	0	1	0.536	81	0	0
6	1	5	0	1	3	0.0500	0.0500	1	1	0.606	7	82	0
6	1	6	0	2	1	0.0500	0.0500	0	0	0.565	0	82	82
6	1	7	1	2	1	0.0500	0.0500	1	1	0.515	84	82	0
6	1	8	0	2	3	0.0500	0.0500	1	1	0.612	7	0	82
6	1	9	0	1	1	0.0500	0.0500	1	1	0.502	8	82	0
6	1	10	1	1	3	0.0500	0.0500	0	1	0.550	80	0	0
6	1	11	9	2	3	0.0500	0.0500	1	1	0.663	0	0	82
6	1	12	0	2	1	0.0500	0.0500	0	1	0.605	7	82	82
6	1	13	0	2	3	0.0500	0.0500	0	1	0.548	8	82	82
6	1	14	0	2	2	0.0500	0.0500	1	1	0.664	7	0	82
6	1	15	1	1	3	0.0500	0.0500	0	1	0.458	89	0	0
6	1	16	0	1	1	0.0500	0.0500	1	1	0.916	5	82	0
6	1	17	0	2	1	0.0500	0.0500	0	1	0.540	8	82	82
6	1	18	9	1	3	0.0500	0.0500	0	1	0.539	0	82	82
6	1	19	9	1	3	0.0500	0.0500	0	1	0.533	0	0	0
6	1	20	1	2	2	0.0500	0.0500	0	1	0.542	81	0	0
6	1	21	0	2	2	0.0500	0.0500	1	1	0.896	5	0	82
6	1	22	1	1	3	0.0500	0.0500	0	1	0.441	91	0	0
6	1	23	0	1	1	0.0500	0.0500	0	1	0.408	9	82	82
6	1	24	1	1	2	0.0500	0.0500	1	1	0.568	78	0	82
6	1	25	1	1	3	0.0500	0.0500	1	0	0.525	0	0	82
6	1	26	1	1	3	0.0500	0.0500	0	1	0.545	81	0	0
6	1	27	0	1	3	0.0500	0.0500	0	1	0.421	9	82	82
6	1	28	1	2	1	0.0500	0.0500	0	1	0.547	80	0	0
6	1	29	1	1	1	0.0500	0.0500	1	1	0.536	81	0	82
6	1	30	0	2	3	0.0500	0.0500	0	1	0.486	9	82	82
6	1	31	0	2	3	0.0500	0.0500	1	1	0.448	9	0	82
6	1	32	1	1	1	0.0500	0.0500	1	0	0.542	0	0	82
6	1	33	1	1	1	0.0500	0.0500	0	1	0.486	86	0	0
6	1	34	1	2	3	0.0500	0.0500	0	1	0.500	85	0	0
6	1	35	9	2	3	0.0500	0.0500	0	1	0.511	0	82	82
6	1	36	0	2	3	0.0500	0.0500	0	1	0.576	8	82	82
6	1	37	1	1	1	0.0500	0.0500	1	0	0.820	0	0	82
6	1	38	1	2	3	0.0500	0.0500	0	1	0.509	84	0	0
6	1	39	0	2	3	0.0500	0.0500	1	1	0.397	10	0	82
6	1	40	1	1	1	0.0500	0.0500	1	0	0.385	0	0	82
6	1	41	1	1	3	0.0500	0.0500	1	1	0.522	83	0	82
6	1	42	9	2	2	0.0500	0.0500	1	1	0.503	0	0	82
6	1	43	9	1	3	0.0500	0.0500	1	1	0.474	0	82	0
6	1	44	9	2	2	0.0500	0.0500	1	1	0.477	0	0	82
6	1	45	0	1	3	0.0500	0.0500	0	1	0.646	7	82	82
6	1	46	1	1	2	0.0500	0.0500	0	1	0.476	87	0	0
6	1	47	1	2	2	0.0500	0.0500	1	1	0.431	92	82	0
6	1	48	0	2	1	0.0500	0.0500	1	1	0.445	9	0	82
6	1	49	9	2	3	0.0500	0.0500	1	1	0.427	0	0	82
6	1	50	0	2	3	0.0500	0.0500	1	1	0.418	9	0	82
6	1	51	1	1	1	0.0500	0.0500	1	0	0.578	0	0	82
6	1	52	0	2	2	0.0500	0.0500	0	1	0.591	8	82	82
6	1	53	1	2	2	0.0500	0.0500	1	1	0.456	89	82	0
6	1	54	1	2	3	0.0500	0.0500	0	1	0.488	86	0	0
6	1	55	1	2	2	0.0500	0.0500	1	1	0.402	95	82	0
6	1	56	9	1	1	0.0500	0.0500	1	1	0.641	0	82	0
6	1	57	0	2	2	0.0500	0.0500	0	1	0.569	8	82	82
6	1	58	0	1	3	0.0500	0.0500	1	1	0.600	8	82	0
6	1	59	9	2	3	0.0500	0.0500	0	1	0.529	0	0	0
6	1	60	9	1	2	0.0500	0.0500	1	1	0.499	0	0	82
6	1	61	9	2	3	0.0500	0.0500	1	1	0.455	0	0	82
6	1	62	0	2	2	0.0500	0.0500	0	0	0.410	0	82	82
6	1	63	0	2	2	0.0500	0.0500	1	1	0.464	9	0	82
6	1	64	9	2	2	0.0500	0.0500	0	1	0.462	0	0	0
6	1	65	0	2	3	0.0500	0.0500	1	1	0.382	10	0	82
6	1	66	9	1	3	0.0500	0.0500	1	0	0.560	0	0	82
6	1	67	9	2	1	0.0500	0.0500	0	1	0.485	0	0	0
6	1	68	0	2	2	0.0500	0.0500	0	1	0.782	6	82	82
6	1	69	0	1	1	0.0500	0.0500	0	1	0.739	6	82	82
6	1	70	1	2	2	0.0500	0.0500	1	1	0.359	99	82	0
6	1	71	1	1	1	0.0500	0.0500	1	1	0.869	50	0	82
6	1	72	1	1	1	0.0500	0.0500	1	1	0.434	92	0	82
6	1	73	0	2	2	0.0500	0.0500	0	1	0.716	6	82	82
6	1	74	1	2	2	0.0500	0.0500	1	1	0.372	98	82	0
6	1	75	1	2	3	0.0500	0.0500	0	1	0.428	92	0	0
6	1	76	0	2	2	0.0500	0.0500	0	0	0.418	0	82	82
6	1	77	0	1	2	0.0500	0.0500	1	1	0.901	5	82	0
6	1	78	1	1	3	0.0500	0.0500	0	1	0.540	81	0	0
6	1	79	0	1	3	0.0500	0.0500	1	1	0.682	7	82	0
6	1	80	1	2	3	0.0500	0.0500	0	0	0.418	0	0	0
6	1	81	1	1	1	0.0500	0.0500	0	1	0.493	86	0	0
6	1	82	1	2	3	0.0500	0.0500	1	1	0.419	93	82	0
6	1	83	0	2	3	0.0500	0.0500	1	1	0.463	9	0	82
6	1	84	9	1	3	0.0500	0.0500	1	1	0.498	0	82	0
6	1	85	1	1	3	0.0500	0.0500	1	1	0.881	50	0	82
6	1	86	0	2	2	0.0500	0.0500	0	1	0.567	8	82	82
6	1	87	1	2	3	0.0500	0.0500	1	1	0.416	93	82	0
6	1	88	9	2	2	0.0500	0.0500	0	0	0.421	0	0	0
6	1	89	0	1	3	0.0500	0.0500	0	1	0.713	6	82	82
6	1	90	0	2	3	0.0500	0.0500	0	1	0.655	7	82	82
6	1	91	0	1	2	0.0500	0.0500	1	1	0.757	6	82	0
6	1	92	9	2	2	0.0500	0.0500	1	1	1.309	0	82	0
6	1	93	9	1	1	0.0500	0.0500	1	1	0.618	0	82	0
6	1	94	9	1	2	0.0500	0.0500	0	1	0.517	0	0	0
6	1	95	0	2	3	0.0500	0.0500	1	1	0.785	6	0	82
6	1	96	1	1	1	0.0500	0.0500	0	1	0.738	61	0	0
6	1	97	1	2	3	0.0500	0.0500	0	1	0.596	75	0	0
6	1	98	0	1	1	0.0500	0.0500	1	1	0.605	7	82	0
6	1	99	9	1	3	0.0500	0.0500	0	1	0.861	0	82	82
6	1	100	1	1	3	0.0500	0.0500	0	1	0.499	85	0	0
6	1	101	1	1	3	0.0500	0.0500	1	1	0.577	77	0	82
6	1	102	9	2	3	0.0500	0.0500	1	1	0.441	0	82	0
6	1	103	1	2	3	0.0500	0.0500	0	1	0.443	91	0	0
6	1	104	0	1	3	0.0500	0.0500	1	1	0.488	9	82	0
6	1	105	1	2	2	0.0500	0.0500	1	1	0.463	89	82	0
6	1	106	1	1	1	0.0500	0.0500	0	1	0.406	94	0	0
6	1	107	0	1	1	0.0500	0.0500	1	1	0.566	8	82	0
6	1	108	1	2	2	0.0500	0.0500	1	1	0.459	89	82	0
6	1	109	0	1	1	0.0500	0.0500	0	1	0.361	10	82	82
6	1	110	0	1	3	0.0500	0.0500	1	1	1.025	5	82	0
6	1	111	9	2	2	0.0500	0.0500	1	1	0.382	0	82	0
6	1	112	9	1	1	0.0500	0.0500	1	1	0.549	0	0	82
6	1	113	0	1	3	0.0500	0.0500	0	1	0.621	7	82	82
6	1	114	1	2	2	0.0500	0.0500	1	1	0.423	93	82	0
6	1	115	1	1	3	0.0500	0.0500	0	0	0.591	0	0	0
6	1	116	9	2	1	0.0500	0.0500	1	1	0.402	0	82	0
6	1	117	1	2	2	0.0500	0.0500	0	1	0.624	73	0	0
6	1	118	9	1	1	0.0500	0.0500	0	1	0.469	0	0	0
6	1	119	1	2	3	0.0500	0.0500	0	1	0.457	89	0	0
6	1	120	0	2	1	0.0500	0.0500	0	1	0.683	7	82	82
6	1	121	9	1	1	0.0500	0.0500	0	1	0.606	0	82	82
6	1	122	0	1	1	0.0500	0.0500	1	1	0.559	8	82	0
6	1	123	1	1	2	0.0500	0.0500	1	1	0.475	88	0	82
6	1	124	1	2	1	0.0500	0.0500	0	0	0.456	0	0	0
6	1	125	1	2	3	0.0500	0.0500	1	1	0.495	85	82	0
6	1	126	0	1	2	0.0500	0.0500	1	0	0.485	0	82	0
6	1	127	0	2	2	0.0500	0.0500	0	1	0.778	6	82	82
6	1	128	0	2	3	0.0500	0.0500	0	1	0.573	8	82	82
6	1	129	1	1	3	0.0500	0.0500	1	1	1.056	50	0	82
6	1	130	1	1	1	0.0500	0.0500	1	0	0.498	0	0	82
6	1	131	0	1	1	0.0500	0.0500	1	1	0.493	9	82	0
6	1	132	0	1	3	0.0500	0.0500	0	1	0.879	5	82	82
6	1	133	1	1	1	0.0500	0.0500	0	1	0.503	85	0	0
6	1	134	0	2	2	0.0500	0.0500	1	1	0.426	9	0	82
6	1	135	9	2	2	0.0500	0.0500	1	1	0.508	0	0	82
6	1	136	1	2	3	0.0500	0.0500	0	1	0.452	90	0	0
6	1	137	0	1	3	0.0500	0.0500	1	1	0.571	8	82	0
6	1	138	9	2	3	0.0500	0.0500	1	1	0.529	0	0	82
6	1	139	9	2	3	0.0500	0.0500	0	1	0.658	0	82	82
6	1	140	0	1	3	0.0500	0.0500	1	1	0.517	8	82	0
6	1	141	1	1	1	0.0500	0.0500	0	0	1.063	0	0	0
6	1	142	1	2	2	0.0500	0.0500	0	0	0.673	0	0	0
6	1	143	9	1	3	0.0500	0.0500	1	0	0.606	0	82	0
6	1	144	1	2	3	0.0500	0.0500	1	1	0.555	79	82	0
6	1	145	1	2	3	0.0500	0.0500	0	1	0.496	85	0	0
6	1	146	0	2	2	0.0500	0.0500	0	1	0.439	9	82	82
6	1	147	1	1	3	0.0500	0.0500	1	1	0.455	89	0	82
6	1	148	9	2	3	0.0500	0.0500	0	1	0.448	0	0	0
6	1	149	0	2	3	0.0500	0.0500	0	1	0.520	8	82	82
6	1	150	0	1	1	0.0500	0.0500	1	0	0.371	0	82	0
6	1	151	1	2	3	0.0500	0.0500	1	1	0.500	85	82	0
6	1	152	1	1	3	0.0500	0.0500	0	1	0.487	86	0	0
6	1	153	0	1	3	0.0500	0.0500	1	1	0.548	8	82	0
6	1	154	1	2	3	0.0500	0.0500	1	1	0.492	86	82	0
6	1	155	0	2	3	0.0500	0.0500	0	0	0.895	0	82	82
6	1	156	0	1	3	0.0500	0.0500	0	1	0.574	8	82	82
6	1	157	1	1	3	0.0500	0.0500	0	1	0.444	91	0	0
6	1	158	1	2	3	0.0500	0.0500	0	1	0.562	79	0	0
6	1	159	1	1	1	0.0500	0.0500	0	1	0.478	87	0	0
6	1	160	0	1	3	0.0500	0.0500	1	1	2.670	5	82	0
6	1	161	0	2	3	0.0500	0.0500	1	1	0.777	6	0	82
6	1	162	9	1	1	0.0500	0.0500	0	1	0.620	0	82	82
6	1	163	1	2	1	0.0500	0.0500	1	1	0.432	92	82	0
6	1	164	0	1	2	0.0500	0.0500	0	1	0.559	8	82	82
6	1	165	0	1	1	0.0500	0.0500	1	1	0.409	9	82	0
6	1	166	0	1	3	0.0500	0.0500	0	1	0.374	10	82	82
6	1	167	1	2	2	0.0500	0.0500	0	1	0.494	86	0	0
6	1	168	1	2	2	0.0500	0.0500	0	0	0.443	0	0	0
6	1	169	9	2	2	0.0500	0.0500	0	1	0.433	0	82	82
6	1	170	0	2	3	0.0500	0.0500	0	1	0.514	8	82	82
6	1	171	0	2	2	0.0500	0.0500	0	0	0.482	0	82	82
6	1	172	0	2	2	0.0500	0.0500	1	1	1.165	5	0	82
6	1	173	1	2	2	0.0500	0.0500	0	0	0.478	0	0	0
6	1	174	1	1	3	0.0500	0.0500	1	1	0.436	91	0	82
6	1	175	0	1	1	0.0500	0.0500	0	1	0.449	9	82	82
6	1	176	0	1	1	0.0500	0.0500	0	0	0.436	0	82	82
6	1	177	9	2	3	0.0500	0.0500	1	1	0.577	0	82	0
6	1	178	0	1	3	0.0500	0.0500	0	1	0.489	9	82	82
6	1	179	0	1	1	0.0500	0.0500	1	1	0.592	8	82	0
6	1	180	1	1	1	0.0500	0.0500	0	1	0.454	90	0	0
6	1	181	0	2	3	0.0500	0.0500	0	1	0.647	7	82	82
6	1	182	9	1	3	0.0500	0.0500	1	1	0.435	0	0	82
6	1	183	1	2	2	0.0500	0.0500	0	1	0.483	87	0	0
6	1	184	9	2	1	0.0500	0.0500	0	1	0.531	0	82	82
6	1	185	1	1	3	0.0500	0.0500	0	1	0.416	93	0	0
6	1	186	0	1	3	0.0500	0.0500	0	1	0.365	10	82	82
6	1	187	9	1	1	0.0500	0.0500	0	1	0.406	0	82	82
6	1	188	1	1	1	0.0500	0.0500	1	1	0.428	92	0	82
6	1	189	0	1	1	0.0500	0.0500	1	0	0.740	0	82	0
6	1	190	0	1	1	0.0500	0.0500	0	1	0.402	9	82	82
6	1	191	1	2	2	0.0500	0.0500	1	1	0.463	89	82	0
6	1	192	1	2	2	0.0500	0.0500	0	1	0.546	80	0	0
6	1	193	1	1	3	0.0500	0.0500	1	0	0.473	0	0	82
6	1	194	1	1	1	0.0500	0.0500	1	1	0.615	74	0	82
6	1	195	0	1	1	0.0500	0.0500	0	1	0.577	8	82	82
6	1	196	9	2	2	0.0500	0.0500	0	0	0.403	0	0	0
6	1	197	1	2	3	0.0500	0.0500	1	1	0.433	92	82	0
6	1	198	9	1	3	0.0500	0.0500	1	1	0.498	0	0	82
6	1	199	0	1	1	0.0500	0.0500	1	0	0.448	0	82	0
6	1	200	0	1	1	0.0500	0.0500	1	1	0.784	6	82	0
6	1	201	0	1	1	0.0500	0.0500	0	0	1.455	0	82	82
6	1	202	9	2	3	0.0500	0.0500	0	1	0.464	0	0	0
6	1	203	1	1	1	0.0500	0.0500	0	1	0.410	94	0	0
6	1	204	0	1	3	0.0500	0.0500	0	1	0.683	7	82	82
6	1	205	1	1	1	0.0500	0.0500	1	0	0.457	0	0	82
6	1	206	1	1	1	0.0500	0.0500	0	1	0.531	82	0	0
6	1	207	9	2	2	0.0500	0.0500	0	1	0.474	0	82	82
6	1	208	1	1	3	0.0500	0.0500	0	1	0.510	84	0	0
6	1	209	1	2	2	0.0500	0.0500	0	0	0.721	0	0	0
6	1	210	1	1	3	0.0500	0.0500	1	0	0.369	0	0	82
6	1	211	0	2	2	0.0500	0.0500	1	1	0.943	5	0	82
6	1	212	1	2	2	0.0500	0.0500	0	1	0.809	54	0	0
6	1	213	9	1	1	0.0500	0.0500	1	1	0.527	0	82	0
6	1	214	0	1	1	0.0500	0.0500	0	1	0.486	9	82	82
6	1	215	1	1	1	0.0500	0.0500	1	1	0.428	92	0	82
6	1	216	1	2	1	0.0500	0.0500	0	1	0.569	78	0	0
6	1	217	0	1	1	0.0500	0.0500	0	1	0.539	8	82	82
6	1	218	0	2	2	0.0500	0.0500	0	1	0.669	7	82	82
6	1	219	0	2	3	0.0500	0.0500	1	1	0.585	8	0	82
6	1	220	1	1	2	0.0500	0.0500	1	0	0.739	0	0	82
6	1	221	9	2	2	0.0500	0.0500	1	1	0.463	0	82	0
6	1	222	0	1	3	0.0500	0.0500	1	1	0.749	6	82	0
6	1	223	1	1	1	0.0500	0.0500	1	1	0.423	93	0	82
6	1	224	0	2	2	0.0500	0.0500	0	0	0.444	0	82	82
6	1	225	0	2	2	0.0500	0.0500	0	1	0.512	8	82	82
6	1	226	9	2	2	0.0500	0.0500	1	1	0.437	0	82	0
6	1	227	0	1	3	0.0500	0.0500	0	1	0.482	9	82	82
6	1	228	0	1	1	0.0500	0.0500	0	1	0.462	9	82	82
6	1	229	1	1	1	0.0500	0.0500	0	1	0.440	91	0	0
6	1	230	0	2	2	0.0500	0.0500	1	1	0.632	7	0	82
6	1	231	9	1	1	0.0500	0.0500	1	1	0.526	0	0	82
6	1	232	1	2	3	0.0500	0.0500	1	0	0.689	0	82	0
6	1	233	1	2	1	0.0500	0.0500	1	1	0.401	95	82	0
6	1	234	0	1	3	0.0500	0.0500	1	1	0.576	8	82	0
6	1	235	9	1	3	0.0500	0.0500	0	1	0.558	0	82	82
6	1	236	1	2	3	0.0500	0.0500	0	1	0.502	85	0	0
6	1	237	1	1	1	0.0500	0.0500	0	0	0.570	0	0	0
6	1	238	0	1	3	0.0500	0.0500	0	1	0.425	9	82	82
6	1	239	9	2	3	0.0500	0.0500	0	1	0.581	0	82	82
6	1	240	9	2	3	0.0500	0.0500	0	1	0.554	0	82	82
6	1	241	0	1	3	0.0500	0.0500	1	1	0.834	5	82	0
6	1	242	1	1	2	0.0500	0.0500	0	1	0.621	73	0	0
6	1	243	9	1	1	0.0500	0.0500	0	1	0.446	0	0	0
6	1	244	0	2	3	0.0500	0.0500	1	0	0.544	0	0	82
6	1	245	1	2	2	0.0500	0.0500	0	1	0.563	79	0	0
6	1	246	1	1	1	0.0500	0.0500	0	1	0.962	50	0	0
6	1	247	9	1	1	0.0500	0.0500	0	1	0.378	0	0	0
6	1	248	0	1	1	0.0500	0.0500	0	1	0.332	10	82	82
6	1	249	0	2	2	0.0500	0.0500	1	1	0.453	9	0	82
6	1	250	9	1	1	0.0500	0.0500	0	1	0.484	0	82	82
6	1	251	0	2	3	0.0500	0.0500	0	1	0.580	8	82	82
6	1	252	1	2	3	0.0500	0.0500	0	1	0.476	87	0	0
6	1	253	0	2	2	0.0500	0.0500	1	1	0.483	9	0	82
6	1	254	1	1	3	0.0500	0.0500	1	1	0.769	58	0	82
6	1	255	9	1	2	0.0500	0.0500	1	1	0.598	0	82	0
6	1	256	0	1	1	0.0500	0.0500	0	1	0.764	6	82	82
6	1	257	0	2	2	0.0500	0.0500	0	1	0.643	7	82	82
6	1	258	1	2	3	0.0500	0.0500	0	1	0.512	84	0	0
6	1	259	1	1	3	0.0500	0.0500	1	1	0.541	81	0	82
6	1	260	0	2	2	0.0500	0.0500	0	1	0.797	6	82	82
6	1	261	1	2	2	0.0500	0.0500	0	1	0.068	100	0	0
6	1	262	1	2	2	0.0500	0.0500	1	1	0.422	93	82	0
6	1	263	9	1	1	0.0500	0.0500	0	1	0.406	0	0	0
6	1	264	9	2	3	0.0500	0.0500	1	1	0.419	0	82	0
6	1	265	1	2	3	0.0500	0.0500	1	1	0.307	100	82	0
6	1	266	0	2	3	0.0500	0.0500	0	1	0.585	8	82	82
6	1	267	1	2	2	0.0500	0.0500	0	1	0.413	94	0	0
6	1	268	0	2	3	0.0500	0.0500	0	1	0.405	9	82	82
6	1	269	0	2	3	0.0500	0.0500	0	1	0.385	10	82	82
6	1	270	0	2	2	0.0500	0.0500	1	1	0.362	10	0	82
6	1	271	0	1	1	0.0500	0.0500	0	1	0.463	9	82	82
6	1	272	0	2	1	0.0500	0.0500	1	1	0.559	8	0	82
6	1	273	0	2	3	0.0500	0.0500	1	1	0.433	9	0	82
6	1	274	9	1	3	0.0500	0.0500	1	1	0.441	0	82	0
6	1	275	0	1	2	0.0500	0.0500	0	1	0.448	9	82	82
6	1	276	1	2	2	0.0500	0.0500	1	1	0.491	86	82	0
6	1	277	0	2	3	0.0500	0.0500	0	1	0.629	7	82	82
6	1	278	1	1	3	0.0500	0.0500	0	0	0.425	0	0	0
6	1	279	1	2	2	0.0500	0.0500	1	1	0.454	90	82	0
6	1	280	1	2	2	0.0500	0.0500	1	1	0.356	99	82	0
6	1	281	1	1	3	0.0500	0.0500	1	0	0.520	0	0	82
6	1	282	1	1	2	0.0500	0.0500	1	1	0.447	90	0	82
6	1	283	1	2	3	0.0500	0.0500	1	1	0.562	79	82	0
6	1	284	1	2	2	0.0500	0.0500	1	1	0.420	93	82	0
6	1	285	0	1	1	0.0500	0.0500	0	1	0.476	9	82	82
6	1	286	0	1	3	0.0500	0.0500	0	1	0.505	8	82	82
6	1	287	0	1	1	0.0500	0.0500	1	1	0.389	10	82	0
6	1	288	9	2	3	0.0500	0.0500	0	1	0.720	0	0	0
6	1	289	0	2	3	0.0500	0.0500	0	1	3.591	5	82	82
6	1	290	0	1	3	0.0500	0.0500	0	0	0.526	0	82	82
6	1	291	0	1	2	0.0500	0.0500	1	1	0.693	7	82	0
6	1	292	0	2	3	0.0500	0.0500	1	0	0.800	0	0	82
6	1	293	0	2	3	0.0500	0.0500	1	1	0.487	9	0	82
6	1	294	0	1	3	0.0500	0.0500	0	1	0.530	8	82	82
6	1	295	1	2	3	0.0500	0.0500	1	1	0.865	50	82	0
6	1	296	0	1	3	0.0500	0.0500	0	1	0.363	10	82	82
6	1	297	0	2	1	0.0500	0.0500	1	1	0.629	7	0	82
6	1	298	1	2	2	0.0500	0.0500	0	1	0.868	50	0	0
6	1	299	9	2	2	0.0500	0.0500	0	1	0.408	0	82	82
6	1	300	0	2	2	0.0500	0.0500	1	1	0.764	6	0	82
6	1	301	0	1	2	0.0500	0.0500	0	1	0.597	8	82	82
6	1	302	1	2	2	0.0500	0.0500	0	1	0.855	50	0	0
6	1	303	0	1	3	0.0500	0.0500	1	1	0.707	6	82	0
6	1	304	1	1	3	0.0500	0.0500	0	1	0.495	85	0	0
6	1	305	9	1	3	0.0500	0.0500	0	1	0.478	0	82	82
6	1	306	0	2	2	0.0500	0.0500	1	1	0.478	9	0	82
6	1	307	0	1	1	0.0500	0.0500	1	1	0.481	9	82	0
6	1	308	1	2	3	0.0500	0.0500	0	1	0.650	70	0	0
6	1	309	1	2	2	0.0500	0.0500	1	1	0.590	76	82	0
6	1	310	1	1	2	0.0500	0.0500	0	1	0.552	80	0	0
6	1	311	0	2	2	0.0500	0.0500	1	1	0.351	10	0	82
6	1	312	0	2	2	0.0500	0.0500	0	0	0.390	0	82	82
6	1	313	0	1	1	0.0500	0.0500	1	0	0.395	0	82	0
6	1	314	0	1	3	0.0500	0.0500	1	1	0.484	9	82	0
6	1	315	0	2	3	0.0500	0.0500	1	1	0.513	8	0	82
6	1	316	0	1	1	0.0500	0.0500	1	1	0.578	8	82	0
6	1	317	9	1	3	0.0500	0.0500	0	1	0.467	0	0	0
6	1	318	9	2	3	0.0500	0.0500	1	1	0.577	0	82	0
6	1	319	1	1	1	0.0500	0.0500	0	0	0.483	0	0	0
6	1	320	1	2	3	0.0500	0.0500	1	1	0.403	95	82	0
6	1	321	0	1	3	0.0500	0.0500	1	1	0.704	6	82	0
6	1	322	9	2	1	0.0500	0.0500	1	1	0.626	0	0	82
6	1	323	1	1	3	0.0500	0.0500	0	1	0.751	60	0	0
6	1	324	1	2	1	0.0500	0.0500	1	1	0.585	77	82	0
6	1	325	1	1	1	0.0500	0.0500	1	1	0.409	94	0	82
6	1	326	0	2	3	0.0500	0.0500	1	1	0.480	9	0	82
6	1	327	9	1	3	0.0500	0.0500	0	1	0.456	0	0	0
6	1	328	9	1	2	0.0500	0.0500	0	1	0.517	0	82	82
6	1	329	1	2	1	0.0500	0.0500	0	1	0.576	77	0	0
6	1	330	1	1	1	0.0500	0.0500	1	1	0.695	65	0	82
6	1	331	0	2	2	0.0500	0.0500	1	1	0.618	7	0	82
6	1	332	0	2	1	0.0500	0.0500	1	0	0.676	0	0	82
6	1	333	1	2	3	0.0500	0.0500	1	1	0.430	92	82	0
6	1	334	9	1	3	0.0500	0.0500	1	1	0.693	0	0	82
6	1	335	9	2	2	0.0500	0.0500	0	0	0.890	0	82	82
6	1	336	0	2	2	0.0500	0.0500	1	1	0.567	8	0	82
6	1	337	1	1	1	0.0500	0.0500	1	1	0.800	55	0	82
6	1	338	1	2	3	0.0500	0.0500	1	1	0.842	51	82	0
6	1	339	1	2	3	0.0500	0.0500	1	1	0.509	84	82	0
6	1	340	1	1	3	0.0500	0.0500	0	1	0.612	74	0	0
6	1	341	1	1	3	0.0500	0.0500	1	1	0.440	91	0	82
6	1	342	1	1	3	0.0500	0.0500	1	1	0.539	81	0	82
6	1	343	9	2	2	0.0500	0.0500	0	1	0.513	0	0	0
6	1	344	0	1	1	0.0500	0.0500	0	1	0.637	7	82	82
6	1	345	0	2	3	0.0500	0.0500	0	1	0.660	7	82	82
6	1	346	1	1	3	0.0500	0.0500	1	1	0.554	80	0	82
6	1	347	1	2	3	0.0500	0.0500	0	1	0.558	79	0	0
6	1	348	1	1	3	0.0500	0.0500	1	1	0.408	94	0	82
6	1	349	1	1	1	0.0500	0.0500	0	1	0.447	90	0	0
6	1	350	0	1	2	0.0500	0.0500	0	0	0.532	0	82	82
6	1	351	1	2	2	0.0500	0.0500	0	1	0.488	86	0	0
6	1	352	1	1	3	0.0500	0.0500	0	1	0.428	92	0	0
6	1	353	1	1	1	0.0500	0.0500	0	1	0.419	93	0	0
6	1	354	1	2	2	0.0500	0.0500	1	1	0.493	86	82	0
6	1	355	9	1	3	0.0500	0.0500	0	1	0.490	0	0	0
6	1	356	0	2	2	0.0500	0.0500	1	1	0.427	9	0	82
6	1	357	1	2	3	0.0500	0.0500	1	1	0.488	86	82	0
6	1	358	9	1	1	0.0500	0.0500	1	1	0.703	0	82	0
6	1	359	0	1	3	0.0500	0.0500	1	1	0.785	6	82	0
6	1	360	9	2	2	0.0500	0.0500	1	1	0.435	0	0	82
6	1	361	1	1	3	0.0500	0.0500	1	1	0.525	83	0	82
6	1	362	1	1	1	0.0500	0.0500	0	0	0.434	0	0	0
6	1	363	0	2	2	0.0500	0.0500	0	1	0.750	6	82	82
6	1	364	9	1	1	0.0500	0.0500	0	1	0.505	0	82	82
6	1	365	9	1	3	0.0500	0.0500	1	1	0.509	0	0	82
6	1	366	0	2	3	0.0500	0.0500	1	1	0.555	8	0	82
6	1	367	0	1	1	0.0500	0.0500	0	1	0.529	8	82	82
6	1	368	0	1	1	0.0500	0.0500	1	0	0.437	0	82	0
6	1	369	0	1	3	0.0500	0.0500	1	1	0.559	8	82	0
6	1	370	9	2	3	0.0500	0.0500	0	0	0.455	0	0	0
6	1	371	1	1	1	0.0500	0.0500	1	1	0.587	76	0	82
6	1	372	0	2	3	0.0500	0.0500	0	1	0.720	6	82	82
6	1	373	9	2	2	0.0500	0.0500	1	1	0.407	0	82	0
6	1	374	9	2	3	0.0500	0.0500	0	1	0.520	0	82	82
6	1	375	1	2	3	0.0500	0.0500	0	1	0.478	87	0	0
6	1	376	0	2	3	0.0500	0.0500	1	1	0.645	7	0	82
6	1	377	9	1	1	0.0500	0.0500	0	1	0.937	0	82	82
6	1	378	9	2	1	0.0500	0.0500	0	1	0.467	0	82	82
6	1	379	0	2	3	0.0500	0.0500	0	1	0.522	8	82	82
6	1	380	1	1	2	0.0500	0.0500	0	1	0.498	85	0	0
6	1	381	1	2	2	0.0500	0.0500	1	1	0.719	63	82	0
6	1	382	0	2	3	0.0500	0.0500	1	1	0.437	9	0	82
6	1	383	9	2	3	0.0500	0.0500	0	1	0.391	0	82	82
6	1	384	0	2	2	0.0500	0.0500	1	1	0.449	9	0	82
6	1	385	9	1	2	0.0500	0.0500	0	1	0.465	0	0	0
6	1	386	1	1	3	0.0500	0.0500	0	1	0.552	80	0	0
6	1	387	1	2	2	0.0500	0.0500	1	1	0.482	87	82	0
6	1	388	0	2	3	0.0500	0.0500	0	1	0.699	7	82	82
6	1	389	0	1	1	0.0500	0.0500	1	0	1.103	0	82	0
6	1	390	1	2	1	0.0500	0.0500	1	1	0.630	72	82	0
6	1	391	1	2	1	0.0500	0.0500	1	0	0.637	0	82	0
6	1	392	0	1	1	0.0500	0.0500	0	1	0.560	8	82	82
6	1	393	9	2	2	0.0500	0.0500	1	1	0.478	0	82	0
6	1	394	1	1	1	0.0500	0.0500	1	1	0.594	76	0	82
6	1	395	9	2	2	0.0500	0.0500	1	1	0.550	0	82	0
6	1	396	0	1	1	0.0500	0.0500	1	1	0.643	7	82	0
6	1	397	0	1	3	0.0500	0.0500	0	1	0.781	6	82	82
6	1	398	0	2	2	0.0500	0.0500	1	1	0.550	8	0	82
6	1	399	0	1	3	0.0500	0.0500	1	0	0.684	0	82	0
6	1	400	0	2	3	0.0500	0.0500	0	1	0.551	8	82	82
6	1	401	9	2	2	0.0500	0.0500	0	0	0.414	0	0	0
6	1	402	1	1	3	0.0500	0.0500	0	1	0.522	83	0	0
6	1	403	0	2	3	0.0500	0.0500	0	1	0.497	9	82	82
6	1	404	9	1	3	0.0500	0.0500	0	1	0.598	0	0	0
6	1	405	1	2	3	0.0500	0.0500	1	1	0.504	85	82	0
6	1	406	9	1	3	0.0500	0.0500	0	1	0.600	0	0	0
6	1	407	0	2	3	0.0500	0.0500	1	0	0.749	0	0	82
6	1	408	0	2	2	0.0500	0.0500	1	1	0.533	8	0	82
6	1	409	0	1	3	0.0500	0.0500	0	1	0.728	6	82	82
6	1	410	9	2	2	0.0500	0.0500	0	1	0.700	0	0	0
6	1	411	9	1	2	0.0500	0.0500	1	1	0.603	0	82	0
6	1	412	9	1	3	0.0500	0.0500	1	1	0.516	0	0	82
6	1	413	1	1	2	0.0500	0.0500	0	1	0.874	50	0	0
6	1	414	1	2	2	0.0500	0.0500	0	1	0.604	75	0	0
6	1	415	0	1	1	0.0500	0.0500	0	1	0.499	9	82	82
6	1	416	0	2	2	0.0500	0.0500	0	1	0.461	9	82	82
6	1	417	1	2	3	0.0500	0.0500	1	1	0.444	91	82	0
6	1	418	0	2	2	0.0500	0.0500	0	1	0.536	8	82	82
6	1	419	1	1	3	0.0500	0.0500	1	1	1.117	50	0	82
6	1	420	0	2	1	0.0500	0.0500	1	1	0.599	8	0	82
6	1	421	1	2	2	0.0500	0.0500	1	1	0.511	84	82	0
6	1	422	1	1	3	0.0500	0.0500	0	1	0.525	82	0	0
6	1	423	0	2	3	0.0500	0.0500	0	0	0.510	0	82	82
6	1	424	1	1	3	0.0500	0.0500	0	1	0.530	82	0	0
6	1	425	0	2	2	0.0500	0.0500	1	1	0.447	9	0	82
6	1	426	0	1	2	0.0500	0.0500	0	1	0.551	8	82	82
6	1	427	1	2	3	0.0500	0.0500	1	1	0.548	80	82	0
6	1	428	9	2	3	0.0500	0.0500	1	1	0.569	0	82	0
6	1	429	1	1	1	0.0500	0.0500	0	1	0.479	87	0	0
6	1	430	0	2	3	0.0500	0.0500	1	1	0.659	7	0	82
6	1	431	9	2	3	0.0500	0.0500	0	1	0.546	0	0	0
6	1	432	1	2	3	0.0500	0.0500	0	1	0.544	81	0	0
6	1	433	0	2	3	0.0500	0.0500	0	1	0.651	7	82	82
6	1	434	9	2	1	0.0500	0.0500	0	1	0.458	0	0	0
6	1	435	1	2	3	0.0500	0.0500	1	1	0.633	72	82	0
6	1	436	1	2	2	0.0500	0.0500	0	1	0.645	70	0	0
6	1	437	9	1	3	0.0500	0.0500	0	1	0.617	0	0	0
6	1	438	9	1	1	0.0500	0.0500	0	1	0.556	0	0	0
6	1	439	1	2	2	0.0500	0.0500	1	1	0.497	85	82	0
6	1	440	0	1	1	0.0500	0.0500	0	1	0.749	6	82	82
6	1	441	1	1	1	0.0500	0.0500	1	1	0.520	83	0	82
6	1	442	9	1	3	0.0500	0.0500	0	1	0.447	0	0	0
6	1	443	1	2	3	0.0500	0.0500	0	0	0.491	0	0	0
6	1	444	0	1	3	0.0500	0.0500	0	1	0.945	5	82	82
6	1	445	1	2	2	0.0500	0.0500	1	1	0.653	70	82	0
6	1	446	9	1	3	0.0500	0.0500	1	1	0.762	0	0	82
6	1	447	0	1	1	0.0500	0.0500	1	1	0.697	7	82	0
6	1	448	1	2	3	0.0500	0.0500	1	1	0.473	88	82	0
6	1	449	0	2	2	0.0500	0.0500	0	1	0.488	9	82	82
6	1	450	1	2	2	0.0500	0.0500	0	1	0.567	78	0	0
6	1	451	0	2	3	0.0500	0.0500	0	1	0.443	9	82	82
6	1	452	1	2	2	0.0500	0.0500	0	1	0.407	94	0	0
6	1	453	1	1	3	0.0500	0.0500	0	1	0.486	86	0	0
6	1	454	1	1	3	0.0500	0.0500	1	1	0.468	88	0	82
6	1	455	1	1	1	0.0500	0.0500	1	0	0.558	0	0	82
6	1	456	1	1	3	0.0500	0.0500	1	1	0.787	56	0	82
6	1	457	1	2	3	0.0500	0.0500	0	1	0.408	94	0	0
6	1	458	9	1	2	0.0500	0.0500	0	1	0.630	0	82	82
6	1	459	1	1	3	0.0500	0.0500	0	0	0.585	0	0	0
6	1	460	0	2	3	0.0500	0.0500	0	1	0.426	9	82	82
6	1	461	1	1	3	0.0500	0.0500	1	1	0.551	80	0	82
6	1	462	1	2	3	0.0500	0.0500	0	1	0.483	87	0	0
6	1	463	9	2	3	0.0500	0.0500	1	0	0.594	0	82	0
6	1	464	1	1	3	0.0500	0.0500	1	1	0.818	53	0	82
6	1	465	0	2	3	0.0500	0.0500	1	1	0.518	8	0	82
6	1	466	0	1	3	0.0500	0.0500	0	1	0.477	9	82	82
6	1	467	1	2	2	0.0500	0.0500	0	1	0.540	81	0	0
6	1	468	0	1	3	0.0500	0.0500	0	1	0.540	8	82	82
6	1	469	0	1	3	0.0500	0.0500	1	1	0.567	8	82	0
6	1	470	9	1	3	0.0500	0.0500	1	0	0.452	0	0	82
6	1	471	0	1	1	0.0500	0.0500	1	1	0.479	9	82	0
6	1	472	0	1	1	0.0500	0.0500	0	1	0.445	9	82	82
6	1	473	0	1	3	0.0500	0.0500	1	1	0.528	8	82	0
6	1	474	0	2	2	0.0500	0.0500	0	0	0.523	0	82	82
6	1	475	1	1	3	0.0500	0.0500	0	1	0.463	89	0	0
6	1	476	0	2	2	0.0500	0.0500	1	1	0.586	8	0	82
6	1	477	0	1	1	0.0500	0.0500	1	1	0.670	7	82	0
6	1	478	1	2	3	0.0500	0.0500	0	1	0.614	74	0	0
6	1	479	0	1	2	0.0500	0.0500	1	1	0.480	9	82	0
6	1	480	0	1	1	0.0500	0.0500	1	1	0.491	9	82	0
6	1	481	1	1	1	0.0500	0.0500	0	1	0.529	82	0	0
6	1	482	1	1	1	0.0500	0.0500	1	1	0.756	59	0	82
6	1	483	1	1	1	0.0500	0.0500	1	1	0.383	97	0	82
6	1	484	1	1	2	0.0500	0.0500	1	1	0.440	91	0	82
6	1	485	0	2	2	0.0500	0.0500	1	0	0.417	0	0	82
6	1	486	9	2	3	0.0500	0.0500	1	1	0.505	0	82	0
6	1	487	9	2	2	0.0500	0.0500	0	1	0.658	0	0	0
6	1	488	9	1	3	0.0500	0.0500	1	1	0.803	0	82	0
6	1	489	1	2	2	0.0500	0.0500	0	1	0.529	82	0	0
6	1	490	1	2	3	0.0500	0.0500	0	1	0.490	86	0	0
6	1	491	9	1	3	0.0500	0.0500	0	1	0.598	0	82	82
6	1	492	9	2	1	0.0500	0.0500	1	1	0.740	0	82	0
6	1	493	9	2	3	0.0500	0.0500	1	0	1.260	0	0	82
6	1	494	1	2	2	0.0500	0.0500	1	1	0.752	60	82	0
6	1	495	1	1	1	0.0500	0.0500	0	1	0.560	79	0	0
6	1	496	0	2	2	0.0500	0.0500	1	1	0.470	9	0	82
6	1	497	1	2	2	0.0500	0.0500	1	1	0.439	91	82	0
6	1	498	1	1	2	0.0500	0.0500	0	1	0.610	74	0	0
6	1	499	1	1	1	0.0500	0.0500	0	1	0.555	79	0	0
6	1	500	1	2	2	0.0500	0.0500	0	1	0.561	79	0	0
6	1	501	0	2	2	0.0500	0.0500	1	1	0.445	9	0	82
6	1	502	1	1	3	0.0500	0.0500	0	1	0.493	86	0	0
6	1	503	0	2	3	0.0500	0.0500	0	0	0.521	0	82	82
6	1	504	1	2	3	0.0500	0.0500	0	1	0.441	91	0	0
6	1	505	0	1	3	0.0500	0.0500	0	1	0.480	9	82	82
6	1	506	0	2	3	0.0500	0.0500	1	1	0.392	10	0	82
6	1	507	1	2	2	0.0500	0.0500	0	1	0.491	86	0	0
6	1	508	1	1	3	0.0500	0.0500	0	1	0.487	86	0	0
6	1	509	1	1	1	0.0500	0.0500	0	1	0.409	94	0	0
6	1	510	0	1	2	0.0500	0.0500	0	1	0.446	9	82	82
6	1	511	1	2	3	0.0500	0.0500	0	1	0.520	83	0	0
6	1	512	1	1	3	0.0500	0.0500	0	1	0.307	100	0	0
6	1	513	0	2	3	0.0500	0.0500	1	0	0.343	0	0	82
6	1	514	0	1	1	0.0500	0.0500	0	1	0.471	9	82	82
6	1	515	0	2	2	0.0500	0.0500	0	1	0.493	9	82	82
6	1	516	1	1	3	0.0500	0.0500	1	0	0.405	0	0	82
6	1	517	9	2	3	0.0500	0.0500	1	1	0.851	0	0	82
6	1	518	0	1	3	0.0500	0.0500	1	1	0.608	7	82	0
6	1	519	0	1	1	0.0500	0.0500	1	1	0.609	7	82	0
6	1	520	0	2	2	0.0500	0.0500	0	0	0.794	0	82	82
6	1	521	1	2	1	0.0500	0.0500	1	1	0.474	88	82	0
6	1	522	9	2	2	0.0500	0.0500	1	1	0.402	0	0	82
6	1	523	1	2	3	0.0500	0.0500	0	1	1.870	50	0	0
6	1	524	0	2	1	0.0500	0.0500	1	1	0.462	9	0	82
6	1	525	1	2	2	0.0500	0.0500	1	1	0.456	89	82	0
6	1	526	0	1	3	0.0500	0.0500	1	1	0.656	7	82	0
6	1	527	1	2	3	0.0500	0.0500	1	1	0.422	93	82	0
6	1	528	1	2	2	0.0500	0.0500	0	1	0.571	78	0	0
6	1	529	9	1	3	0.0500	0.0500	0	0	0.620	0	82	82
6	1	530	1	2	2	0.0500	0.0500	0	0	0.571	0	0	0
6	1	531	0	1	3	0.0500	0.0500	0	1	0.681	7	82	82
6	1	532	1	1	1	0.0500	0.0500	1	1	0.480	87	0	82
6	1	533	1	2	2	0.0500	0.0500	1	1	0.414	94	82	0
6	1	534	1	2	1	0.0500	0.0500	0	0	0.453	0	0	0
6	1	535	9	2	2	0.0500	0.0500	0	1	0.508	0	82	82
6	1	536	0	1	2	0.0500	0.0500	1	1	0.579	8	82	0
6	1	537	0	1	1	0.0500	0.0500	0	0	0.794	0	82	82
6	1	538	0	1	3	0.0500	0.0500	0	1	0.602	7	82	82
6	1	539	0	2	1	0.0500	0.0500	1	1	0.580	8	0	82
6	1	540	1	1	1	0.0500	0.0500	1	1	0.642	71	0	82
6	1	541	1	2	1	0.0500	0.0500	0	1	0.554	80	0	0
6	1	542	0	2	2	0.0500	0.0500	1	0	0.577	0	0	82
6	1	543	0	1	3	0.0500	0.0500	0	1	0.461	9	82	82
6	1	544	1	2	2	0.0500	0.0500	0	0	0.371	0	0	0
6	1	545	1	1	1	0.0500	0.0500	1	0	0.371	0	0	82
6	1	546	1	2	2	0.0500	0.0500	1	1	0.423	93	82	0
6	1	547	1	2	2	0.0500	0.0500	1	1	0.426	92	82	0
6	1	548	0	2	3	0.0500	0.0500	1	0	0.440	0	0	82
6	1	549	0	1	1	0.0500	0.0500	0	1	0.581	8	82	82
6	1	550	0	2	2	0.0500	0.0500	0	1	0.503	8	82	82
6	1	551	9	1	1	0.0500	0.0500	1	1	0.468	0	82	0
6	1	552	0	1	3	0.0500	0.0500	1	1	0.789	6	82	0
6	1	553	1	2	3	0.0500	0.0500	0	1	0.524	83	0	0
6	1	554	0	1	1	0.0500	0.0500	0	1	0.484	9	82	82
6	1	555	1	2	3	0.0500	0.0500	1	1	0.553	80	82	0
6	1	556	1	2	3	0.0500	0.0500	1	1	0.482	87	82	0
6	1	557	9	1	3	0.0500	0.0500	1	1	0.694	0	82	0
6	1	558	9	1	1	0.0500	0.0500	0	1	0.726	0	0	0
6	1	559	0	1	3	0.0500	0.0500	1	1	0.661	7	82	0
6	1	560	9	2	2	0.0500	0.0500	1	1	0.556	0	0	82
6	1	561	1	1	1	0.0500	0.0500	0	1	0.516	83	0	0
6	1	562	1	2	2	0.0500	0.0500	0	1	0.518	83	0	0
6	1	563	1	2	3	0.0500	0.0500	1	1	0.515	83	82	0
6	1	564	9	1	1	0.0500	0.0500	0	1	0.420	0	0	0
6	1	565	0	1	3	0.0500	0.0500	1	1	0.674	7	82	0
6	1	566	0	2	2	0.0500	0.0500	0	1	0.483	9	82	82
6	1	567	1	1	3	0.0500	0.0500	1	1	0.531	82	0	82
6	1	568	1	1	1	0.0500	0.0500	0	1	0.356	99	0	0
6	1	569	9	2	3	0.0500	0.0500	0	1	0.473	0	82	82
6	1	570	0	1	3	0.0500	0.0500	0	0	0.530	0	82	82
6	1	571	1	2	3	0.0500	0.0500	1	1	0.500	85	82	0
6	1	572	0	2	3	0.0500	0.0500	1	1	0.641	7	0	82
6	1	573	0	2	2	0.0500	0.0500	1	1	0.661	7	0	82
6	1	574	1	1	3	0.0500	0.0500	0	1	0.709	64	0	0
6	1	575	0	2	1	0.0500	0.0500	0	1	0.588	8	82	82
6	1	576	1	2	2	0.0500	0.0500	1	1	0.549	80	82	0
6	1	577	0	1	1	0.0500	0.0500	1	1	0.661	7	82	0
6	1	578	0	2	2	0.0500	0.0500	0	1	0.543	8	82	82
6	1	579	1	1	1	0.0500	0.0500	0	0	0.678	0	0	0
6	1	580	0	1	1	0.0500	0.0500	1	1	0.584	8	82	0
6	1	581	0	1	1	0.0500	0.0500	0	1	0.870	5	82	82
6	1	582	1	1	1	0.0500	0.0500	1	1	0.457	89	0	82
6	1	583	1	1	3	0.0500	0.0500	1	1	0.385	97	0	82
6	1	584	1	2	3	0.0500	0.0500	1	1	0.415	94	82	0
6	1	585	1	1	2	0.0500	0.0500	1	1	0.371	98	0	82
6	1	586	9	2	2	0.0500	0.0500	0	1	0.370	0	0	0
6	1	587	0	1	3	0.0500	0.0500	0	1	0.472	9	82	82
6	1	588	1	1	1	0.0500	0.0500	1	1	0.676	67	0	82
6	1	589	1	2	3	0.0500	0.0500	1	1	0.647	70	82	0
6	1	590	9	1	1	0.0500	0.0500	1	1	0.369	0	0	82
6	1	591	0	2	3	0.0500	0.0500	0	1	0.545	8	82	82
6	1	592	0	1	2	0.0500	0.0500	1	1	0.515	8	82	0
6	1	593	1	1	2	0.0500	0.0500	1	1	0.475	88	0	82
6	1	594	9	2	3	0.0500	0.0500	0	1	0.448	0	0	0
6	1	595	9	1	1	0.0500	0.0500	1	1	0.574	0	82	0
6	1	596	0	1	1	0.0500	0.0500	0	0	0.717	0	82	82
6	1	597	1	2	2	0.0500	0.0500	1	1	0.525	83	82	0
6	1	598	1	2	3	0.0500	0.0500	0	1	0.511	84	0	0
6	1	599	0	1	1	0.0500	0.0500	0	1	0.462	9	82	82
6	1	600	0	2	1	0.0500	0.0500	0	1	0.496	9	82	82
6	1	601	1	2	3	0.0500	0.0500	0	1	0.609	74	0	0
6	1	602	0	2	2	0.0500	0.0500	1	1	0.560	8	0	82
6	1	603	0	2	2	0.0500	0.0500	1	1	0.467	9	0	82
6	1	604	9	2	3	0.0500	0.0500	1	1	0.459	0	0	82
6	1	605	1	1	3	0.0500	0.0500	0	1	0.536	81	0	0
6	1	606	0	1	3	0.0500	0.0500	1	1	1.065	5	82	0
6	1	607	1	1	3	0.0500	0.0500	1	1	0.465	88	0	82
6	1	608	1	1	1	0.0500	0.0500	0	1	0.374	98	0	0
6	1	609	9	2	2	0.0500	0.0500	1	1	0.397	0	82	0
6	1	610	0	1	1	0.0500	0.0500	0	1	0.520	8	82	82
6	1	611	1	2	2	0.0500	0.0500	0	1	0.498	85	0	0
6	1	612	9	1	3	0.0500	0.0500	0	1	0.382	0	82	82
6	1	613	9	1	1	0.0500	0.0500	0	1	0.398	0	82	82
6	1	614	0	1	3	0.0500	0.0500	0	1	0.372	10	82	82
6	1	615	1	2	2	0.0500	0.0500	0	1	0.436	91	0	0
6	1	616	1	2	3	0.0500	0.0500	1	1	0.364	99	82	0
6	1	617	0	1	3	0.0500	0.0500	1	0	0.420	0	82	0
6	1	618	0	1	3	0.0500	0.0500	1	1	0.562	8	82	0
6	1	619	9	1	1	0.0500	0.0500	1	1	0.453	0	0	82
6	1	620	1	2	3	0.0500	0.0500	1	1	0.386	96	82	0
6	1	621	1	1	1	0.0500	0.0500	0	1	0.472	88	0	0
6	1	622	0	1	1	0.0500	0.0500	1	1	0.504	8	82	0
6	1	623	0	2	2	0.0500	0.0500	1	1	0.513	8	0	82
6	1	624	1	1	1	0.0500	0.0500	1	1	0.449	90	0	82
6	1	625	0	1	1	0.0500	0.0500	1	1	0.565	8	82	0
6	1	626	0	1	3	0.0500	0.0500	1	1	0.479	9	82	0
6	1	627	0	2	2	0.0500	0.0500	0	0	0.373	0	82	82
6	1	628	0	2	2	0.0500	0.0500	0	1	0.565	8	82	82
6	1	629	9	1	1	0.0500	0.0500	1	0	0.502	0	0	82
6	1	630	1	2	1	0.0500	0.0500	0	1	0.757	59	0	0
6	1	631	1	2	1	0.0500	0.0500	0	1	0.522	83	0	0
6	1	632	0	1	3	0.0500	0.0500	0	1	0.638	7	82	82
6	1	633	1	2	3	0.0500	0.0500	1	1	0.473	88	82	0
6	1	634	9	1	1	0.0500	0.0500	1	1	0.474	0	0	82
6	1	635	1	2	3	0.0500	0.0500	0	1	0.559	79	0	0
6	1	636	1	1	3	0.0500	0.0500	1	1	0.604	75	0	82
6	1	637	0	2	3	0.0500	0.0500	1	1	0.469	9	0	82
6	1	638	1	2	2	0.0500	0.0500	1	1	0.519	83	82	0
6	1	639	1	1	3	0.0500	0.0500	0	1	0.520	83	0	0
6	1	640	9	1	1	0.0500	0.0500	0	1	0.469	0	82	82
6	1	641	1	1	3	0.0500	0.0500	1	1	0.421	93	0	82
6	1	642	0	2	2	0.0500	0.0500	0	0	0.430	0	82	82
6	1	643	0	2	3	0.0500	0.0500	1	1	0.870	5	0	82
6	1	644	0	1	3	0.0500	0.0500	1	0	0.502	0	82	0
6	1	645	9	2	2	0.0500	0.0500	0	1	0.541	0	82	82
6	1	646	1	2	3	0.0500	0.0500	0	0	1.016	0	0	0
6	1	647	9	2	3	0.0500	0.0500	0	1	0.586	0	0	0
6	1	648	1	1	1	0.0500	0.0500	0	1	0.563	79	0	0
6	1	649	1	1	1	0.0500	0.0500	1	0	1.314	0	0	82
6	1	650	0	2	1	0.0500	0.0500	0	1	0.619	7	82	82
6	1	651	1	1	3	0.0500	0.0500	1	1	0.705	64	0	82
6	1	652	0	2	3	0.0500	0.0500	0	1	0.575	8	82	82
6	1	653	0	2	3	0.0500	0.0500	0	1	0.449	9	82	82
6	1	654	9	2	3	0.0500	0.0500	1	1	0.435	0	82	0
6	1	655	9	2	2	0.0500	0.0500	0	1	0.483	0	82	82
6	1	656	1	1	2	0.0500	0.0500	0	1	0.565	79	0	0
6	1	657	1	1	1	0.0500	0.0500	0	1	0.438	91	0	0
6	1	658	0	2	2	0.0500	0.0500	1	1	0.464	9	0	82
6	1	659	0	2	3	0.0500	0.0500	1	0	0.579	0	0	82
6	1	660	9	2	3	0.0500	0.0500	0	1	0.512	0	82	82
6	1	661	0	1	1	0.0500	0.0500	1	0	0.472	0	82	0
6	1	662	0	1	2	0.0500	0.0500	1	1	0.607	7	82	0
6	1	663	0	1	1	0.0500	0.0500	1	1	0.499	9	82	0
6	1	664	0	2	2	0.0500	0.0500	1	1	0.766	6	0	82
6	1	665	9	1	3	0.0500	0.0500	0	1	0.567	0	82	82
6	1	666	0	1	3	0.0500	0.0500	1	0	0.779	0	82	0
6	1	667	0	2	2	0.0500	0.0500	0	1	0.672	7	82	82
6	1	668	0	2	2	0.0500	0.0500	0	1	0.560	8	82	82
6	1	669	1	1	3	0.0500	0.0500	1	1	0.402	95	0	82
6	1	670	0	2	2	0.0500	0.0500	0	1	0.643	7	82	82
6	1	671	9	1	1	0.0500	0.0500	1	1	0.425	0	82	0
6	1	672	0	1	3	0.0500	0.0500	1	1	0.655	7	82	0
6	1	673	0	1	1	0.0500	0.0500	0	1	0.550	8	82	82
6	1	674	1	2	1	0.0500	0.0500	1	1	0.536	81	82	0
6	1	675	1	1	1	0.0500	0.0500	0	1	0.461	89	0	0
6	1	676	0	2	1	0.0500	0.0500	0	0	0.461	0	82	82
6	1	677	1	2	2	0.0500	0.0500	0	1	0.545	81	0	0
6	1	678	1	1	1	0.0500	0.0500	0	1	0.468	88	0	0
6	1	679	1	2	2	0.0500	0.0500	1	1	0.453	90	82	0
6	1	680	1	1	3	0.0500	0.0500	1	1	0.789	56	0	82
6	1	681	0	1	3	0.0500	0.0500	0	1	0.532	8	82	82
6	1	682	0	1	1	0.0500	0.0500	0	0	0.636	0	82	82
6	1	683	1	2	2	0.0500	0.0500	1	1	0.460	89	82	0
6	1	684	1	1	1	0.0500	0.0500	1	1	0.497	85	0	82
6	1	685	0	2	3	0.0500	0.0500	0	1	0.499	9	82	82
6	1	686	1	1	3	0.0500	0.0500	0	0	0.661	0	0	0
6	1	687	9	1	1	0.0500	0.0500	1	1	0.458	0	82	0
6	1	688	1	2	3	0.0500	0.0500	1	1	0.435	92	82	0
6	1	689	0	1	1	0.0500	0.0500	1	1	0.552	8	82	0
6	1	690	0	2	2	0.0500	0.0500	1	1	0.640	7	0	82
6	1	691	0	2	3	0.0500	0.0500	1	1	0.464	9	0	82
6	1	692	0	1	3	0.0500	0.0500	0	1	0.551	8	82	82
6	1	693	1	1	2	0.0500	0.0500	1	1	0.541	81	0	82
6	1	694	1	1	1	0.0500	0.0500	1	1	0.472	88	0	82
6	1	695	1	1	3	0.0500	0.0500	0	1	0.507	84	0	0
6	1	696	9	2	3	0.0500	0.0500	1	1	0.509	0	0	82
6	1	697	1	2	3	0.0500	0.0500	0	0	0.516	0	0	0
6	1	698	9	2	1	0.0500	0.0500	1	0	1.231	0	0	82
6	1	699	1	1	1	0.0500	0.0500	1	1	0.525	82	0	82
6	1	700	9	2	2	0.0500	0.0500	0	0	0.646	0	82	82
6	1	701	0	1	1	0.0500	0.0500	1	1	0.816	5	82	0
6	1	702	0	2	3	0.0500	0.0500	0	1	0.485	9	82	82
6	1	703	9	1	2	0.0500	0.0500	1	1	0.483	0	0	82
6	1	704	9	1	3	0.0500	0.0500	1	1	0.837	0	82	0
6	1	705	0	1	1	0.0500	0.0500	0	1	0.619	7	82	82
6	1	706	9	2	2	0.0500	0.0500	1	1	0.745	0	0	82
6	1	707	9	1	3	0.0500	0.0500	1	1	0.484	0	82	0
6	1	708	1	1	3	0.0500	0.0500	1	1	0.441	91	0	82
6	1	709	0	1	2	0.0500	0.0500	0	0	0.488	0	82	82
6	1	710	0	1	3	0.0500	0.0500	0	1	0.586	8	82	82
6	1	711	0	2	3	0.0500	0.0500	1	1	0.486	9	0	82
6	1	712	1	2	2	0.0500	0.0500	0	1	0.687	66	0	0
6	1	713	0	2	3	0.0500	0.0500	0	1	0.545	8	82	82
6	1	714	0	2	1	0.0500	0.0500	1	1	0.798	6	0	82
6	1	715	9	2	2	0.0500	0.0500	1	1	0.649	0	0	82
6	1	716	0	2	3	0.0500	0.0500	1	1	0.597	8	0	82
6	1	717	1	1	1	0.0500	0.0500	0	1	0.619	73	0	0
6	1	718	1	1	3	0.0500	0.0500	0	1	0.537	81	0	0
6	1	719	0	1	2	0.0500	0.0500	0	1	0.560	8	82	82
6	1	720	9	1	1	0.0500	0.0500	0	1	0.460	0	0	0
