sub	sess	t	rew	loc	cue	co1	co2	or	resp	rt	rew_tot	left_col	right_col
12	1	1	0	2	3	0.1753	0.0528	0	1	0.535	8	82	82
12	1	2	0	2	3	0.1753	0.0528	0	1	0.348	10	82	82
12	1	3	1	2	3	0.1753	0.0528	0	1	0.385	96	0	0
12	1	4	9	2	3	0.1753	0.0528	0	1	0.333	0	0	0
12	1	5	9	1	1	0.1753	0.0528	0	0	0.489	0	82	82
12	1	6	1	2	1	0.1753	0.0528	0	1	0.368	98	0	0
12	1	7	1	1	2	0.1753	0.0528	1	0	0.434	0	0	82
12	1	8	0	1	3	0.1753	0.0528	1	1	0.496	9	82	0
12	1	9	1	1	3	0.1753	0.0528	0	1	0.367	98	0	0
12	1	10	0	1	1	0.1753	0.0528	1	0	0.442	0	82	0
12	1	11	0	1	1	0.1753	0.0528	0	1	0.426	9	82	82
12	1	12	9	2	2	0.1753	0.0528	0	1	0.409	0	82	82
12	1	13	0	1	3	0.1753	0.0528	0	1	0.498	9	82	82
12	1	14	9	1	2	0.1753	0.0528	1	1	0.350	0	0	82
12	1	15	1	2	1	0.1753	0.0528	0	1	0.386	96	0	0
12	1	16	0	2	2	0.1753	0.0528	0	1	0.396	10	82	82
12	1	17	1	2	3	0.1753	0.0528	1	1	0.516	83	82	0
12	1	18	0	1	3	0.1753	0.0528	0	1	0.479	9	82	82
12	1	19	1	1	3	0.1753	0.0528	0	1	0.535	82	0	0
12	1	20	1	1	1	0.1753	0.0528	0	1	0.328	100	0	0
12	1	21	1	2	2	0.1753	0.0528	1	1	0.563	79	82	0
12	1	22	0	2	2	0.1753	0.0528	0	1	0.359	10	82	82
12	1	23	1	2	2	0.1753	0.0528	0	1	0.427	92	0	0
12	1	24	0	1	3	0.1753	0.0528	0	1	0.338	10	82	82
12	1	25	1	1	3	0.1753	0.0528	0	1	0.364	99	0	0
12	1	26	0	1	1	0.1753	0.0528	1	1	0.534	8	82	0
12	1	27	1	2	2	0.1753	0.0528	1	1	0.459	89	82	0
12	1	28	1	1	3	0.1753	0.0528	1	1	0.531	82	0	82
12	1	29	0	1	1	0.1753	0.0528	0	1	0.415	9	82	82
12	1	30	1	1	2	0.1753	0.0528	0	0	0.447	0	0	0
12	1	31	1	1	3	0.1753	0.0528	1	1	0.486	86	0	82
12	1	32	0	1	1	0.1753	0.0528	0	1	0.300	10	82	82
12	1	33	0	2	1	0.1753	0.0528	1	1	0.795	6	0	82
12	1	34	1	2	2	0.1753	0.0528	0	1	0.371	98	0	0
12	1	35	1	1	3	0.1753	0.0528	1	1	0.446	90	0	82
12	1	36	9	2	2	0.1753	0.0528	0	1	0.390	0	82	82
12	1	37	1	2	3	0.1753	0.0528	1	1	0.662	69	82	0
12	1	38	1	1	1	0.1753	0.0528	0	1	0.389	96	0	0
12	1	39	1	1	3	0.1753	0.0528	0	1	0.321	100	0	0
12	1	40	1	2	3	0.1753	0.0528	0	0	0.620	0	0	0
12	1	41	1	2	3	0.1753	0.0528	1	1	0.573	78	82	0
12	1	42	1	2	2	0.1753	0.0528	0	1	0.383	97	0	0
12	1	43	1	2	3	0.1753	0.0528	1	1	0.434	92	82	0
12	1	44	9	1	3	0.1753	0.0528	1	0	0.793	0	82	0
12	1	45	0	2	2	0.1753	0.0528	1	1	0.796	6	0	82
12	1	46	0	1	3	0.1753	0.0528	0	1	0.452	9	82	82
12	1	47	0	1	3	0.1753	0.0528	1	1	0.699	7	82	0
12	1	48	9	1	3	0.1753	0.0528	0	1	0.496	0	0	0
12	1	49	0	1	1	0.1753	0.0528	0	1	0.468	9	82	82
12	1	50	1	1	3	0.1753	0.0528	1	1	0.466	88	0	82
12	1	51	0	2	3	0.1753	0.0528	1	1	0.771	6	0	82
12	1	52	0	1	1	0.1753	0.0528	1	1	0.388	10	82	0
12	1	53	0	1	3	0.1753	0.0528	1	1	0.678	7	82	0
12	1	54	1	1	3	0.1753	0.0528	1	0	0.365	0	0	82
12	1	55	0	1	1	0.1753	0.0528	1	1	0.480	9	82	0
12	1	56	9	2	2	0.1753	0.0528	1	1	1.637	0	82	0
12	1	57	0	1	1	0.1753	0.0528	0	1	0.340	10	82	82
12	1	58	1	1	3	0.1753	0.0528	0	1	0.272	100	0	0
12	1	59	0	2	2	0.1753	0.0528	1	0	1.081	0	0	82
12	1	60	1	2	3	0.1753	0.0528	1	1	0.576	77	82	0
12	1	61	0	2	3	0.1753	0.0528	1	0	0.587	0	0	82
12	1	62	1	1	1	0.1753	0.0528	1	1	0.543	81	0	82
12	1	63	1	1	1	0.1753	0.0528	0	1	0.508	84	0	0
12	1	64	1	2	2	0.1753	0.0528	0	1	0.440	91	0	0
12	1	65	0	1	3	0.1753	0.0528	1	1	0.655	7	82	0
12	1	66	1	1	1	0.1753	0.0528	0	1	0.373	98	0	0
12	1	67	0	2	2	0.1753	0.0528	0	1	0.439	9	82	82
12	1	68	0	1	1	0.1753	0.0528	0	1	0.328	10	82	82
12	1	69	1	1	1	0.1753	0.0528	1	0	0.346	0	0	82
12	1	70	1	2	3	0.1753	0.0528	0	1	0.391	96	0	0
12	1	71	1	1	1	0.1753	0.0528	0	1	0.330	100	0	0
12	1	72	0	1	2	0.1753	0.0528	0	0	0.567	0	82	82
12	1	73	0	1	2	0.1753	0.0528	0	1	0.386	10	82	82
12	1	74	1	1	3	0.1753	0.0528	1	0	0.261	0	0	82
12	1	75	0	1	1	0.1753	0.0528	1	1	0.597	8	82	0
12	1	76	0	2	2	0.1753	0.0528	1	1	0.800	6	0	82
12	1	77	9	1	1	0.1753	0.0528	0	1	0.577	0	82	82
12	1	78	0	2	2	0.1753	0.0528	1	0	0.690	0	0	82
12	1	79	0	2	3	0.1753	0.0528	0	1	0.662	7	82	82
12	1	80	0	2	2	0.1753	0.0528	0	1	0.397	10	82	82
12	1	81	0	2	2	0.1753	0.0528	1	0	0.509	0	0	82
12	1	82	0	2	2	0.1753	0.0528	0	1	0.370	10	82	82
12	1	83	0	1	1	0.1753	0.0528	1	0	0.660	0	82	0
12	1	84	9	2	2	0.1753	0.0528	0	1	0.427	0	0	0
12	1	85	0	1	3	0.1753	0.0528	0	1	0.499	9	82	82
12	1	86	0	1	1	0.1753	0.0528	1	1	0.694	7	82	0
12	1	87	1	2	3	0.1753	0.0528	1	1	0.637	71	82	0
12	1	88	0	1	2	0.1753	0.0528	0	1	0.365	10	82	82
12	1	89	1	1	1	0.1753	0.0528	1	1	0.530	82	0	82
12	1	90	0	1	3	0.1753	0.0528	1	1	0.528	8	82	0
12	1	91	1	1	3	0.1753	0.0528	1	1	0.546	80	0	82
12	1	92	1	2	2	0.1753	0.0528	0	1	0.428	92	0	0
12	1	93	9	1	3	0.1753	0.0528	1	1	0.459	0	82	0
12	1	94	0	2	2	0.1753	0.0528	1	1	0.723	6	0	82
12	1	95	1	2	2	0.1753	0.0528	0	1	0.375	97	0	0
12	1	96	1	2	2	0.1753	0.0528	0	1	0.361	99	0	0
12	1	97	0	2	3	0.1753	0.0528	1	0	0.461	0	0	82
12	1	98	1	2	3	0.1753	0.0528	1	0	0.454	0	82	0
12	1	99	9	1	3	0.1753	0.0528	0	1	0.398	0	0	0
12	1	100	9	2	3	0.1753	0.0528	0	1	0.366	0	82	82
12	1	101	0	1	2	0.1753	0.0528	1	1	0.508	8	82	0
12	1	102	9	1	1	0.1753	0.0528	0	1	0.290	0	82	82
12	1	103	1	2	2	0.1753	0.0528	1	1	0.376	97	82	0
12	1	104	1	1	1	0.1753	0.0528	0	1	0.257	100	0	0
12	1	105	1	1	1	0.1753	0.0528	1	0	0.336	0	0	82
12	1	106	0	2	2	0.1753	0.0528	0	1	0.403	9	82	82
12	1	107	0	1	3	0.1753	0.0528	0	0	0.364	0	82	82
12	1	108	1	2	2	0.1753	0.0528	0	1	0.368	98	0	0
12	1	109	1	1	1	0.1753	0.0528	0	1	0.364	99	0	0
12	1	110	9	1	1	0.1753	0.0528	1	0	0.309	0	82	0
12	1	111	1	2	3	0.1753	0.0528	1	0	0.682	0	82	0
12	1	112	1	2	3	0.1753	0.0528	0	1	0.407	94	0	0
12	1	113	9	2	2	0.1753	0.0528	0	1	0.368	0	0	0
12	1	114	1	1	3	0.1753	0.0528	0	1	0.370	98	0	0
12	1	115	9	2	3	0.1753	0.0528	1	1	0.446	0	0	82
12	1	116	1	1	2	0.1753	0.0528	1	0	0.485	0	0	82
12	1	117	9	2	2	0.1753	0.0528	0	1	0.346	0	82	82
12	1	118	0	1	3	0.1753	0.0528	1	1	0.327	10	82	0
12	1	119	1	1	1	0.1753	0.0528	1	0	0.236	0	0	82
12	1	120	9	1	3	0.1753	0.0528	0	1	0.260	0	82	82
12	1	121	9	1	1	0.1753	0.0528	0	1	0.261	0	0	0
12	1	122	0	2	2	0.1753	0.0528	0	0	0.372	0	82	82
12	1	123	9	1	3	0.1753	0.0528	0	1	0.287	0	82	82
12	1	124	9	1	1	0.1753	0.0528	0	1	0.295	0	0	0
12	1	125	0	2	3	0.1753	0.0528	1	0	0.334	0	0	82
12	1	126	1	1	1	0.1753	0.0528	1	1	0.340	100	0	82
12	1	127	1	2	1	0.1753	0.0528	0	1	0.290	100	0	0
12	1	128	1	2	3	0.1753	0.0528	0	1	0.256	100	0	0
12	1	129	0	2	3	0.1753	0.0528	0	1	0.253	10	82	82
12	1	130	1	2	3	0.1753	0.0528	1	1	0.244	100	82	0
12	1	131	9	1	1	0.1753	0.0528	1	0	0.243	0	0	82
12	1	132	0	2	3	0.1753	0.0528	1	1	0.285	10	0	82
12	1	133	9	2	2	0.1753	0.0528	0	1	0.228	0	0	0
12	1	134	0	2	3	0.1753	0.0528	0	0	0.107	0	82	82
12	1	135	9	2	2	0.1753	0.0528	1	0	0.279	0	0	82
12	1	136	0	2	3	0.1753	0.0528	1	0	0.342	0	0	82
12	1	137	1	2	2	0.1753	0.0528	1	1	0.249	100	82	0
12	1	138	1	1	1	0.1753	0.0528	0	0	0.233	0	0	0
12	1	139	1	2	3	0.1753	0.0528	1	0	0.336	0	82	0
12	1	140	0	2	3	0.1753	0.0528	0	1	0.331	10	82	82
12	1	141	0	2	2	0.1753	0.0528	0	1	0.288	10	82	82
12	1	142	0	1	3	0.1753	0.0528	1	0	0.261	0	82	0
12	1	143	9	1	1	0.1753	0.0528	0	1	0.324	0	0	0
12	1	144	0	2	2	0.1753	0.0528	1	0	0.410	0	0	82
12	1	145	1	1	1	0.1753	0.0528	0	1	0.436	91	0	0
12	1	146	9	2	3	0.1753	0.0528	0	1	0.380	0	0	0
12	1	147	9	1	3	0.1753	0.0528	0	1	0.309	0	0	0
12	1	148	1	2	3	0.1753	0.0528	0	1	0.353	100	0	0
12	1	149	1	1	3	0.1753	0.0528	1	1	0.476	87	0	82
12	1	150	0	2	3	0.1753	0.0528	1	0	0.297	0	0	82
12	1	151	0	2	1	0.1753	0.0528	1	0	0.352	0	0	82
12	1	152	0	2	3	0.1753	0.0528	1	1	0.516	8	0	82
12	1	153	1	2	3	0.1753	0.0528	0	1	0.377	97	0	0
12	1	154	0	1	3	0.1753	0.0528	1	1	0.337	10	82	0
12	1	155	1	2	3	0.1753	0.0528	0	1	0.327	100	0	0
12	1	156	9	1	1	0.1753	0.0528	0	0	0.498	0	82	82
12	1	157	1	2	3	0.1753	0.0528	0	0	0.271	0	0	0
12	1	158	9	2	2	0.1753	0.0528	1	1	0.360	0	0	82
12	1	159	9	1	3	0.1753	0.0528	0	1	0.594	0	82	82
12	1	160	1	2	1	0.1753	0.0528	1	0	0.292	0	82	0
12	1	161	9	2	1	0.1753	0.0528	0	1	0.258	0	0	0
12	1	162	0	2	2	0.1753	0.0528	0	0	0.384	0	82	82
12	1	163	9	1	1	0.1753	0.0528	1	0	0.364	0	82	0
12	1	164	0	2	1	0.1753	0.0528	1	0	0.316	0	0	82
12	1	165	1	2	2	0.1753	0.0528	0	1	0.507	84	0	0
12	1	166	1	2	1	0.1753	0.0528	1	0	0.432	0	82	0
12	1	167	0	1	1	0.1753	0.0528	1	1	0.586	8	82	0
12	1	168	9	1	3	0.1753	0.0528	1	0	0.331	0	82	0
12	1	169	9	1	3	0.1753	0.0528	0	1	0.473	0	0	0
12	1	170	1	1	1	0.1753	0.0528	1	1	0.473	88	0	82
12	1	171	1	1	1	0.1753	0.0528	1	1	0.449	90	0	82
12	1	172	0	1	2	0.1753	0.0528	1	1	0.506	8	82	0
12	1	173	0	1	3	0.1753	0.0528	1	1	0.414	9	82	0
12	1	174	9	2	3	0.1753	0.0528	0	1	0.400	0	0	0
12	1	175	0	1	3	0.1753	0.0528	0	0	0.338	0	82	82
12	1	176	0	2	2	0.1753	0.0528	1	1	0.365	10	0	82
12	1	177	0	2	1	0.1753	0.0528	0	1	0.318	10	82	82
12	1	178	9	1	1	0.1753	0.0528	1	1	0.458	0	0	82
12	1	179	1	2	3	0.1753	0.0528	0	1	0.352	100	0	0
12	1	180	1	1	1	0.1753	0.0528	1	1	0.419	93	0	82
12	1	181	1	1	3	0.1753	0.0528	1	0	0.399	0	0	82
12	1	182	1	1	2	0.1753	0.0528	0	0	0.295	0	0	0
12	1	183	1	1	1	0.1753	0.0528	1	1	0.411	94	0	82
12	1	184	0	2	1	0.1753	0.0528	1	0	0.389	0	0	82
12	1	185	0	1	3	0.1753	0.0528	1	1	0.421	9	82	0
12	1	186	1	2	3	0.1753	0.0528	1	0	0.406	0	82	0
12	1	187	9	2	2	0.1753	0.0528	1	1	0.457	0	82	0
12	1	188	1	1	1	0.1753	0.0528	1	1	0.456	89	0	82
12	1	189	0	2	3	0.1753	0.0528	0	1	0.374	10	82	82
12	1	190	9	2	2	0.1753	0.0528	1	1	0.369	0	82	0
12	1	191	1	1	2	0.1753	0.0528	0	1	0.683	67	0	0
12	1	192	1	1	1	0.1753	0.0528	1	1	0.266	100	0	82
12	1	193	1	1	2	0.1753	0.0528	1	1	0.279	100	0	82
12	1	194	0	1	3	0.1753	0.0528	0	1	0.310	10	82	82
12	1	195	0	2	3	0.1753	0.0528	0	0	0.245	0	82	82
12	1	196	1	2	3	0.1753	0.0528	0	1	0.023	100	0	0
12	1	197	0	1	3	0.1753	0.0528	1	1	0.304	10	82	0
12	1	198	1	2	2	0.1753	0.0528	0	1	0.326	100	0	0
12	1	199	0	1	1	0.1753	0.0528	0	1	0.273	10	82	82
12	1	200	9	2	3	0.1753	0.0528	0	0	0.129	0	82	82
12	1	201	0	1	1	0.1753	0.0528	1	0	0.496	0	82	0
12	1	202	9	2	3	0.1753	0.0528	1	1	0.568	0	0	82
12	1	203	1	2	3	0.1753	0.0528	0	1	0.387	96	0	0
12	1	204	9	1	3	0.1753	0.0528	1	1	0.415	0	0	82
12	1	205	0	1	2	0.1753	0.0528	1	1	0.511	8	82	0
12	1	206	1	1	3	0.1753	0.0528	0	0	0.365	0	0	0
12	1	207	0	2	3	0.1753	0.0528	1	0	0.545	0	0	82
12	1	208	0	2	3	0.1753	0.0528	1	0	0.564	0	0	82
12	1	209	1	2	2	0.1753	0.0528	1	1	0.364	99	82	0
12	1	210	1	2	2	0.1753	0.0528	1	1	0.438	91	82	0
12	1	211	1	2	2	0.1753	0.0528	0	1	0.372	98	0	0
12	1	212	0	2	3	0.1753	0.0528	1	0	0.373	0	0	82
12	1	213	0	1	1	0.1753	0.0528	1	0	0.408	0	82	0
12	1	214	0	1	3	0.1753	0.0528	1	1	0.463	9	82	0
12	1	215	9	1	3	0.1753	0.0528	0	1	0.324	0	82	82
12	1	216	0	2	3	0.1753	0.0528	0	1	0.642	7	82	82
12	1	217	1	1	1	0.1753	0.0528	0	0	0.227	0	0	0
12	1	218	0	2	2	0.1753	0.0528	1	0	0.300	0	0	82
12	1	219	9	1	2	0.1753	0.0528	0	1	0.339	0	0	0
12	1	220	0	2	3	0.1753	0.0528	0	1	0.406	9	82	82
12	1	221	1	1	3	0.1753	0.0528	1	0	0.234	0	0	82
12	1	222	9	1	1	0.1753	0.0528	1	1	0.369	0	0	82
12	1	223	9	2	3	0.1753	0.0528	1	0	0.308	0	82	0
12	1	224	1	1	1	0.1753	0.0528	0	0	0.332	0	0	0
12	1	225	1	2	2	0.1753	0.0528	0	1	0.383	97	0	0
12	1	226	9	2	2	0.1753	0.0528	1	1	0.419	0	82	0
12	1	227	1	1	3	0.1753	0.0528	1	1	0.428	92	0	82
12	1	228	0	2	2	0.1753	0.0528	0	1	0.411	9	82	82
12	1	229	0	1	3	0.1753	0.0528	1	1	0.332	10	82	0
12	1	230	0	2	3	0.1753	0.0528	1	0	0.512	0	0	82
12	1	231	1	2	1	0.1753	0.0528	1	0	0.534	0	82	0
12	1	232	1	1	1	0.1753	0.0528	0	1	0.378	97	0	0
12	1	233	9	1	3	0.1753	0.0528	1	1	0.412	0	0	82
12	1	234	0	2	3	0.1753	0.0528	1	0	0.463	0	0	82
12	1	235	9	2	1	0.1753	0.0528	1	0	0.391	0	82	0
12	1	236	1	2	2	0.1753	0.0528	0	1	0.425	92	0	0
12	1	237	0	1	1	0.1753	0.0528	1	1	0.505	8	82	0
12	1	238	0	2	3	0.1753	0.0528	1	1	0.480	9	0	82
12	1	239	1	1	1	0.1753	0.0528	1	1	0.502	85	0	82
12	1	240	9	1	3	0.1753	0.0528	1	1	0.397	0	82	0
12	1	241	0	1	1	0.1753	0.0528	0	1	0.394	10	82	82
12	1	242	0	2	1	0.1753	0.0528	0	1	0.387	10	82	82
12	1	243	9	2	1	0.1753	0.0528	1	0	0.675	0	0	82
12	1	244	9	1	2	0.1753	0.0528	1	1	0.418	0	82	0
12	1	245	1	2	3	0.1753	0.0528	1	1	0.515	84	82	0
12	1	246	1	2	2	0.1753	0.0528	1	1	0.415	93	82	0
12	1	247	1	2	2	0.1753	0.0528	1	1	0.464	89	82	0
12	1	248	1	2	3	0.1753	0.0528	0	1	0.365	98	0	0
12	1	249	0	1	1	0.1753	0.0528	1	1	0.272	10	82	0
12	1	250	9	2	2	0.1753	0.0528	1	0	0.382	0	0	82
12	1	251	0	1	1	0.1753	0.0528	1	1	0.386	10	82	0
12	1	252	9	1	3	0.1753	0.0528	1	1	0.434	0	0	82
12	1	253	1	1	1	0.1753	0.0528	0	0	0.275	0	0	0
12	1	254	1	1	2	0.1753	0.0528	1	1	0.459	89	0	82
12	1	255	1	1	3	0.1753	0.0528	0	1	0.481	87	0	0
12	1	256	0	1	1	0.1753	0.0528	0	1	0.423	9	82	82
12	1	257	1	2	3	0.1753	0.0528	0	1	0.496	85	0	0
12	1	258	9	1	1	0.1753	0.0528	0	1	0.454	0	0	0
12	1	259	1	2	2	0.1753	0.0528	1	1	0.542	81	82	0
12	1	260	1	2	2	0.1753	0.0528	1	1	0.347	100	82	0
12	1	261	0	1	3	0.1753	0.0528	0	1	0.367	10	82	82
12	1	262	0	2	1	0.1753	0.0528	0	1	0.330	10	82	82
12	1	263	0	2	2	0.1753	0.0528	1	0	0.575	0	0	82
12	1	264	0	2	2	0.1753	0.0528	1	1	0.370	10	0	82
12	1	265	0	2	2	0.1753	0.0528	1	1	0.380	10	0	82
12	1	266	9	2	3	0.1753	0.0528	1	1	0.367	0	82	0
12	1	267	0	1	1	0.1753	0.0528	0	1	0.296	10	82	82
12	1	268	9	2	3	0.1753	0.0528	1	1	0.534	0	0	82
12	1	269	0	2	3	0.1753	0.0528	0	1	0.460	9	82	82
12	1	270	1	2	2	0.1753	0.0528	1	1	0.291	100	82	0
12	1	271	1	2	1	0.1753	0.0528	0	1	0.511	84	0	0
12	1	272	1	2	2	0.1753	0.0528	1	1	0.450	90	82	0
12	1	273	0	1	1	0.1753	0.0528	0	1	0.819	5	82	82
12	1	274	9	2	2	0.1753	0.0528	1	0	0.547	0	0	82
12	1	275	1	1	3	0.1753	0.0528	0	1	0.294	100	0	0
12	1	276	9	2	3	0.1753	0.0528	1	1	0.253	0	82	0
12	1	277	0	2	3	0.1753	0.0528	1	1	0.499	9	0	82
12	1	278	0	1	1	0.1753	0.0528	1	0	0.431	0	82	0
12	1	279	0	1	3	0.1753	0.0528	0	0	0.471	0	82	82
12	1	280	1	1	3	0.1753	0.0528	0	1	0.260	100	0	0
12	1	281	0	1	1	0.1753	0.0528	1	1	0.410	9	82	0
12	1	282	1	2	3	0.1753	0.0528	1	0	0.442	0	82	0
12	1	283	9	1	2	0.1753	0.0528	0	0	0.443	0	82	82
12	1	284	0	2	3	0.1753	0.0528	0	1	0.372	10	82	82
12	1	285	0	1	3	0.1753	0.0528	0	1	0.527	8	82	82
12	1	286	0	2	2	0.1753	0.0528	1	0	0.457	0	0	82
12	1	287	1	1	1	0.1753	0.0528	1	1	0.403	95	0	82
12	1	288	1	1	3	0.1753	0.0528	0	1	0.340	100	0	0
12	1	289	0	2	3	0.1753	0.0528	0	0	0.298	0	82	82
12	1	290	9	2	3	0.1753	0.0528	0	1	0.360	0	82	82
12	1	291	0	2	2	0.1753	0.0528	0	1	0.446	9	82	82
12	1	292	0	1	1	0.1753	0.0528	0	1	0.366	10	82	82
12	1	293	1	2	2	0.1753	0.0528	0	1	0.513	84	0	0
12	1	294	9	2	3	0.1753	0.0528	1	1	0.371	0	82	0
12	1	295	1	1	1	0.1753	0.0528	0	1	0.368	98	0	0
12	1	296	1	1	2	0.1753	0.0528	0	0	0.297	0	0	0
12	1	297	1	1	3	0.1753	0.0528	1	0	0.308	0	0	82
12	1	298	0	2	3	0.1753	0.0528	0	1	0.352	10	82	82
12	1	299	0	1	3	0.1753	0.0528	1	1	0.298	10	82	0
12	1	300	0	1	1	0.1753	0.0528	0	1	0.303	10	82	82
12	1	301	1	1	1	0.1753	0.0528	1	1	0.370	98	0	82
12	1	302	1	1	1	0.1753	0.0528	0	1	0.270	100	0	0
12	1	303	0	1	1	0.1753	0.0528	0	0	0.309	0	82	82
12	1	304	0	2	2	0.1753	0.0528	1	1	0.667	7	0	82
12	1	305	0	1	1	0.1753	0.0528	1	1	0.452	9	82	0
12	1	306	1	2	3	0.1753	0.0528	0	1	0.378	97	0	0
12	1	307	9	2	1	0.1753	0.0528	0	1	0.422	0	82	82
12	1	308	9	1	1	0.1753	0.0528	1	0	0.472	0	0	82
12	1	309	9	1	1	0.1753	0.0528	1	1	0.294	0	82	0
12	1	310	9	2	2	0.1753	0.0528	0	1	0.364	0	82	82
12	1	311	9	2	3	0.1753	0.0528	0	1	0.373	0	0	0
12	1	312	0	2	3	0.1753	0.0528	1	0	0.351	0	0	82
12	1	313	1	1	3	0.1753	0.0528	0	1	0.328	100	0	0
12	1	314	1	2	3	0.1753	0.0528	1	1	0.235	100	82	0
12	1	315	1	2	2	0.1753	0.0528	1	0	0.394	0	82	0
12	1	316	0	2	2	0.1753	0.0528	0	1	0.438	9	82	82
12	1	317	0	2	2	0.1753	0.0528	0	1	0.332	10	82	82
12	1	318	0	2	2	0.1753	0.0528	0	1	0.290	10	82	82
12	1	319	0	1	2	0.1753	0.0528	0	1	0.329	10	82	82
12	1	320	9	1	3	0.1753	0.0528	1	0	0.230	0	0	82
12	1	321	1	2	3	0.1753	0.0528	1	0	0.400	0	82	0
12	1	322	9	2	2	0.1753	0.0528	0	1	0.369	0	0	0
12	1	323	1	1	3	0.1753	0.0528	1	1	0.412	94	0	82
12	1	324	0	1	3	0.1753	0.0528	1	1	0.378	10	82	0
12	1	325	0	1	3	0.1753	0.0528	1	1	0.452	9	82	0
12	1	326	1	1	3	0.1753	0.0528	0	1	0.220	100	0	0
12	1	327	1	2	3	0.1753	0.0528	1	1	0.252	100	82	0
12	1	328	0	1	3	0.1753	0.0528	0	1	0.491	9	82	82
12	1	329	1	1	3	0.1753	0.0528	0	0	0.296	0	0	0
12	1	330	1	2	2	0.1753	0.0528	1	1	0.005	100	82	0
12	1	331	1	1	1	0.1753	0.0528	0	1	0.258	100	0	0
12	1	332	0	2	3	0.1753	0.0528	0	1	0.304	10	82	82
12	1	333	9	2	3	0.1753	0.0528	1	0	0.373	0	0	82
12	1	334	1	1	3	0.1753	0.0528	1	1	0.424	93	0	82
12	1	335	0	2	2	0.1753	0.0528	1	0	0.320	0	0	82
12	1	336	0	1	3	0.1753	0.0528	0	0	0.325	0	82	82
12	1	337	0	2	2	0.1753	0.0528	0	1	0.385	10	82	82
12	1	338	9	2	3	0.1753	0.0528	0	1	0.354	0	82	82
12	1	339	9	1	1	0.1753	0.0528	1	0	0.277	0	82	0
12	1	340	1	2	1	0.1753	0.0528	1	1	0.308	100	82	0
12	1	341	0	2	2	0.1753	0.0528	0	1	0.367	10	82	82
12	1	342	1	1	1	0.1753	0.0528	1	0	0.273	0	0	82
12	1	343	0	1	1	0.1753	0.0528	0	1	0.279	10	82	82
12	1	344	1	2	2	0.1753	0.0528	0	0	0.270	0	0	0
12	1	345	0	1	3	0.1753	0.0528	0	1	0.709	6	82	82
12	1	346	1	2	3	0.1753	0.0528	0	1	0.372	98	0	0
12	1	347	0	2	3	0.1753	0.0528	0	1	0.689	7	82	82
12	1	348	1	1	3	0.1753	0.0528	1	1	0.256	100	0	82
12	1	349	1	2	2	0.1753	0.0528	1	0	0.288	0	82	0
12	1	350	1	2	2	0.1753	0.0528	0	1	0.318	100	0	0
12	1	351	0	2	2	0.1753	0.0528	1	1	0.228	10	0	82
12	1	352	0	1	2	0.1753	0.0528	1	1	-0.132	10	82	0
12	1	353	0	2	1	0.1753	0.0528	0	1	0.264	10	82	82
12	1	354	0	1	1	0.1753	0.0528	0	0	0.225	0	82	82
12	1	355	1	1	3	0.1753	0.0528	0	1	0.248	100	0	0
12	1	356	0	1	3	0.1753	0.0528	0	1	0.375	10	82	82
12	1	357	0	1	3	0.1753	0.0528	0	0	0.008	0	82	82
12	1	358	1	1	3	0.1753	0.0528	0	1	0.252	100	0	0
12	1	359	1	2	2	0.1753	0.0528	1	1	0.252	100	82	0
12	1	360	1	1	3	0.1753	0.0528	1	0	0.299	0	0	82
12	1	361	9	1	3	0.1753	0.0528	1	1	0.437	0	0	82
12	1	362	9	1	1	0.1753	0.0528	0	1	0.246	0	82	82
12	1	363	1	2	3	0.1753	0.0528	0	0	0.278	0	0	0
12	1	364	9	1	1	0.1753	0.0528	0	0	0.067	0	82	82
12	1	365	1	1	1	0.1753	0.0528	0	0	0.237	0	0	0
12	1	366	0	1	3	0.1753	0.0528	0	1	0.324	10	82	82
12	1	367	1	1	3	0.1753	0.0528	0	1	0.319	100	0	0
12	1	368	1	1	3	0.1753	0.0528	0	1	0.261	100	0	0
12	1	369	1	2	3	0.1753	0.0528	1	1	0.284	100	82	0
12	1	370	1	1	1	0.1753	0.0528	1	0	0.284	0	0	82
12	1	371	1	2	1	0.1753	0.0528	0	1	0.274	100	0	0
12	1	372	1	1	2	0.1753	0.0528	1	1	0.313	100	0	82
12	1	373	1	2	2	0.1753	0.0528	1	1	0.278	100	82	0
12	1	374	9	1	3	0.1753	0.0528	0	1	0.194	0	0	0
12	1	375	1	1	3	0.1753	0.0528	0	1	0.275	100	0	0
12	1	376	9	1	2	0.1753	0.0528	1	1	0.202	0	82	0
12	1	377	1	2	3	0.1753	0.0528	1	1	0.259	100	82	0
12	1	378	0	1	1	0.1753	0.0528	0	1	0.034	10	82	82
12	1	379	0	1	3	0.1753	0.0528	0	1	0.269	10	82	82
12	1	380	0	2	2	0.1753	0.0528	1	1	0.258	10	0	82
12	1	381	0	2	1	0.1753	0.0528	1	1	0.413	9	0	82
12	1	382	1	1	1	0.1753	0.0528	1	0	0.214	0	0	82
12	1	383	0	2	2	0.1753	0.0528	1	1	0.566	8	0	82
12	1	384	9	1	3	0.1753	0.0528	0	0	0.255	0	82	82
12	1	385	1	1	3	0.1753	0.0528	0	0	0.271	0	0	0
12	1	386	0	1	3	0.1753	0.0528	0	1	0.336	10	82	82
12	1	387	0	2	1	0.1753	0.0528	1	0	0.301	0	0	82
12	1	388	9	1	3	0.1753	0.0528	0	1	0.267	0	0	0
12	1	389	0	2	3	0.1753	0.0528	1	1	0.522	8	0	82
12	1	390	1	2	1	0.1753	0.0528	1	1	0.265	100	82	0
12	1	391	0	2	2	0.1753	0.0528	1	0	0.431	0	0	82
12	1	392	0	2	2	0.1753	0.0528	0	0	0.255	0	82	82
12	1	393	0	1	1	0.1753	0.0528	1	1	0.310	10	82	0
12	1	394	0	2	2	0.1753	0.0528	1	0	0.444	0	0	82
12	1	395	1	2	2	0.1753	0.0528	0	0	0.269	0	0	0
12	1	396	1	1	3	0.1753	0.0528	0	1	0.362	99	0	0
12	1	397	1	2	2	0.1753	0.0528	0	0	0.253	0	0	0
12	1	398	1	1	1	0.1753	0.0528	1	0	0.219	0	0	82
12	1	399	1	2	3	0.1753	0.0528	1	1	-0.021	100	82	0
12	1	400	1	2	2	0.1753	0.0528	0	0	0.461	0	0	0
12	1	401	1	2	1	0.1753	0.0528	0	1	0.251	100	0	0
12	1	402	1	2	2	0.1753	0.0528	1	1	0.221	100	82	0
12	1	403	1	2	2	0.1753	0.0528	1	0	0.303	0	82	0
12	1	404	0	2	3	0.1753	0.0528	0	1	0.323	10	82	82
12	1	405	9	2	2	0.1753	0.0528	0	1	0.370	0	82	82
12	1	406	0	2	2	0.1753	0.0528	0	0	0.292	0	82	82
12	1	407	0	1	3	0.1753	0.0528	0	1	0.250	10	82	82
12	1	408	9	2	3	0.1753	0.0528	0	1	0.340	0	0	0
12	1	409	1	2	1	0.1753	0.0528	0	1	0.377	97	0	0
12	1	410	1	2	3	0.1753	0.0528	1	0	0.354	0	82	0
12	1	411	0	1	1	0.1753	0.0528	0	1	0.381	10	82	82
12	1	412	1	1	3	0.1753	0.0528	0	1	0.344	100	0	0
12	1	413	0	1	3	0.1753	0.0528	0	0	0.206	0	82	82
12	1	414	0	1	1	0.1753	0.0528	0	1	0.310	10	82	82
12	1	415	0	1	1	0.1753	0.0528	0	1	0.250	10	82	82
12	1	416	0	2	3	0.1753	0.0528	0	0	0.266	0	82	82
12	1	417	9	1	1	0.1753	0.0528	0	1	0.265	0	0	0
12	1	418	1	1	3	0.1753	0.0528	0	1	0.246	100	0	0
12	1	419	0	2	2	0.1753	0.0528	0	0	0.231	0	82	82
12	1	420	0	1	3	0.1753	0.0528	1	0	0.215	0	82	0
12	1	421	0	1	1	0.1753	0.0528	1	1	0.266	10	82	0
12	1	422	1	1	3	0.1753	0.0528	1	0	0.234	0	0	82
12	1	423	0	2	2	0.1753	0.0528	1	0	0.338	0	0	82
12	1	424	0	1	1	0.1753	0.0528	1	1	0.366	10	82	0
12	1	425	1	1	1	0.1753	0.0528	1	0	0.272	0	0	82
12	1	426	9	1	1	0.1753	0.0528	1	1	-0.003	0	82	0
12	1	427	9	1	2	0.1753	0.0528	0	1	0.150	0	0	0
12	1	428	1	1	2	0.1753	0.0528	0	1	0.265	100	0	0
12	1	429	9	1	1	0.1753	0.0528	1	1	0.207	0	82	0
12	1	430	1	1	1	0.1753	0.0528	0	1	0.306	100	0	0
12	1	431	9	2	1	0.1753	0.0528	1	1	-0.146	0	82	0
12	1	432	1	1	3	0.1753	0.0528	1	0	0.266	0	0	82
12	1	433	9	2	1	0.1753	0.0528	0	1	0.311	0	0	0
12	1	434	1	2	3	0.1753	0.0528	0	1	0.189	100	0	0
12	1	435	1	2	2	0.1753	0.0528	1	0	0.441	0	82	0
12	1	436	0	1	2	0.1753	0.0528	1	1	0.331	10	82	0
12	1	437	0	1	1	0.1753	0.0528	0	1	0.231	10	82	82
12	1	438	1	1	3	0.1753	0.0528	1	0	0.158	0	0	82
12	1	439	1	2	3	0.1753	0.0528	1	1	0.072	100	82	0
12	1	440	0	2	3	0.1753	0.0528	1	1	0.642	7	0	82
12	1	441	1	2	2	0.1753	0.0528	0	1	0.236	100	0	0
12	1	442	9	1	1	0.1753	0.0528	1	0	0.275	0	0	82
12	1	443	9	2	3	0.1753	0.0528	1	1	0.258	0	82	0
12	1	444	0	2	3	0.1753	0.0528	1	1	0.370	10	0	82
12	1	445	1	1	1	0.1753	0.0528	1	1	0.357	99	0	82
12	1	446	1	1	3	0.1753	0.0528	1	1	0.231	100	0	82
12	1	447	9	2	2	0.1753	0.0528	1	0	0.287	0	0	82
12	1	448	1	2	3	0.1753	0.0528	0	0	0.206	0	0	0
12	1	449	9	1	3	0.1753	0.0528	1	1	0.390	0	82	0
12	1	450	0	1	2	0.1753	0.0528	1	1	0.200	10	82	0
12	1	451	1	1	1	0.1753	0.0528	1	0	0.218	0	0	82
12	1	452	1	1	1	0.1753	0.0528	0	0	0.178	0	0	0
12	1	453	9	1	1	0.1753	0.0528	0	1	0.227	0	0	0
12	1	454	1	2	2	0.1753	0.0528	0	0	0.226	0	0	0
12	1	455	0	1	3	0.1753	0.0528	1	1	0.227	10	82	0
12	1	456	9	2	2	0.1753	0.0528	0	0	0.203	0	82	82
12	1	457	0	1	1	0.1753	0.0528	0	1	0.149	10	82	82
12	1	458	0	2	2	0.1753	0.0528	0	0	0.456	0	82	82
12	1	459	9	2	3	0.1753	0.0528	1	1	0.409	0	0	82
12	1	460	0	1	1	0.1753	0.0528	0	1	0.306	10	82	82
12	1	461	0	2	3	0.1753	0.0528	0	1	0.189	10	82	82
12	1	462	9	2	2	0.1753	0.0528	0	0	0.248	0	82	82
12	1	463	9	2	2	0.1753	0.0528	1	1	0.128	0	82	0
12	1	464	0	2	3	0.1753	0.0528	0	1	0.226	10	82	82
12	1	465	9	1	3	0.1753	0.0528	0	1	0.265	0	82	82
12	1	466	0	2	3	0.1753	0.0528	0	1	0.279	10	82	82
12	1	467	0	2	2	0.1753	0.0528	1	0	0.263	0	0	82
12	1	468	0	2	2	0.1753	0.0528	1	0	0.430	0	0	82
12	1	469	1	2	3	0.1753	0.0528	0	1	0.247	100	0	0
12	1	470	0	2	3	0.1753	0.0528	0	0	0.212	0	82	82
12	1	471	1	2	3	0.1753	0.0528	1	1	0.325	100	82	0
12	1	472	0	2	1	0.1753	0.0528	0	1	0.258	10	82	82
12	1	473	9	2	3	0.1753	0.0528	1	1	0.295	0	82	0
12	1	474	1	1	1	0.1753	0.0528	0	1	0.230	100	0	0
12	1	475	0	1	3	0.1753	0.0528	0	0	0.247	0	82	82
12	1	476	1	1	3	0.1753	0.0528	1	0	0.246	0	0	82
12	1	477	0	2	3	0.1753	0.0528	0	1	0.382	10	82	82
12	1	478	0	1	3	0.1753	0.0528	1	1	-0.178	10	82	0
12	1	479	0	1	1	0.1753	0.0528	1	0	0.143	0	82	0
12	1	480	9	1	1	0.1753	0.0528	0	1	0.224	0	82	82
12	1	481	1	2	2	0.1753	0.0528	0	1	0.304	100	0	0
12	1	482	1	1	1	0.1753	0.0528	0	1	0.264	100	0	0
12	1	483	1	2	3	0.1753	0.0528	0	1	0.334	100	0	0
12	1	484	1	2	3	0.1753	0.0528	0	1	0.372	98	0	0
12	1	485	0	2	3	0.1753	0.0528	1	0	0.341	0	0	82
12	1	486	0	2	2	0.1753	0.0528	1	1	0.393	10	0	82
12	1	487	9	1	1	0.1753	0.0528	0	1	0.169	0	82	82
12	1	488	0	2	1	0.1753	0.0528	1	0	0.557	0	0	82
12	1	489	1	1	3	0.1753	0.0528	1	1	0.417	93	0	82
12	1	490	0	1	1	0.1753	0.0528	0	1	0.379	10	82	82
12	1	491	1	2	1	0.1753	0.0528	1	1	0.340	100	82	0
12	1	492	1	1	1	0.1753	0.0528	0	1	0.289	100	0	0
12	1	493	9	2	2	0.1753	0.0528	0	0	0.214	0	0	0
12	1	494	9	2	2	0.1753	0.0528	1	1	0.320	0	82	0
12	1	495	0	2	2	0.1753	0.0528	0	1	0.303	10	82	82
12	1	496	1	2	3	0.1753	0.0528	0	0	0.276	0	0	0
12	1	497	9	2	2	0.1753	0.0528	1	1	0.204	0	82	0
12	1	498	9	2	2	0.1753	0.0528	1	0	0.292	0	82	0
12	1	499	1	2	3	0.1753	0.0528	1	1	0.315	100	82	0
12	1	500	1	1	1	0.1753	0.0528	1	0	0.242	0	0	82
12	1	501	0	1	1	0.1753	0.0528	0	1	0.282	10	82	82
12	1	502	1	1	3	0.1753	0.0528	0	1	0.214	100	0	0
12	1	503	0	1	1	0.1753	0.0528	1	1	0.062	10	82	0
12	1	504	0	1	3	0.1753	0.0528	1	1	0.375	10	82	0
12	1	505	1	1	3	0.1753	0.0528	0	0	0.290	0	0	0
12	1	506	9	1	1	0.1753	0.0528	0	1	0.239	0	0	0
12	1	507	9	1	3	0.1753	0.0528	1	0	0.333	0	0	82
12	1	508	0	2	3	0.1753	0.0528	1	0	0.329	0	0	82
12	1	509	1	1	3	0.1753	0.0528	0	1	0.263	100	0	0
12	1	510	1	2	2	0.1753	0.0528	0	1	0.213	100	0	0
12	1	511	9	1	3	0.1753	0.0528	1	1	0.123	0	82	0
12	1	512	0	2	3	0.1753	0.0528	1	0	0.365	0	0	82
12	1	513	0	2	2	0.1753	0.0528	1	1	0.320	10	0	82
12	1	514	9	2	1	0.1753	0.0528	0	1	0.326	0	82	82
12	1	515	0	2	3	0.1753	0.0528	0	1	0.281	10	82	82
12	1	516	1	2	2	0.1753	0.0528	1	1	0.198	100	82	0
12	1	517	1	2	3	0.1753	0.0528	1	1	0.271	100	82	0
12	1	518	1	1	1	0.1753	0.0528	1	0	0.237	0	0	82
12	1	519	0	1	3	0.1753	0.0528	0	0	0.294	0	82	82
12	1	520	0	2	3	0.1753	0.0528	1	0	0.210	0	0	82
12	1	521	9	2	3	0.1753	0.0528	0	1	0.291	0	82	82
12	1	522	1	1	3	0.1753	0.0528	0	0	0.338	0	0	0
12	1	523	0	1	2	0.1753	0.0528	0	1	0.374	10	82	82
12	1	524	0	2	3	0.1753	0.0528	1	0	0.488	0	0	82
12	1	525	0	2	2	0.1753	0.0528	1	1	0.542	8	0	82
12	1	526	0	2	3	0.1753	0.0528	1	1	0.529	8	0	82
12	1	527	9	2	2	0.1753	0.0528	0	1	0.397	0	82	82
12	1	528	1	1	3	0.1753	0.0528	1	1	0.423	93	0	82
12	1	529	0	1	1	0.1753	0.0528	1	1	0.255	10	82	0
12	1	530	0	2	1	0.1753	0.0528	1	0	0.519	0	0	82
12	1	531	0	2	2	0.1753	0.0528	0	1	0.354	10	82	82
12	1	532	0	2	2	0.1753	0.0528	1	1	0.661	7	0	82
12	1	533	1	2	3	0.1753	0.0528	0	1	0.373	98	0	0
12	1	534	1	2	2	0.1753	0.0528	0	1	0.408	94	0	0
12	1	535	1	2	3	0.1753	0.0528	1	1	0.265	100	82	0
12	1	536	0	2	2	0.1753	0.0528	0	1	0.022	10	82	82
12	1	537	1	2	3	0.1753	0.0528	0	0	0.226	0	0	0
12	1	538	9	1	1	0.1753	0.0528	1	0	0.233	0	0	82
12	1	539	1	1	1	0.1753	0.0528	0	1	0.347	100	0	0
12	1	540	0	1	2	0.1753	0.0528	0	0	0.264	0	82	82
12	1	541	0	1	3	0.1753	0.0528	1	1	0.308	10	82	0
12	1	542	1	1	3	0.1753	0.0528	1	1	0.306	100	0	82
12	1	543	1	2	2	0.1753	0.0528	0	1	0.255	100	0	0
12	1	544	9	1	1	0.1753	0.0528	0	1	0.341	0	0	0
12	1	545	9	2	2	0.1753	0.0528	0	1	0.432	0	0	0
12	1	546	1	1	1	0.1753	0.0528	1	1	0.350	100	0	82
12	1	547	0	1	3	0.1753	0.0528	1	1	0.266	10	82	0
12	1	548	1	2	3	0.1753	0.0528	1	0	0.322	0	82	0
12	1	549	1	1	3	0.1753	0.0528	0	1	0.329	100	0	0
12	1	550	9	2	3	0.1753	0.0528	0	1	0.342	0	82	82
12	1	551	9	2	2	0.1753	0.0528	1	0	0.368	0	0	82
12	1	552	9	2	3	0.1753	0.0528	0	1	0.441	0	0	0
12	1	553	1	1	1	0.1753	0.0528	0	1	0.275	100	0	0
12	1	554	0	1	3	0.1753	0.0528	1	1	0.193	10	82	0
12	1	555	0	2	2	0.1753	0.0528	0	1	0.449	9	82	82
12	1	556	9	2	2	0.1753	0.0528	0	1	0.336	0	0	0
12	1	557	0	2	3	0.1753	0.0528	1	0	0.556	0	0	82
12	1	558	1	2	3	0.1753	0.0528	0	1	0.384	97	0	0
12	1	559	9	2	3	0.1753	0.0528	1	1	0.224	0	0	82
12	1	560	0	2	2	0.1753	0.0528	0	1	0.321	10	82	82
12	1	561	1	1	1	0.1753	0.0528	0	1	0.285	100	0	0
12	1	562	1	2	2	0.1753	0.0528	0	1	0.297	100	0	0
12	1	563	0	1	1	0.1753	0.0528	1	0	0.389	0	82	0
12	1	564	1	2	3	0.1753	0.0528	0	1	0.294	100	0	0
12	1	565	1	2	3	0.1753	0.0528	1	1	0.070	100	82	0
12	1	566	0	1	1	0.1753	0.0528	1	0	0.376	0	82	0
12	1	567	1	2	3	0.1753	0.0528	0	1	0.212	100	0	0
12	1	568	9	1	3	0.1753	0.0528	1	1	0.325	0	0	82
12	1	569	9	1	1	0.1753	0.0528	1	1	0.379	0	0	82
12	1	570	1	1	3	0.1753	0.0528	0	1	0.367	98	0	0
12	1	571	9	1	2	0.1753	0.0528	0	1	0.225	0	82	82
12	1	572	9	1	3	0.1753	0.0528	1	1	0.434	0	82	0
12	1	573	9	1	3	0.1753	0.0528	1	1	0.387	0	0	82
12	1	574	9	2	2	0.1753	0.0528	1	0	0.260	0	0	82
12	1	575	1	2	2	0.1753	0.0528	1	1	0.266	100	82	0
12	1	576	1	2	3	0.1753	0.0528	1	1	0.264	100	82	0
12	1	577	9	1	3	0.1753	0.0528	0	1	0.109	0	82	82
12	1	578	1	1	1	0.1753	0.0528	0	0	0.281	0	0	0
12	1	579	0	2	3	0.1753	0.0528	0	0	0.319	0	82	82
12	1	580	1	2	2	0.1753	0.0528	0	1	0.292	100	0	0
12	1	581	0	2	1	0.1753	0.0528	0	1	0.239	10	82	82
12	1	582	0	1	3	0.1753	0.0528	0	1	0.288	10	82	82
12	1	583	1	2	2	0.1753	0.0528	0	1	0.360	99	0	0
12	1	584	9	2	3	0.1753	0.0528	0	1	0.228	0	0	0
12	1	585	0	2	2	0.1753	0.0528	0	1	0.294	10	82	82
12	1	586	1	1	3	0.1753	0.0528	1	1	0.438	91	0	82
12	1	587	0	1	1	0.1753	0.0528	1	1	0.062	10	82	0
12	1	588	9	1	1	0.1753	0.0528	1	0	0.347	0	0	82
12	1	589	0	1	1	0.1753	0.0528	1	1	0.189	10	82	0
12	1	590	0	1	1	0.1753	0.0528	0	0	0.281	0	82	82
12	1	591	1	2	2	0.1753	0.0528	1	1	-0.033	100	82	0
12	1	592	1	1	3	0.1753	0.0528	0	1	0.035	100	0	0
12	1	593	1	1	1	0.1753	0.0528	0	1	0.214	100	0	0
12	1	594	1	2	3	0.1753	0.0528	1	1	0.301	100	82	0
12	1	595	0	1	1	0.1753	0.0528	0	1	0.251	10	82	82
12	1	596	1	1	1	0.1753	0.0528	0	0	0.098	0	0	0
12	1	597	1	1	3	0.1753	0.0528	1	0	0.012	0	0	82
12	1	598	1	2	2	0.1753	0.0528	0	1	0.357	99	0	0
12	1	599	0	2	2	0.1753	0.0528	0	1	0.250	10	82	82
12	1	600	1	1	3	0.1753	0.0528	1	1	0.336	100	0	82
12	1	601	0	1	1	0.1753	0.0528	1	0	0.369	0	82	0
12	1	602	1	1	3	0.1753	0.0528	1	1	0.267	100	0	82
12	1	603	0	1	1	0.1753	0.0528	0	1	0.251	10	82	82
12	1	604	0	2	2	0.1753	0.0528	0	1	0.378	10	82	82
12	1	605	1	2	2	0.1753	0.0528	1	1	0.228	100	82	0
12	1	606	0	1	2	0.1753	0.0528	1	1	0.411	9	82	0
12	1	607	1	1	3	0.1753	0.0528	1	1	0.358	99	0	82
12	1	608	0	2	2	0.1753	0.0528	0	1	0.225	10	82	82
12	1	609	0	2	3	0.1753	0.0528	0	1	0.178	10	82	82
12	1	610	0	2	1	0.1753	0.0528	0	1	0.283	10	82	82
12	1	611	0	1	3	0.1753	0.0528	1	1	0.106	10	82	0
12	1	612	1	1	1	0.1753	0.0528	1	0	0.141	0	0	82
12	1	613	1	2	2	0.1753	0.0528	1	1	0.295	100	82	0
12	1	614	0	1	1	0.1753	0.0528	0	1	0.207	10	82	82
12	1	615	0	2	3	0.1753	0.0528	1	0	0.160	0	0	82
12	1	616	9	2	3	0.1753	0.0528	0	1	0.323	0	0	0
12	1	617	0	1	2	0.1753	0.0528	0	1	0.223	10	82	82
12	1	618	0	1	3	0.1753	0.0528	0	0	0.055	0	82	82
12	1	619	0	2	3	0.1753	0.0528	0	1	0.219	10	82	82
12	1	620	1	2	2	0.1753	0.0528	0	1	0.310	100	0	0
12	1	621	0	1	1	0.1753	0.0528	1	0	0.325	0	82	0
12	1	622	9	1	1	0.1753	0.0528	1	1	0.539	0	82	0
12	1	623	1	1	3	0.1753	0.0528	1	1	0.369	98	0	82
12	1	624	0	2	2	0.1753	0.0528	0	1	0.387	10	82	82
12	1	625	0	2	3	0.1753	0.0528	1	1	0.237	10	0	82
12	1	626	0	1	3	0.1753	0.0528	1	1	0.373	10	82	0
12	1	627	0	1	3	0.1753	0.0528	1	1	0.335	10	82	0
12	1	628	9	1	3	0.1753	0.0528	0	1	0.268	0	0	0
12	1	629	1	1	1	0.1753	0.0528	1	0	0.300	0	0	82
12	1	630	0	2	3	0.1753	0.0528	0	0	0.090	0	82	82
12	1	631	9	2	2	0.1753	0.0528	1	0	0.397	0	0	82
12	1	632	0	2	3	0.1753	0.0528	1	0	0.281	0	0	82
12	1	633	0	2	2	0.1753	0.0528	1	0	0.677	0	0	82
12	1	634	1	2	3	0.1753	0.0528	1	1	0.251	100	82	0
12	1	635	9	1	3	0.1753	0.0528	0	1	0.305	0	82	82
12	1	636	0	1	2	0.1753	0.0528	1	1	0.286	10	82	0
12	1	637	0	1	1	0.1753	0.0528	0	1	0.388	10	82	82
12	1	638	1	1	2	0.1753	0.0528	1	1	0.318	100	0	82
12	1	639	9	2	3	0.1753	0.0528	1	1	0.251	0	0	82
12	1	640	1	1	1	0.1753	0.0528	0	1	0.236	100	0	0
12	1	641	1	1	2	0.1753	0.0528	0	1	0.254	100	0	0
12	1	642	9	1	3	0.1753	0.0528	1	1	0.189	0	82	0
12	1	643	1	2	1	0.1753	0.0528	0	1	0.264	100	0	0
12	1	644	0	1	3	0.1753	0.0528	1	1	0.207	10	82	0
12	1	645	0	2	2	0.1753	0.0528	1	1	0.274	10	0	82
12	1	646	1	2	1	0.1753	0.0528	1	0	0.281	0	82	0
12	1	647	0	1	3	0.1753	0.0528	0	1	0.221	10	82	82
12	1	648	9	2	3	0.1753	0.0528	0	0	0.240	0	82	82
12	1	649	0	2	3	0.1753	0.0528	0	1	0.233	10	82	82
12	1	650	0	2	3	0.1753	0.0528	0	1	0.355	10	82	82
12	1	651	1	2	3	0.1753	0.0528	0	1	0.198	100	0	0
12	1	652	0	1	3	0.1753	0.0528	0	1	0.302	10	82	82
12	1	653	9	1	2	0.1753	0.0528	1	1	0.285	0	0	82
12	1	654	0	1	3	0.1753	0.0528	1	1	0.148	10	82	0
12	1	655	1	1	1	0.1753	0.0528	1	0	0.232	0	0	82
12	1	656	1	2	2	0.1753	0.0528	1	1	0.105	100	82	0
12	1	657	1	2	2	0.1753	0.0528	1	0	0.378	0	82	0
12	1	658	0	1	3	0.1753	0.0528	0	0	0.213	0	82	82
12	1	659	0	1	3	0.1753	0.0528	1	1	0.302	10	82	0
12	1	660	0	1	1	0.1753	0.0528	0	0	0.172	0	82	82
12	1	661	1	2	2	0.1753	0.0528	1	1	0.345	100	82	0
12	1	662	1	1	3	0.1753	0.0528	0	1	0.323	100	0	0
12	1	663	0	2	2	0.1753	0.0528	1	1	0.249	10	0	82
12	1	664	1	2	2	0.1753	0.0528	1	1	0.231	100	82	0
12	1	665	1	2	3	0.1753	0.0528	1	1	0.430	92	82	0
12	1	666	0	2	2	0.1753	0.0528	1	0	0.439	0	0	82
12	1	667	1	1	3	0.1753	0.0528	0	0	0.313	0	0	0
12	1	668	0	1	2	0.1753	0.0528	0	0	0.320	0	82	82
12	1	669	0	2	3	0.1753	0.0528	0	0	0.435	0	82	82
12	1	670	1	1	2	0.1753	0.0528	0	1	0.362	99	0	0
12	1	671	0	2	3	0.1753	0.0528	0	1	0.406	9	82	82
12	1	672	0	1	3	0.1753	0.0528	0	1	0.334	10	82	82
12	1	673	1	2	3	0.1753	0.0528	0	1	0.314	100	0	0
12	1	674	0	2	3	0.1753	0.0528	1	1	0.222	10	0	82
12	1	675	0	1	1	0.1753	0.0528	1	1	0.214	10	82	0
12	1	676	1	2	3	0.1753	0.0528	0	1	0.216	100	0	0
12	1	677	0	1	1	0.1753	0.0528	0	0	0.209	0	82	82
12	1	678	0	1	1	0.1753	0.0528	1	1	0.114	10	82	0
12	1	679	0	1	3	0.1753	0.0528	0	0	0.100	0	82	82
12	1	680	1	1	1	0.1753	0.0528	0	0	0.151	0	0	0
12	1	681	1	1	2	0.1753	0.0528	1	1	0.540	81	0	82
12	1	682	9	1	3	0.1753	0.0528	0	1	0.256	0	0	0
12	1	683	0	1	3	0.1753	0.0528	1	1	0.249	10	82	0
12	1	684	1	2	3	0.1753	0.0528	1	0	0.488	0	82	0
12	1	685	0	1	1	0.1753	0.0528	1	1	0.160	10	82	0
12	1	686	1	1	1	0.1753	0.0528	1	1	0.273	100	0	82
12	1	687	1	1	1	0.1753	0.0528	1	1	0.160	100	0	82
12	1	688	1	2	3	0.1753	0.0528	0	1	0.226	100	0	0
12	1	689	1	2	2	0.1753	0.0528	0	1	0.477	87	0	0
12	1	690	1	1	3	0.1753	0.0528	1	1	0.261	100	0	82
12	1	691	0	2	2	0.1753	0.0528	1	0	0.269	0	0	82
12	1	692	0	1	3	0.1753	0.0528	1	1	0.299	10	82	0
12	1	693	0	2	3	0.1753	0.0528	1	1	0.272	10	0	82
12	1	694	1	1	3	0.1753	0.0528	1	0	0.230	0	0	82
12	1	695	9	2	3	0.1753	0.0528	1	1	0.325	0	82	0
12	1	696	1	1	2	0.1753	0.0528	0	0	0.322	0	0	0
12	1	697	0	2	1	0.1753	0.0528	0	1	0.286	10	82	82
12	1	698	9	2	3	0.1753	0.0528	0	1	0.283	0	82	82
12	1	699	1	1	1	0.1753	0.0528	0	1	0.346	100	0	0
12	1	700	1	1	1	0.1753	0.0528	0	1	0.279	100	0	0
12	1	701	1	2	2	0.1753	0.0528	1	0	0.386	0	82	0
12	1	702	0	2	2	0.1753	0.0528	0	1	0.318	10	82	82
12	1	703	1	2	2	0.1753	0.0528	0	1	0.339	100	0	0
12	1	704	9	2	2	0.1753	0.0528	0	0	0.349	0	0	0
12	1	705	9	2	3	0.1753	0.0528	1	0	0.529	0	0	82
12	1	706	9	2	1	0.1753	0.0528	1	0	0.430	0	0	82
12	1	707	9	1	1	0.1753	0.0528	1	0	0.326	0	82	0
12	1	708	9	2	3	0.1753	0.0528	1	0	0.442	0	82	0
12	1	709	0	1	1	0.1753	0.0528	1	1	0.227	10	82	0
12	1	710	1	2	1	0.1753	0.0528	1	1	0.381	97	82	0
12	1	711	0	1	3	0.1753	0.0528	0	1	0.440	9	82	82
12	1	712	1	1	1	0.1753	0.0528	1	0	0.264	0	0	82
12	1	713	0	1	3	0.1753	0.0528	0	0	0.430	0	82	82
12	1	714	0	1	3	0.1753	0.0528	1	1	0.253	10	82	0
12	1	715	0	2	3	0.1753	0.0528	1	0	0.214	0	0	82
12	1	716	1	1	1	0.1753	0.0528	1	1	0.472	88	0	82
12	1	717	1	2	2	0.1753	0.0528	1	1	0.228	100	82	0
12	1	718	0	2	2	0.1753	0.0528	0	0	0.227	0	82	82
12	1	719	1	1	2	0.1753	0.0528	1	1	0.413	94	0	82
12	1	720	1	2	2	0.1753	0.0528	1	0	0.333	0	82	0
