sub	sess	t	loc	co1	co2	or	resp	rt
53	1	1	1	1.0000	1.0000	1	0	2.491
53	1	2	2	1.0000	1.0000	0	1	2.435
53	1	3	2	1.0000	1.0000	0	1	2.138
53	1	4	2	1.0000	1.0000	1	0	1.504
53	1	5	1	1.0000	1.0000	1	0	1.443
53	1	6	1	1.0000	1.0000	1	1	1.493
53	1	7	2	1.0000	1.0000	1	0	3.059
53	1	8	1	1.0000	1.0000	0	1	1.807
53	1	9	1	1.0000	1.0000	1	1	1.025
53	1	10	1	1.0000	1.0000	0	0	2.877
53	1	11	1	1.0000	1.0000	0	1	1.469
53	1	12	1	1.0000	1.0000	0	1	1.277
53	1	13	2	1.0000	1.0000	0	1	1.296
53	1	14	2	1.0000	1.0000	1	1	1.256
53	1	15	2	1.0000	1.0000	1	1	1.598
53	1	16	2	1.0000	1.0000	0	1	1.010
53	1	17	1	1.0000	1.0000	0	0	2.124
53	1	18	1	1.0000	1.0000	1	1	2.453
53	1	19	2	1.0000	1.0000	0	1	0.876
53	1	20	2	1.0000	1.0000	0	1	1.044
53	1	21	2	1.0000	1.0000	1	1	0.974
53	1	22	2	1.0000	1.0000	1	1	0.999
53	1	23	1	1.0000	1.0000	0	1	0.930
53	1	24	1	1.0000	1.0000	1	1	0.777
53	1	25	2	1.0000	1.0000	1	1	0.973
53	1	26	1	1.0000	1.0000	1	1	1.503
53	1	27	1	1.0000	1.0000	0	1	1.005
53	1	28	2	1.0000	1.0000	0	1	1.316
53	1	29	2	1.0000	1.0000	1	1	1.408
53	1	30	2	1.0000	1.0000	1	1	1.302
53	1	31	1	1.0000	1.0000	1	1	1.315
53	1	32	1	1.0000	1.0000	0	1	1.100
53	1	33	2	1.0000	1.0000	0	1	1.297
53	1	34	1	0.2500	0.2500	0	1	1.857
53	1	35	1	0.2629	0.2629	1	1	1.041
53	1	36	2	0.2758	0.2758	0	1	1.300
53	1	37	2	0.2887	0.2887	0	1	1.284
53	1	38	2	0.3016	0.3016	0	1	1.321
53	1	39	1	0.3145	0.3145	1	1	0.947
53	1	40	1	0.3274	0.3274	0	0	1.376
53	1	41	2	0.3403	0.3403	1	1	1.025
53	1	42	1	0.3532	0.3532	0	1	1.042
53	1	43	2	0.3661	0.3661	1	1	1.113
53	1	44	1	0.3790	0.3790	0	1	1.231
53	1	45	2	0.3919	0.3919	1	1	0.777
53	1	46	2	0.4048	0.4048	0	1	0.999
53	1	47	2	0.4177	0.4177	1	1	0.981
53	1	48	1	0.4306	0.4306	1	1	1.056
53	1	49	1	0.4435	0.4435	1	1	0.896
53	1	50	1	0.4565	0.4565	0	1	1.136
53	1	51	1	0.4694	0.4694	0	1	0.916
53	1	52	2	0.4823	0.4823	0	1	1.037
53	1	53	2	0.4952	0.4952	0	1	0.903
53	1	54	2	0.5081	0.5081	1	1	0.875
53	1	55	2	0.5210	0.5210	0	1	0.881
53	1	56	2	0.5339	0.5339	0	1	0.786
53	1	57	2	0.5468	0.5468	0	1	0.951
53	1	58	2	0.5597	0.5597	0	1	0.850
53	1	59	2	0.5726	0.5726	0	1	1.077
53	1	60	2	0.5855	0.5855	0	1	1.225
53	1	61	2	0.5984	0.5984	1	1	0.782
53	1	62	1	0.6113	0.6113	0	1	0.861
53	1	63	1	0.6242	0.6242	1	1	0.837
53	1	64	1	0.6371	0.6371	0	1	0.943
53	1	65	2	0.6500	0.6500	1	1	0.754
53	1	66	2	0.2500	0.2500	1	1	0.828
53	1	67	1	0.2629	0.2629	0	1	0.707
53	1	68	1	0.2758	0.2758	1	1	1.019
53	1	69	2	0.2887	0.2887	1	1	1.412
53	1	70	1	0.3016	0.3016	1	1	0.915
53	1	71	2	0.3145	0.3145	1	1	1.098
53	1	72	1	0.3274	0.3274	1	1	1.004
53	1	73	1	0.3403	0.3403	0	1	1.195
53	1	74	2	0.3532	0.3532	0	1	0.811
53	1	75	1	0.3661	0.3661	1	1	0.732
53	1	76	2	0.3790	0.3790	0	1	0.842
53	1	77	1	0.3919	0.3919	0	1	0.844
53	1	78	2	0.4048	0.4048	1	1	0.800
53	1	79	1	0.4177	0.4177	0	1	0.897
53	1	80	1	0.4306	0.4306	1	1	0.767
53	1	81	1	0.4435	0.4435	1	1	0.837
53	1	82	2	0.4565	0.4565	1	1	1.066
53	1	83	2	0.4694	0.4694	1	1	1.233
53	1	84	1	0.4823	0.4823	0	1	0.825
53	1	85	1	0.4952	0.4952	1	1	0.800
53	1	86	2	0.5081	0.5081	1	1	0.848
53	1	87	1	0.5210	0.5210	0	1	1.370
53	1	88	1	0.5339	0.5339	1	1	0.719
53	1	89	2	0.5468	0.5468	1	1	0.891
53	1	90	1	0.5597	0.5597	0	1	0.704
53	1	91	2	0.5726	0.5726	0	1	0.870
53	1	92	1	0.5855	0.5855	1	1	0.792
53	1	93	1	0.5984	0.5984	1	1	0.955
53	1	94	2	0.6113	0.6113	1	1	1.002
53	1	95	2	0.6242	0.6242	0	1	0.688
53	1	96	1	0.6371	0.6371	0	0	1.426
53	1	97	1	0.6500	0.6500	1	1	1.411
53	1	98	1	0.2397	0.6242	1	1	0.776
53	1	99	2	0.2397	0.1740	1	1	0.987
53	1	100	2	0.2397	0.1629	1	1	0.787
53	1	101	2	0.2397	0.1515	0	1	0.845
53	1	102	1	0.2323	0.1515	0	1	0.701
53	1	103	1	0.2250	0.1515	1	1	0.765
53	1	104	1	0.2178	0.1515	0	1	1.244
53	1	105	2	0.2178	0.1399	0	1	0.884
53	1	106	2	0.2178	0.1282	0	1	1.744
53	1	107	2	0.2178	0.1164	0	1	0.951
53	1	108	2	0.2178	0.1045	1	0	3.003
53	1	109	1	0.2106	0.1045	1	1	1.029
53	1	110	2	0.2106	0.1382	0	1	1.400
53	1	111	2	0.2106	0.1287	0	1	1.287
53	1	112	1	0.2034	0.1287	1	1	0.919
53	1	113	2	0.2034	0.1193	1	1	1.560
53	1	114	1	0.1961	0.1193	0	1	1.044
53	1	115	1	0.1887	0.1193	0	1	0.776
53	1	116	2	0.1887	0.1100	1	1	0.744
53	1	117	1	0.1812	0.1100	0	0	2.366
53	1	118	1	0.2037	0.1100	1	1	1.196
53	1	119	2	0.2037	0.1009	1	1	1.037
53	1	120	1	0.1977	0.1009	1	1	0.821
53	1	121	1	0.1917	0.1009	1	1	1.369
53	1	122	1	0.1858	0.1009	0	1	0.895
53	1	123	1	0.1798	0.1009	0	1	0.842
53	1	124	2	0.1798	0.0920	1	1	0.761
53	1	125	1	0.1739	0.0920	0	1	0.995
53	1	126	1	0.1679	0.0920	1	1	0.770
53	1	127	2	0.1679	0.0833	1	1	0.980
53	1	128	2	0.1679	0.0748	0	1	2.216
53	1	129	2	0.1679	0.0666	0	1	1.139
53	1	130	1	0.1619	0.0666	1	1	1.010
53	1	131	1	0.1558	0.0666	0	1	1.239
53	1	132	2	0.1558	0.0585	0	1	1.108
53	1	133	1	0.1496	0.0585	1	1	0.887
53	1	134	1	0.1433	0.0585	1	1	0.998
53	1	135	2	0.1433	0.0508	1	1	1.375
53	1	136	2	0.1433	0.0434	0	1	0.883
53	1	137	2	0.1433	0.0362	1	1	2.027
53	1	138	1	0.1369	0.0362	1	0	1.371
53	1	139	2	0.1369	0.0292	1	0	1.252
53	1	140	1	0.1564	0.0292	0	1	1.307
53	1	141	1	0.1511	0.0292	0	1	1.240
53	1	142	1	0.1458	0.0292	1	0	1.934
53	1	143	2	0.1458	0.0495	1	1	1.356
53	1	144	1	0.1620	0.0495	0	0	2.207
53	1	145	1	0.1759	0.0495	0	1	1.362
53	1	146	2	0.1759	0.0430	1	0	1.198
53	1	147	2	0.1759	0.0617	0	1	0.864
53	1	148	2	0.1759	0.0555	0	1	1.135
53	1	149	2	0.1759	0.0495	0	1	1.400
53	1	150	2	0.1759	0.0438	0	1	0.821
53	1	151	1	0.1715	0.0438	0	0	1.240
53	1	152	2	0.1715	0.0382	1	1	1.016
53	1	153	2	0.1715	0.0329	0	1	0.749
53	1	154	2	0.1715	0.0277	1	1	1.475
53	1	155	2	0.1715	0.0227	0	1	0.899
53	1	156	1	0.1842	0.0227	0	1	1.455
53	1	157	1	0.1800	0.0227	0	1	1.677
53	1	158	1	0.1761	0.0227	1	1	1.069
53	1	159	1	0.1721	0.0227	1	0	2.075
53	1	160	2	0.1721	0.0179	1	1	2.188
53	1	161	1	0.1836	0.0179	1	1	1.432
