sub	sess	t	rew	loc	cue	co1	co2	or	resp	rt	rew_tot	left_col	right_col
128	1	1	1	2	2	0.0500	0.0500	1	1	0.564	79	82	0
128	1	2	1	2	3	0.0500	0.0500	0	0	0.575	0	0	0
128	1	3	9	2	3	0.0500	0.0500	0	1	0.576	0	0	0
128	1	4	1	2	3	0.0500	0.0500	0	1	0.484	87	0	0
128	1	5	0	2	2	0.0500	0.0500	1	1	0.514	8	0	82
128	1	6	9	2	3	0.0500	0.0500	1	0	0.630	0	0	82
128	1	7	1	1	2	0.0500	0.0500	0	1	0.552	80	0	0
128	1	8	1	1	1	0.0500	0.0500	1	1	0.692	66	0	82
128	1	9	1	1	3	0.0500	0.0500	1	1	0.842	51	0	82
128	1	10	1	2	2	0.0500	0.0500	1	1	0.515	84	82	0
128	1	11	1	1	1	0.0500	0.0500	0	1	0.473	88	0	0
128	1	12	1	1	1	0.0500	0.0500	0	1	0.479	87	0	0
128	1	13	0	1	2	0.0500	0.0500	1	1	0.511	8	82	0
128	1	14	1	2	2	0.0500	0.0500	0	1	0.486	86	0	0
128	1	15	0	1	1	0.0500	0.0500	0	1	0.562	8	82	82
128	1	16	1	2	2	0.0500	0.0500	0	1	0.556	79	0	0
128	1	17	1	1	3	0.0500	0.0500	0	1	0.494	86	0	0
128	1	18	0	1	3	0.0500	0.0500	1	1	0.635	7	82	0
128	1	19	1	2	2	0.0500	0.0500	1	1	0.506	84	82	0
128	1	20	0	2	2	0.0500	0.0500	0	1	0.440	9	82	82
128	1	21	1	1	1	0.0500	0.0500	1	1	0.564	79	0	82
128	1	22	0	2	2	0.0500	0.0500	1	1	0.511	8	0	82
128	1	23	0	1	3	0.0500	0.0500	1	1	0.620	7	82	0
128	1	24	9	2	3	0.0500	0.0500	1	1	0.365	0	82	0
128	1	25	0	2	3	0.0500	0.0500	1	1	0.383	10	0	82
128	1	26	9	2	2	0.0500	0.0500	0	1	0.521	0	82	82
128	1	27	1	2	3	0.0500	0.0500	1	1	0.469	88	82	0
128	1	28	0	1	1	0.0500	0.0500	0	1	0.925	5	82	82
128	1	29	9	1	1	0.0500	0.0500	1	1	0.530	0	82	0
128	1	30	0	1	3	0.0500	0.0500	1	1	0.534	8	82	0
128	1	31	9	2	3	0.0500	0.0500	0	1	0.523	0	82	82
128	1	32	0	1	3	0.0500	0.0500	1	1	0.495	9	82	0
128	1	33	9	1	2	0.0500	0.0500	0	1	0.470	0	82	82
128	1	34	0	2	2	0.0500	0.0500	0	1	0.580	8	82	82
128	1	35	1	1	1	0.0500	0.0500	0	1	0.695	66	0	0
128	1	36	1	2	3	0.0500	0.0500	0	1	0.404	95	0	0
128	1	37	9	1	1	0.0500	0.0500	1	1	0.471	0	0	82
128	1	38	0	1	1	0.0500	0.0500	1	0	0.822	0	82	0
128	1	39	1	2	3	0.0500	0.0500	1	1	0.687	66	82	0
128	1	40	9	1	1	0.0500	0.0500	1	1	0.558	0	82	0
128	1	41	1	1	3	0.0500	0.0500	0	1	0.590	76	0	0
128	1	42	1	2	2	0.0500	0.0500	1	0	0.551	0	82	0
128	1	43	0	2	3	0.0500	0.0500	0	0	0.521	0	82	82
128	1	44	0	1	3	0.0500	0.0500	1	1	0.709	6	82	0
128	1	45	1	1	3	0.0500	0.0500	0	1	0.531	82	0	0
128	1	46	1	2	3	0.0500	0.0500	1	1	0.446	90	82	0
128	1	47	9	2	3	0.0500	0.0500	1	1	0.432	0	82	0
128	1	48	0	1	1	0.0500	0.0500	1	1	0.632	7	82	0
128	1	49	0	2	3	0.0500	0.0500	1	1	0.656	7	0	82
128	1	50	1	2	1	0.0500	0.0500	0	1	0.933	50	0	0
128	1	51	1	2	2	0.0500	0.0500	0	1	0.699	65	0	0
128	1	52	1	1	3	0.0500	0.0500	1	1	0.584	77	0	82
128	1	53	1	2	3	0.0500	0.0500	0	1	0.561	79	0	0
128	1	54	9	1	2	0.0500	0.0500	0	1	0.596	0	0	0
128	1	55	0	1	1	0.0500	0.0500	1	1	0.555	8	82	0
128	1	56	0	1	1	0.0500	0.0500	1	1	0.486	9	82	0
128	1	57	0	2	2	0.0500	0.0500	1	1	0.542	8	0	82
128	1	58	1	2	2	0.0500	0.0500	0	1	0.842	51	0	0
128	1	59	0	1	3	0.0500	0.0500	1	0	0.976	0	82	0
128	1	60	9	2	3	0.0500	0.0500	1	1	0.716	0	0	82
128	1	61	0	2	3	0.0500	0.0500	1	1	0.454	9	0	82
128	1	62	9	2	3	0.0500	0.0500	0	1	0.501	0	0	0
128	1	63	9	1	1	0.0500	0.0500	1	1	0.626	0	82	0
128	1	64	1	1	1	0.0500	0.0500	1	0	0.762	0	0	82
128	1	65	0	1	1	0.0500	0.0500	1	1	0.885	5	82	0
128	1	66	0	2	3	0.0500	0.0500	0	1	0.445	9	82	82
128	1	67	1	2	1	0.0500	0.0500	0	1	0.396	95	0	0
128	1	68	1	2	2	0.0500	0.0500	1	1	0.422	93	82	0
128	1	69	0	2	3	0.0500	0.0500	1	1	0.512	8	0	82
128	1	70	0	1	1	0.0500	0.0500	1	1	0.749	6	82	0
128	1	71	1	2	2	0.0500	0.0500	0	1	0.463	89	0	0
128	1	72	0	2	3	0.0500	0.0500	0	1	0.464	9	82	82
128	1	73	0	1	1	0.0500	0.0500	1	1	0.600	8	82	0
128	1	74	0	2	1	0.0500	0.0500	0	0	0.555	0	82	82
128	1	75	9	1	3	0.0500	0.0500	0	0	0.711	0	0	0
128	1	76	0	2	3	0.0500	0.0500	1	1	0.549	8	0	82
128	1	77	0	2	2	0.0500	0.0500	1	1	0.536	8	0	82
128	1	78	1	2	3	0.0500	0.0500	0	1	0.468	88	0	0
128	1	79	0	1	1	0.0500	0.0500	0	1	0.553	8	82	82
128	1	80	0	1	2	0.0500	0.0500	1	1	0.645	7	82	0
128	1	81	0	1	3	0.0500	0.0500	1	1	0.546	8	82	0
128	1	82	0	1	1	0.0500	0.0500	0	1	0.438	9	82	82
128	1	83	1	2	2	0.0500	0.0500	1	1	0.437	91	82	0
128	1	84	1	2	2	0.0500	0.0500	0	1	0.462	89	0	0
128	1	85	9	1	1	0.0500	0.0500	1	1	0.542	0	0	82
128	1	86	9	1	3	0.0500	0.0500	0	1	0.546	0	82	82
128	1	87	9	2	3	0.0500	0.0500	0	1	0.573	0	82	82
128	1	88	1	1	2	0.0500	0.0500	1	1	0.462	89	0	82
128	1	89	1	2	3	0.0500	0.0500	0	1	0.725	63	0	0
128	1	90	9	2	3	0.0500	0.0500	0	1	0.466	0	82	82
128	1	91	1	1	3	0.0500	0.0500	0	0	0.672	0	0	0
128	1	92	0	1	3	0.0500	0.0500	1	1	0.597	8	82	0
128	1	93	0	1	3	0.0500	0.0500	0	1	0.526	8	82	82
128	1	94	0	2	2	0.0500	0.0500	1	1	0.617	7	0	82
128	1	95	0	2	3	0.0500	0.0500	0	1	0.585	8	82	82
128	1	96	1	1	3	0.0500	0.0500	0	1	0.610	74	0	0
128	1	97	1	2	3	0.0500	0.0500	1	1	0.361	99	82	0
128	1	98	0	1	3	0.0500	0.0500	0	1	0.620	7	82	82
128	1	99	1	1	1	0.0500	0.0500	0	1	0.470	88	0	0
128	1	100	9	1	2	0.0500	0.0500	1	1	0.492	0	0	82
128	1	101	0	1	1	0.0500	0.0500	0	1	0.566	8	82	82
128	1	102	1	1	1	0.0500	0.0500	1	1	0.465	88	0	82
128	1	103	1	2	2	0.0500	0.0500	1	1	0.434	92	82	0
128	1	104	1	2	3	0.0500	0.0500	0	1	0.611	74	0	0
128	1	105	1	1	1	0.0500	0.0500	0	1	0.482	87	0	0
128	1	106	1	1	1	0.0500	0.0500	1	0	0.494	0	0	82
128	1	107	9	2	1	0.0500	0.0500	1	1	0.460	0	82	0
128	1	108	0	2	1	0.0500	0.0500	1	1	0.596	8	0	82
128	1	109	0	1	3	0.0500	0.0500	0	1	0.532	8	82	82
128	1	110	0	1	1	0.0500	0.0500	0	1	0.481	9	82	82
128	1	111	0	2	3	0.0500	0.0500	0	0	0.646	0	82	82
128	1	112	9	2	2	0.0500	0.0500	0	0	0.925	0	0	0
128	1	113	1	2	3	0.0500	0.0500	1	1	0.473	88	82	0
128	1	114	1	1	3	0.0500	0.0500	1	1	0.865	50	0	82
128	1	115	1	1	1	0.0500	0.0500	0	1	0.583	77	0	0
128	1	116	9	2	2	0.0500	0.0500	0	1	0.506	0	0	0
128	1	117	0	2	1	0.0500	0.0500	1	1	0.577	8	0	82
128	1	118	1	2	2	0.0500	0.0500	1	1	0.497	85	82	0
128	1	119	1	1	2	0.0500	0.0500	1	1	0.655	70	0	82
128	1	120	1	1	3	0.0500	0.0500	1	0	1.024	0	0	82
128	1	121	0	2	2	0.0500	0.0500	1	1	0.562	8	0	82
128	1	122	0	1	1	0.0500	0.0500	1	1	0.716	6	82	0
128	1	123	0	1	1	0.0500	0.0500	1	1	0.456	9	82	0
128	1	124	1	1	1	0.0500	0.0500	1	1	0.480	87	0	82
128	1	125	0	1	1	0.0500	0.0500	0	1	0.437	9	82	82
128	1	126	9	2	1	0.0500	0.0500	1	1	0.493	0	0	82
128	1	127	0	1	1	0.0500	0.0500	0	1	0.492	9	82	82
128	1	128	0	1	1	0.0500	0.0500	1	0	0.514	0	82	0
128	1	129	1	1	3	0.0500	0.0500	0	1	0.472	88	0	0
128	1	130	1	1	1	0.0500	0.0500	0	1	0.760	59	0	0
128	1	131	1	1	1	0.0500	0.0500	1	1	0.842	51	0	82
128	1	132	9	1	3	0.0500	0.0500	0	1	0.432	0	82	82
128	1	133	0	2	2	0.0500	0.0500	1	0	1.009	0	0	82
128	1	134	1	1	2	0.0500	0.0500	1	1	0.539	81	0	82
128	1	135	1	1	3	0.0500	0.0500	0	1	0.494	86	0	0
128	1	136	1	1	3	0.0500	0.0500	0	1	0.460	89	0	0
128	1	137	0	2	2	0.0500	0.0500	0	0	0.522	0	82	82
128	1	138	0	1	3	0.0500	0.0500	1	1	0.719	6	82	0
128	1	139	0	1	3	0.0500	0.0500	0	1	0.530	8	82	82
128	1	140	1	1	3	0.0500	0.0500	0	1	0.485	86	0	0
128	1	141	1	2	1	0.0500	0.0500	1	1	0.559	79	82	0
128	1	142	0	1	1	0.0500	0.0500	1	1	0.611	7	82	0
128	1	143	1	2	3	0.0500	0.0500	1	1	0.429	92	82	0
128	1	144	1	2	3	0.0500	0.0500	1	1	0.412	94	82	0
128	1	145	1	1	1	0.0500	0.0500	1	1	0.477	87	0	82
128	1	146	9	2	2	0.0500	0.0500	0	1	0.715	0	82	82
128	1	147	0	2	2	0.0500	0.0500	1	1	0.863	5	0	82
128	1	148	0	2	2	0.0500	0.0500	0	1	0.723	6	82	82
128	1	149	0	2	3	0.0500	0.0500	1	0	0.465	0	0	82
128	1	150	1	1	3	0.0500	0.0500	1	1	0.734	62	0	82
128	1	151	0	1	1	0.0500	0.0500	1	1	1.210	5	82	0
128	1	152	0	2	2	0.0500	0.0500	1	1	0.507	8	0	82
128	1	153	9	1	2	0.0500	0.0500	1	1	0.735	0	82	0
128	1	154	1	2	3	0.0500	0.0500	1	1	0.420	93	82	0
128	1	155	0	2	3	0.0500	0.0500	0	0	0.271	0	82	82
128	1	156	0	2	2	0.0500	0.0500	0	1	0.428	9	82	82
128	1	157	1	1	1	0.0500	0.0500	0	1	0.539	81	0	0
128	1	158	0	1	1	0.0500	0.0500	0	1	0.688	7	82	82
128	1	159	1	2	2	0.0500	0.0500	0	1	0.389	96	0	0
128	1	160	1	2	3	0.0500	0.0500	1	1	0.456	89	82	0
128	1	161	0	2	3	0.0500	0.0500	0	1	0.387	10	82	82
128	1	162	0	2	2	0.0500	0.0500	0	1	0.367	10	82	82
128	1	163	1	1	3	0.0500	0.0500	1	1	0.571	78	0	82
128	1	164	1	2	3	0.0500	0.0500	1	1	0.485	86	82	0
128	1	165	1	2	3	0.0500	0.0500	0	1	0.379	97	0	0
128	1	166	1	2	1	0.0500	0.0500	1	1	0.487	86	82	0
128	1	167	0	1	3	0.0500	0.0500	0	1	0.604	7	82	82
128	1	168	1	1	3	0.0500	0.0500	1	1	0.430	92	0	82
128	1	169	9	2	2	0.0500	0.0500	1	1	0.423	0	82	0
128	1	170	0	2	2	0.0500	0.0500	0	1	0.432	9	82	82
128	1	171	0	2	2	0.0500	0.0500	0	1	0.558	8	82	82
128	1	172	0	1	2	0.0500	0.0500	0	1	0.691	7	82	82
128	1	173	0	1	2	0.0500	0.0500	1	1	0.866	5	82	0
128	1	174	9	1	1	0.0500	0.0500	0	1	0.474	0	0	0
128	1	175	0	2	2	0.0500	0.0500	0	1	0.474	9	82	82
128	1	176	9	2	3	0.0500	0.0500	1	1	0.408	0	0	82
128	1	177	0	2	3	0.0500	0.0500	0	1	0.456	9	82	82
128	1	178	0	1	2	0.0500	0.0500	0	1	0.542	8	82	82
128	1	179	9	1	1	0.0500	0.0500	0	1	0.497	0	82	82
128	1	180	1	2	3	0.0500	0.0500	0	1	0.536	81	0	0
128	1	181	9	2	2	0.0500	0.0500	1	1	0.477	0	82	0
128	1	182	9	2	2	0.0500	0.0500	1	0	0.700	0	0	82
128	1	183	1	1	1	0.0500	0.0500	1	0	0.568	0	0	82
128	1	184	0	1	1	0.0500	0.0500	0	1	0.484	9	82	82
128	1	185	1	2	2	0.0500	0.0500	0	1	0.377	97	0	0
128	1	186	1	2	2	0.0500	0.0500	0	1	0.404	95	0	0
128	1	187	0	1	1	0.0500	0.0500	0	1	0.517	8	82	82
128	1	188	0	1	3	0.0500	0.0500	0	1	0.463	9	82	82
128	1	189	9	2	2	0.0500	0.0500	0	1	0.615	0	0	0
128	1	190	1	2	2	0.0500	0.0500	1	1	0.449	90	82	0
128	1	191	1	1	1	0.0500	0.0500	1	1	0.394	96	0	82
128	1	192	9	2	2	0.0500	0.0500	1	1	1.018	0	0	82
128	1	193	0	1	1	0.0500	0.0500	0	1	0.524	8	82	82
128	1	194	9	1	1	0.0500	0.0500	0	1	0.464	0	82	82
128	1	195	9	1	3	0.0500	0.0500	1	1	0.574	0	0	82
128	1	196	0	1	3	0.0500	0.0500	1	0	0.914	0	82	0
128	1	197	9	1	3	0.0500	0.0500	0	1	0.573	0	82	82
128	1	198	0	2	3	0.0500	0.0500	0	1	0.656	7	82	82
128	1	199	1	2	2	0.0500	0.0500	1	1	0.488	86	82	0
128	1	200	9	1	1	0.0500	0.0500	0	1	0.631	0	0	0
128	1	201	9	2	3	0.0500	0.0500	1	1	0.450	0	82	0
128	1	202	9	1	1	0.0500	0.0500	0	1	0.527	0	0	0
128	1	203	0	2	2	0.0500	0.0500	1	1	0.553	8	0	82
128	1	204	0	2	1	0.0500	0.0500	0	1	0.508	8	82	82
128	1	205	1	1	3	0.0500	0.0500	1	1	0.443	91	0	82
128	1	206	9	1	3	0.0500	0.0500	1	1	0.793	0	82	0
128	1	207	0	1	2	0.0500	0.0500	1	1	0.578	8	82	0
128	1	208	9	1	3	0.0500	0.0500	0	1	0.492	0	0	0
128	1	209	1	2	2	0.0500	0.0500	0	1	0.442	91	0	0
128	1	210	9	1	3	0.0500	0.0500	0	1	0.754	0	82	82
128	1	211	1	2	2	0.0500	0.0500	1	1	0.517	83	82	0
128	1	212	0	2	2	0.0500	0.0500	1	1	0.497	9	0	82
128	1	213	0	2	3	0.0500	0.0500	0	0	0.613	0	82	82
128	1	214	1	1	2	0.0500	0.0500	0	1	0.604	75	0	0
128	1	215	0	2	2	0.0500	0.0500	0	1	0.567	8	82	82
128	1	216	0	2	3	0.0500	0.0500	1	1	0.465	9	0	82
128	1	217	0	2	1	0.0500	0.0500	1	1	0.552	8	0	82
128	1	218	0	2	2	0.0500	0.0500	0	0	0.468	0	82	82
128	1	219	1	1	2	0.0500	0.0500	1	1	0.557	79	0	82
128	1	220	1	1	3	0.0500	0.0500	0	1	0.590	76	0	0
128	1	221	9	1	3	0.0500	0.0500	1	1	0.785	0	82	0
128	1	222	1	1	1	0.0500	0.0500	1	1	0.505	84	0	82
128	1	223	9	2	2	0.0500	0.0500	0	1	0.582	0	82	82
128	1	224	1	2	2	0.0500	0.0500	0	1	0.560	79	0	0
128	1	225	1	2	2	0.0500	0.0500	0	1	0.425	93	0	0
128	1	226	1	1	3	0.0500	0.0500	0	1	0.497	85	0	0
128	1	227	9	2	3	0.0500	0.0500	0	1	0.536	0	82	82
128	1	228	1	1	3	0.0500	0.0500	1	1	0.723	63	0	82
128	1	229	0	2	2	0.0500	0.0500	1	1	0.678	7	0	82
128	1	230	1	1	3	0.0500	0.0500	0	1	0.476	87	0	0
128	1	231	0	1	3	0.0500	0.0500	0	1	0.435	9	82	82
128	1	232	1	1	3	0.0500	0.0500	1	1	0.580	77	0	82
128	1	233	0	1	1	0.0500	0.0500	0	1	0.517	8	82	82
128	1	234	0	2	2	0.0500	0.0500	0	1	0.611	7	82	82
128	1	235	0	1	3	0.0500	0.0500	0	1	0.580	8	82	82
128	1	236	0	2	3	0.0500	0.0500	0	1	0.405	9	82	82
128	1	237	1	2	2	0.0500	0.0500	1	1	0.495	85	82	0
128	1	238	9	2	3	0.0500	0.0500	1	1	0.429	0	82	0
128	1	239	1	2	3	0.0500	0.0500	0	1	0.486	86	0	0
128	1	240	0	1	1	0.0500	0.0500	0	1	0.594	8	82	82
128	1	241	0	1	3	0.0500	0.0500	1	1	0.633	7	82	0
128	1	242	0	1	3	0.0500	0.0500	0	1	0.515	8	82	82
128	1	243	1	2	2	0.0500	0.0500	0	1	0.718	63	0	0
128	1	244	0	2	2	0.0500	0.0500	1	1	0.642	7	0	82
128	1	245	0	1	3	0.0500	0.0500	0	1	0.520	8	82	82
128	1	246	0	1	3	0.0500	0.0500	1	0	0.484	0	82	0
128	1	247	9	2	3	0.0500	0.0500	1	1	0.578	0	0	82
128	1	248	9	1	1	0.0500	0.0500	0	1	0.571	0	82	82
128	1	249	0	2	3	0.0500	0.0500	1	1	0.589	8	0	82
128	1	250	9	1	3	0.0500	0.0500	1	1	1.024	0	0	82
128	1	251	0	1	3	0.0500	0.0500	0	1	0.537	8	82	82
128	1	252	9	2	2	0.0500	0.0500	0	1	0.677	0	82	82
128	1	253	1	1	1	0.0500	0.0500	1	0	0.965	0	0	82
128	1	254	1	1	3	0.0500	0.0500	0	1	0.504	85	0	0
128	1	255	0	2	3	0.0500	0.0500	1	1	0.524	8	0	82
128	1	256	0	1	3	0.0500	0.0500	0	1	0.480	9	82	82
128	1	257	0	2	3	0.0500	0.0500	1	1	0.509	8	0	82
128	1	258	1	2	2	0.0500	0.0500	1	1	0.384	97	82	0
128	1	259	1	2	3	0.0500	0.0500	0	1	0.472	88	0	0
128	1	260	1	1	3	0.0500	0.0500	0	1	0.535	81	0	0
128	1	261	1	2	1	0.0500	0.0500	0	1	0.421	93	0	0
128	1	262	0	1	3	0.0500	0.0500	0	1	0.468	9	82	82
128	1	263	0	2	3	0.0500	0.0500	0	1	0.396	10	82	82
128	1	264	1	2	2	0.0500	0.0500	0	1	0.367	98	0	0
128	1	265	1	1	1	0.0500	0.0500	0	1	0.577	77	0	0
128	1	266	1	2	2	0.0500	0.0500	1	1	0.476	87	82	0
128	1	267	1	2	3	0.0500	0.0500	0	1	0.457	89	0	0
128	1	268	9	2	2	0.0500	0.0500	1	1	0.514	0	0	82
128	1	269	0	2	2	0.0500	0.0500	1	1	0.453	9	0	82
128	1	270	1	1	1	0.0500	0.0500	0	1	0.484	87	0	0
128	1	271	1	1	1	0.0500	0.0500	1	1	0.498	85	0	82
128	1	272	0	2	2	0.0500	0.0500	1	1	0.598	8	0	82
128	1	273	1	2	3	0.0500	0.0500	1	1	0.497	85	82	0
128	1	274	1	1	3	0.0500	0.0500	0	1	0.534	82	0	0
128	1	275	0	2	2	0.0500	0.0500	0	1	0.730	6	82	82
128	1	276	1	1	3	0.0500	0.0500	1	1	0.743	61	0	82
128	1	277	9	1	3	0.0500	0.0500	1	1	0.619	0	82	0
128	1	278	1	1	3	0.0500	0.0500	1	1	0.404	95	0	82
128	1	279	1	2	3	0.0500	0.0500	1	1	0.406	94	82	0
128	1	280	9	1	1	0.0500	0.0500	0	1	0.496	0	82	82
128	1	281	0	1	1	0.0500	0.0500	0	0	0.908	0	82	82
128	1	282	0	1	3	0.0500	0.0500	1	1	0.721	6	82	0
128	1	283	0	1	1	0.0500	0.0500	1	1	0.614	7	82	0
128	1	284	1	1	3	0.0500	0.0500	0	1	0.464	89	0	0
128	1	285	1	1	3	0.0500	0.0500	1	1	0.685	67	0	82
128	1	286	0	2	3	0.0500	0.0500	1	1	0.506	8	0	82
128	1	287	0	1	2	0.0500	0.0500	0	1	0.621	7	82	82
128	1	288	9	2	3	0.0500	0.0500	0	1	0.422	0	0	0
128	1	289	9	2	2	0.0500	0.0500	1	1	0.542	0	82	0
128	1	290	0	1	1	0.0500	0.0500	1	1	0.635	7	82	0
128	1	291	9	1	3	0.0500	0.0500	0	1	0.691	0	0	0
128	1	292	0	2	1	0.0500	0.0500	0	1	0.666	7	82	82
128	1	293	1	2	2	0.0500	0.0500	0	1	0.360	99	0	0
128	1	294	0	2	3	0.0500	0.0500	1	1	0.548	8	0	82
128	1	295	1	2	3	0.0500	0.0500	0	1	0.335	100	0	0
128	1	296	0	2	2	0.0500	0.0500	0	1	0.492	9	82	82
128	1	297	0	2	2	0.0500	0.0500	1	1	0.482	9	0	82
128	1	298	0	2	3	0.0500	0.0500	0	1	0.400	10	82	82
128	1	299	9	2	3	0.0500	0.0500	0	1	0.354	0	0	0
128	1	300	1	1	1	0.0500	0.0500	0	1	0.582	77	0	0
128	1	301	0	1	3	0.0500	0.0500	1	1	0.617	7	82	0
128	1	302	1	1	3	0.0500	0.0500	1	1	0.472	88	0	82
128	1	303	0	1	1	0.0500	0.0500	1	1	0.544	8	82	0
128	1	304	9	1	1	0.0500	0.0500	1	1	0.674	0	0	82
128	1	305	1	2	2	0.0500	0.0500	1	1	0.418	93	82	0
128	1	306	1	2	1	0.0500	0.0500	0	1	0.493	86	0	0
128	1	307	0	1	1	0.0500	0.0500	1	1	0.625	7	82	0
128	1	308	9	1	3	0.0500	0.0500	1	1	0.378	0	0	82
128	1	309	0	2	3	0.0500	0.0500	0	1	0.538	8	82	82
128	1	310	1	2	3	0.0500	0.0500	1	1	0.431	92	82	0
128	1	311	9	2	1	0.0500	0.0500	0	1	0.493	0	82	82
128	1	312	9	2	2	0.0500	0.0500	1	1	0.339	0	82	0
128	1	313	1	2	3	0.0500	0.0500	1	1	0.358	99	82	0
128	1	314	9	1	1	0.0500	0.0500	1	1	0.442	0	0	82
128	1	315	1	2	1	0.0500	0.0500	1	1	0.314	100	82	0
128	1	316	9	1	3	0.0500	0.0500	0	1	0.688	0	0	0
128	1	317	1	1	1	0.0500	0.0500	1	1	0.528	82	0	82
128	1	318	0	2	1	0.0500	0.0500	1	1	0.580	8	0	82
128	1	319	0	2	1	0.0500	0.0500	0	1	0.580	8	82	82
128	1	320	1	1	1	0.0500	0.0500	1	1	0.429	92	0	82
128	1	321	1	2	3	0.0500	0.0500	0	1	0.379	97	0	0
128	1	322	1	2	2	0.0500	0.0500	1	1	0.573	78	82	0
128	1	323	1	1	1	0.0500	0.0500	0	0	0.720	0	0	0
128	1	324	1	2	2	0.0500	0.0500	0	0	0.479	0	0	0
128	1	325	9	2	2	0.0500	0.0500	0	1	0.702	0	0	0
128	1	326	1	1	2	0.0500	0.0500	0	1	0.556	79	0	0
128	1	327	1	1	1	0.0500	0.0500	1	1	0.495	85	0	82
128	1	328	9	2	2	0.0500	0.0500	1	1	0.662	0	0	82
128	1	329	1	2	3	0.0500	0.0500	0	1	0.444	91	0	0
128	1	330	0	1	3	0.0500	0.0500	0	1	0.580	8	82	82
128	1	331	0	1	3	0.0500	0.0500	0	0	0.758	0	82	82
128	1	332	0	2	3	0.0500	0.0500	0	1	0.344	10	82	82
128	1	333	1	1	1	0.0500	0.0500	0	1	0.541	81	0	0
128	1	334	1	1	1	0.0500	0.0500	0	1	0.553	80	0	0
128	1	335	9	1	1	0.0500	0.0500	1	1	0.603	0	82	0
128	1	336	0	2	3	0.0500	0.0500	1	1	0.535	8	0	82
128	1	337	0	1	3	0.0500	0.0500	1	0	0.490	0	82	0
128	1	338	0	2	2	0.0500	0.0500	0	1	0.559	8	82	82
128	1	339	1	1	3	0.0500	0.0500	1	0	0.515	0	0	82
128	1	340	1	2	1	0.0500	0.0500	1	1	0.456	89	82	0
128	1	341	0	2	3	0.0500	0.0500	0	1	0.528	8	82	82
128	1	342	0	2	3	0.0500	0.0500	1	1	0.627	7	0	82
128	1	343	0	2	3	0.0500	0.0500	1	1	0.483	9	0	82
128	1	344	0	1	2	0.0500	0.0500	0	1	0.515	8	82	82
128	1	345	9	1	1	0.0500	0.0500	0	1	0.486	0	0	0
128	1	346	1	1	1	0.0500	0.0500	0	1	0.526	82	0	0
128	1	347	0	2	3	0.0500	0.0500	1	1	0.496	9	0	82
128	1	348	1	1	3	0.0500	0.0500	1	1	0.704	65	0	82
128	1	349	0	1	3	0.0500	0.0500	0	1	0.532	8	82	82
128	1	350	9	1	3	0.0500	0.0500	1	1	0.825	0	0	82
128	1	351	0	1	3	0.0500	0.0500	1	1	0.593	8	82	0
128	1	352	1	2	3	0.0500	0.0500	1	1	0.388	96	82	0
128	1	353	1	2	3	0.0500	0.0500	0	1	0.526	82	0	0
128	1	354	9	1	3	0.0500	0.0500	1	0	0.611	0	82	0
128	1	355	1	2	3	0.0500	0.0500	1	1	0.413	94	82	0
128	1	356	0	1	1	0.0500	0.0500	0	1	0.560	8	82	82
128	1	357	0	2	2	0.0500	0.0500	0	1	0.761	6	82	82
128	1	358	1	1	1	0.0500	0.0500	0	1	0.589	76	0	0
128	1	359	9	2	1	0.0500	0.0500	0	1	0.553	0	0	0
128	1	360	1	1	2	0.0500	0.0500	0	1	0.642	71	0	0
128	1	361	9	1	3	0.0500	0.0500	1	1	0.512	0	0	82
128	1	362	1	2	3	0.0500	0.0500	0	1	0.574	78	0	0
128	1	363	1	1	2	0.0500	0.0500	1	1	0.522	83	0	82
128	1	364	0	1	1	0.0500	0.0500	1	1	0.598	8	82	0
128	1	365	1	2	1	0.0500	0.0500	0	1	0.671	68	0	0
128	1	366	1	1	3	0.0500	0.0500	1	0	0.615	0	0	82
128	1	367	1	1	1	0.0500	0.0500	1	1	0.377	97	0	82
128	1	368	0	1	2	0.0500	0.0500	0	1	0.686	7	82	82
128	1	369	0	1	1	0.0500	0.0500	0	1	0.380	10	82	82
128	1	370	1	2	2	0.0500	0.0500	0	1	0.389	96	0	0
128	1	371	0	2	2	0.0500	0.0500	1	1	0.462	9	0	82
128	1	372	0	1	1	0.0500	0.0500	1	1	0.620	7	82	0
128	1	373	1	1	1	0.0500	0.0500	1	1	0.548	80	0	82
128	1	374	9	2	2	0.0500	0.0500	0	1	0.488	0	82	82
128	1	375	0	2	2	0.0500	0.0500	0	1	0.479	9	82	82
128	1	376	9	2	3	0.0500	0.0500	1	1	0.422	0	0	82
128	1	377	1	1	1	0.0500	0.0500	1	1	0.548	80	0	82
128	1	378	1	2	3	0.0500	0.0500	1	1	0.360	99	82	0
128	1	379	0	2	2	0.0500	0.0500	1	1	0.597	8	0	82
128	1	380	9	1	1	0.0500	0.0500	1	1	0.400	0	0	82
128	1	381	1	1	1	0.0500	0.0500	0	1	0.581	77	0	0
128	1	382	1	2	1	0.0500	0.0500	1	1	0.383	97	82	0
128	1	383	0	2	3	0.0500	0.0500	1	0	0.874	0	0	82
128	1	384	1	2	3	0.0500	0.0500	0	1	0.584	77	0	0
128	1	385	9	1	1	0.0500	0.0500	0	1	0.464	0	82	82
128	1	386	1	1	1	0.0500	0.0500	0	1	0.520	83	0	0
128	1	387	1	2	2	0.0500	0.0500	1	1	0.436	91	82	0
128	1	388	9	1	1	0.0500	0.0500	1	1	0.484	0	0	82
128	1	389	1	2	2	0.0500	0.0500	1	1	0.306	100	82	0
128	1	390	9	1	3	0.0500	0.0500	0	0	0.655	0	82	82
128	1	391	0	2	2	0.0500	0.0500	0	1	0.462	9	82	82
128	1	392	0	2	2	0.0500	0.0500	0	1	0.509	8	82	82
128	1	393	1	1	2	0.0500	0.0500	0	1	0.496	85	0	0
128	1	394	1	2	2	0.0500	0.0500	0	1	0.413	94	0	0
128	1	395	0	1	2	0.0500	0.0500	1	1	0.830	5	82	0
128	1	396	9	1	1	0.0500	0.0500	0	1	0.647	0	0	0
128	1	397	0	1	3	0.0500	0.0500	1	0	0.462	0	82	0
128	1	398	0	2	2	0.0500	0.0500	0	1	0.446	9	82	82
128	1	399	0	1	3	0.0500	0.0500	1	1	0.702	6	82	0
128	1	400	0	1	1	0.0500	0.0500	0	1	0.483	9	82	82
128	1	401	1	1	1	0.0500	0.0500	0	1	0.536	81	0	0
128	1	402	0	1	1	0.0500	0.0500	0	1	0.412	9	82	82
128	1	403	0	1	1	0.0500	0.0500	0	1	0.367	10	82	82
128	1	404	9	1	3	0.0500	0.0500	0	1	0.441	0	0	0
128	1	405	0	2	2	0.0500	0.0500	1	1	0.529	8	0	82
128	1	406	1	2	2	0.0500	0.0500	0	1	0.507	84	0	0
128	1	407	9	1	2	0.0500	0.0500	0	1	0.471	0	82	82
128	1	408	0	2	3	0.0500	0.0500	0	1	0.541	8	82	82
128	1	409	0	1	3	0.0500	0.0500	1	1	0.615	7	82	0
128	1	410	0	1	3	0.0500	0.0500	1	1	0.598	8	82	0
128	1	411	1	1	1	0.0500	0.0500	1	1	0.417	93	0	82
128	1	412	0	2	3	0.0500	0.0500	1	1	0.740	6	0	82
128	1	413	1	1	3	0.0500	0.0500	0	1	0.486	86	0	0
128	1	414	1	2	2	0.0500	0.0500	1	1	0.437	91	82	0
128	1	415	1	1	3	0.0500	0.0500	1	1	0.469	88	0	82
128	1	416	1	1	2	0.0500	0.0500	1	1	0.499	85	0	82
128	1	417	9	2	3	0.0500	0.0500	1	1	0.640	0	0	82
128	1	418	0	1	2	0.0500	0.0500	1	1	0.696	7	82	0
128	1	419	1	2	2	0.0500	0.0500	0	1	0.572	78	0	0
128	1	420	0	2	3	0.0500	0.0500	0	1	0.503	8	82	82
128	1	421	1	2	3	0.0500	0.0500	0	1	0.371	98	0	0
128	1	422	0	2	2	0.0500	0.0500	1	0	0.701	0	0	82
128	1	423	9	2	2	0.0500	0.0500	1	1	0.641	0	0	82
128	1	424	0	1	3	0.0500	0.0500	0	1	0.514	8	82	82
128	1	425	0	2	3	0.0500	0.0500	0	1	0.551	8	82	82
128	1	426	0	1	1	0.0500	0.0500	1	0	0.658	0	82	0
128	1	427	1	1	1	0.0500	0.0500	1	1	0.375	98	0	82
128	1	428	1	2	2	0.0500	0.0500	1	1	0.370	98	82	0
128	1	429	1	1	3	0.0500	0.0500	0	1	0.446	90	0	0
128	1	430	1	1	3	0.0500	0.0500	1	0	0.517	0	0	82
128	1	431	1	1	1	0.0500	0.0500	0	0	0.449	0	0	0
128	1	432	0	2	2	0.0500	0.0500	1	1	0.559	8	0	82
128	1	433	1	1	1	0.0500	0.0500	0	1	0.464	89	0	0
128	1	434	0	2	3	0.0500	0.0500	1	1	0.505	8	0	82
128	1	435	9	2	3	0.0500	0.0500	0	1	0.664	0	82	82
128	1	436	1	1	3	0.0500	0.0500	1	1	0.528	82	0	82
128	1	437	0	2	3	0.0500	0.0500	1	1	0.557	8	0	82
128	1	438	1	2	3	0.0500	0.0500	0	1	0.498	85	0	0
128	1	439	9	1	3	0.0500	0.0500	1	1	0.686	0	82	0
128	1	440	1	2	2	0.0500	0.0500	1	1	0.542	81	82	0
128	1	441	1	2	3	0.0500	0.0500	0	1	0.492	86	0	0
128	1	442	1	2	2	0.0500	0.0500	0	1	0.522	83	0	0
128	1	443	0	1	3	0.0500	0.0500	1	1	0.654	7	82	0
128	1	444	1	1	3	0.0500	0.0500	1	1	0.428	92	0	82
128	1	445	9	2	3	0.0500	0.0500	1	1	0.389	0	82	0
128	1	446	0	2	1	0.0500	0.0500	1	1	0.637	7	0	82
128	1	447	1	2	1	0.0500	0.0500	1	1	0.342	100	82	0
128	1	448	1	1	3	0.0500	0.0500	0	1	0.488	86	0	0
128	1	449	1	1	1	0.0500	0.0500	1	1	0.535	81	0	82
128	1	450	1	1	1	0.0500	0.0500	0	1	0.475	88	0	0
128	1	451	9	1	1	0.0500	0.0500	0	1	0.439	0	82	82
128	1	452	0	2	2	0.0500	0.0500	0	1	0.440	9	82	82
128	1	453	1	1	1	0.0500	0.0500	1	1	0.489	86	0	82
128	1	454	1	2	2	0.0500	0.0500	0	1	0.393	96	0	0
128	1	455	1	2	3	0.0500	0.0500	1	1	0.338	100	82	0
128	1	456	1	2	2	0.0500	0.0500	0	1	0.390	96	0	0
128	1	457	0	1	3	0.0500	0.0500	1	0	0.882	0	82	0
128	1	458	0	1	1	0.0500	0.0500	0	1	0.543	8	82	82
128	1	459	1	2	2	0.0500	0.0500	0	1	0.362	99	0	0
128	1	460	1	1	1	0.0500	0.0500	0	1	0.494	86	0	0
128	1	461	1	1	1	0.0500	0.0500	0	1	0.547	80	0	0
128	1	462	0	2	2	0.0500	0.0500	1	1	0.487	9	0	82
128	1	463	0	1	1	0.0500	0.0500	1	0	0.492	0	82	0
128	1	464	1	2	3	0.0500	0.0500	0	1	0.466	88	0	0
128	1	465	0	2	3	0.0500	0.0500	1	1	0.648	7	0	82
128	1	466	9	1	3	0.0500	0.0500	0	1	0.593	0	0	0
128	1	467	0	1	1	0.0500	0.0500	1	1	0.785	6	82	0
128	1	468	0	2	2	0.0500	0.0500	1	1	0.635	7	0	82
128	1	469	1	2	2	0.0500	0.0500	1	1	0.443	91	82	0
128	1	470	0	2	2	0.0500	0.0500	0	1	0.473	9	82	82
128	1	471	1	2	3	0.0500	0.0500	1	1	0.447	90	82	0
128	1	472	9	2	3	0.0500	0.0500	0	1	0.511	0	0	0
128	1	473	1	2	2	0.0500	0.0500	1	1	0.422	93	82	0
128	1	474	9	1	1	0.0500	0.0500	0	1	0.877	0	0	0
128	1	475	0	2	1	0.0500	0.0500	1	1	0.458	9	0	82
128	1	476	9	2	2	0.0500	0.0500	0	1	0.577	0	82	82
128	1	477	1	2	2	0.0500	0.0500	0	1	0.489	86	0	0
128	1	478	0	1	3	0.0500	0.0500	0	1	0.702	6	82	82
128	1	479	9	2	3	0.0500	0.0500	1	1	0.457	0	82	0
128	1	480	0	2	2	0.0500	0.0500	0	0	0.624	0	82	82
128	1	481	1	1	3	0.0500	0.0500	1	1	0.729	62	0	82
128	1	482	0	2	3	0.0500	0.0500	1	1	1.052	5	0	82
128	1	483	0	2	3	0.0500	0.0500	0	1	0.651	7	82	82
128	1	484	0	1	1	0.0500	0.0500	0	1	0.589	8	82	82
128	1	485	1	1	3	0.0500	0.0500	0	1	0.561	79	0	0
128	1	486	0	2	2	0.0500	0.0500	1	0	0.772	0	0	82
128	1	487	0	2	1	0.0500	0.0500	1	1	0.654	7	0	82
128	1	488	9	1	3	0.0500	0.0500	1	1	0.500	0	0	82
128	1	489	0	1	3	0.0500	0.0500	0	1	0.522	8	82	82
128	1	490	0	1	1	0.0500	0.0500	0	1	0.534	8	82	82
128	1	491	1	1	2	0.0500	0.0500	0	1	0.459	89	0	0
128	1	492	9	1	1	0.0500	0.0500	1	0	0.697	0	82	0
128	1	493	9	1	2	0.0500	0.0500	1	1	0.589	0	0	82
128	1	494	1	1	3	0.0500	0.0500	1	1	0.425	93	0	82
128	1	495	1	1	1	0.0500	0.0500	0	1	0.528	82	0	0
128	1	496	0	2	3	0.0500	0.0500	1	1	0.638	7	0	82
128	1	497	9	1	3	0.0500	0.0500	1	1	0.815	0	82	0
128	1	498	9	2	2	0.0500	0.0500	0	1	0.543	0	0	0
128	1	499	0	2	3	0.0500	0.0500	1	1	0.597	8	0	82
128	1	500	0	1	3	0.0500	0.0500	0	1	0.774	6	82	82
128	1	501	9	2	3	0.0500	0.0500	0	1	0.625	0	82	82
128	1	502	1	1	3	0.0500	0.0500	0	1	0.423	93	0	0
128	1	503	9	1	1	0.0500	0.0500	1	1	0.480	0	0	82
128	1	504	0	1	3	0.0500	0.0500	1	1	0.646	7	82	0
128	1	505	0	1	3	0.0500	0.0500	0	1	0.535	8	82	82
128	1	506	0	1	3	0.0500	0.0500	0	1	0.435	9	82	82
128	1	507	0	2	1	0.0500	0.0500	0	1	0.619	7	82	82
128	1	508	1	1	3	0.0500	0.0500	1	1	1.083	50	0	82
128	1	509	9	2	2	0.0500	0.0500	1	1	0.379	0	82	0
128	1	510	1	1	3	0.0500	0.0500	1	1	0.459	89	0	82
128	1	511	0	1	1	0.0500	0.0500	0	1	0.722	6	82	82
128	1	512	1	2	1	0.0500	0.0500	1	1	0.351	100	82	0
128	1	513	9	2	2	0.0500	0.0500	0	1	0.449	0	0	0
128	1	514	9	2	3	0.0500	0.0500	0	1	0.369	0	82	82
128	1	515	1	2	2	0.0500	0.0500	0	1	0.410	94	0	0
128	1	516	1	2	1	0.0500	0.0500	1	1	0.437	91	82	0
128	1	517	0	2	3	0.0500	0.0500	1	1	0.630	7	0	82
128	1	518	1	1	3	0.0500	0.0500	0	1	0.414	94	0	0
128	1	519	0	1	3	0.0500	0.0500	1	1	0.638	7	82	0
128	1	520	0	2	2	0.0500	0.0500	0	1	0.502	8	82	82
128	1	521	1	1	3	0.0500	0.0500	1	1	0.384	97	0	82
128	1	522	1	1	3	0.0500	0.0500	1	1	0.386	96	0	82
128	1	523	1	2	2	0.0500	0.0500	0	0	0.331	0	0	0
128	1	524	1	2	2	0.0500	0.0500	1	1	0.357	99	82	0
128	1	525	9	1	1	0.0500	0.0500	0	1	0.496	0	0	0
128	1	526	1	2	3	0.0500	0.0500	1	1	0.340	100	82	0
128	1	527	1	2	2	0.0500	0.0500	1	1	0.352	100	82	0
128	1	528	1	1	1	0.0500	0.0500	0	1	0.380	97	0	0
128	1	529	1	2	3	0.0500	0.0500	0	0	0.432	0	0	0
128	1	530	0	1	3	0.0500	0.0500	0	0	0.490	0	82	82
128	1	531	0	2	3	0.0500	0.0500	1	0	0.673	0	0	82
128	1	532	0	1	1	0.0500	0.0500	1	1	0.809	5	82	0
128	1	533	9	1	1	0.0500	0.0500	0	0	0.484	0	82	82
128	1	534	0	2	2	0.0500	0.0500	1	0	0.848	0	0	82
128	1	535	1	2	1	0.0500	0.0500	0	1	0.472	88	0	0
128	1	536	9	2	3	0.0500	0.0500	0	1	0.396	0	0	0
128	1	537	0	1	2	0.0500	0.0500	1	1	0.636	7	82	0
128	1	538	1	2	2	0.0500	0.0500	1	1	0.421	93	82	0
128	1	539	0	2	1	0.0500	0.0500	0	1	0.567	8	82	82
128	1	540	1	1	3	0.0500	0.0500	0	0	0.536	0	0	0
128	1	541	9	1	1	0.0500	0.0500	1	1	0.522	0	82	0
128	1	542	1	1	1	0.0500	0.0500	0	1	0.670	68	0	0
128	1	543	9	2	3	0.0500	0.0500	0	1	0.380	0	82	82
128	1	544	9	1	3	0.0500	0.0500	0	1	0.509	0	0	0
128	1	545	0	2	3	0.0500	0.0500	0	1	0.475	9	82	82
128	1	546	0	1	3	0.0500	0.0500	0	1	0.548	8	82	82
128	1	547	0	2	2	0.0500	0.0500	0	1	0.529	8	82	82
128	1	548	0	2	2	0.0500	0.0500	0	1	0.548	8	82	82
128	1	549	0	1	3	0.0500	0.0500	1	0	0.560	0	82	0
128	1	550	0	2	3	0.0500	0.0500	1	0	0.949	0	0	82
128	1	551	0	1	3	0.0500	0.0500	0	1	0.496	9	82	82
128	1	552	0	2	3	0.0500	0.0500	0	1	0.541	8	82	82
128	1	553	0	1	3	0.0500	0.0500	0	1	0.471	9	82	82
128	1	554	1	1	2	0.0500	0.0500	1	1	0.472	88	0	82
128	1	555	0	2	3	0.0500	0.0500	0	1	0.415	9	82	82
128	1	556	1	1	3	0.0500	0.0500	1	1	0.462	89	0	82
128	1	557	9	1	1	0.0500	0.0500	0	1	0.438	0	82	82
128	1	558	0	2	2	0.0500	0.0500	1	1	0.702	6	0	82
128	1	559	0	1	1	0.0500	0.0500	1	1	0.730	6	82	0
128	1	560	0	2	3	0.0500	0.0500	0	1	0.495	9	82	82
128	1	561	1	2	3	0.0500	0.0500	0	1	0.420	93	0	0
128	1	562	1	2	2	0.0500	0.0500	0	1	0.383	97	0	0
128	1	563	0	1	1	0.0500	0.0500	1	1	0.617	7	82	0
128	1	564	0	2	3	0.0500	0.0500	0	1	0.417	9	82	82
128	1	565	1	2	2	0.0500	0.0500	1	1	0.442	91	82	0
128	1	566	1	1	3	0.0500	0.0500	0	0	0.633	0	0	0
128	1	567	1	2	2	0.0500	0.0500	1	1	0.384	97	82	0
128	1	568	0	1	3	0.0500	0.0500	1	1	0.659	7	82	0
128	1	569	1	2	2	0.0500	0.0500	0	1	0.481	87	0	0
128	1	570	0	1	1	0.0500	0.0500	0	1	0.637	7	82	82
128	1	571	1	1	2	0.0500	0.0500	0	1	0.446	90	0	0
128	1	572	1	1	3	0.0500	0.0500	1	1	0.479	87	0	82
128	1	573	0	1	1	0.0500	0.0500	1	1	0.676	7	82	0
128	1	574	1	1	3	0.0500	0.0500	0	0	0.690	0	0	0
128	1	575	1	2	3	0.0500	0.0500	0	1	0.504	85	0	0
128	1	576	0	1	3	0.0500	0.0500	1	1	0.519	8	82	0
128	1	577	1	1	1	0.0500	0.0500	0	1	0.389	96	0	0
128	1	578	1	1	1	0.0500	0.0500	0	1	0.448	90	0	0
128	1	579	1	1	1	0.0500	0.0500	1	1	0.496	85	0	82
128	1	580	9	1	1	0.0500	0.0500	0	1	0.493	0	0	0
128	1	581	0	2	3	0.0500	0.0500	0	1	0.478	9	82	82
128	1	582	9	2	2	0.0500	0.0500	1	1	0.443	0	82	0
128	1	583	1	2	3	0.0500	0.0500	0	1	0.540	81	0	0
128	1	584	0	2	2	0.0500	0.0500	1	1	0.538	8	0	82
128	1	585	1	2	3	0.0500	0.0500	1	1	0.349	100	82	0
128	1	586	0	2	2	0.0500	0.0500	0	1	0.793	6	82	82
128	1	587	9	2	2	0.0500	0.0500	0	1	0.339	0	82	82
128	1	588	1	1	3	0.0500	0.0500	0	1	0.689	66	0	0
128	1	589	9	2	2	0.0500	0.0500	1	1	0.336	0	82	0
128	1	590	1	1	2	0.0500	0.0500	0	1	0.446	90	0	0
128	1	591	0	2	2	0.0500	0.0500	1	1	0.502	8	0	82
128	1	592	1	2	1	0.0500	0.0500	0	1	0.572	78	0	0
128	1	593	9	1	1	0.0500	0.0500	1	0	0.486	0	0	82
128	1	594	1	2	2	0.0500	0.0500	0	1	0.435	91	0	0
128	1	595	1	1	1	0.0500	0.0500	1	0	0.605	0	0	82
128	1	596	0	1	1	0.0500	0.0500	1	1	0.708	6	82	0
128	1	597	1	1	3	0.0500	0.0500	0	1	0.480	87	0	0
128	1	598	9	2	3	0.0500	0.0500	1	0	0.654	0	0	82
128	1	599	1	1	1	0.0500	0.0500	1	1	0.518	83	0	82
128	1	600	0	1	2	0.0500	0.0500	0	1	0.499	9	82	82
128	1	601	0	1	2	0.0500	0.0500	0	1	0.467	9	82	82
128	1	602	1	1	1	0.0500	0.0500	1	0	0.433	0	0	82
128	1	603	9	1	3	0.0500	0.0500	1	1	0.641	0	82	0
128	1	604	9	1	2	0.0500	0.0500	0	1	1.009	0	0	0
128	1	605	9	2	1	0.0500	0.0500	0	1	0.643	0	82	82
128	1	606	1	2	3	0.0500	0.0500	1	1	0.371	98	82	0
128	1	607	1	2	3	0.0500	0.0500	1	1	0.349	100	82	0
128	1	608	0	1	3	0.0500	0.0500	0	1	0.463	9	82	82
128	1	609	0	1	1	0.0500	0.0500	0	1	0.412	9	82	82
128	1	610	1	2	3	0.0500	0.0500	1	1	0.334	100	82	0
128	1	611	0	2	3	0.0500	0.0500	0	1	0.636	7	82	82
128	1	612	0	1	1	0.0500	0.0500	1	1	0.750	6	82	0
128	1	613	9	2	2	0.0500	0.0500	1	1	0.499	0	0	82
128	1	614	1	2	2	0.0500	0.0500	0	1	0.440	91	0	0
128	1	615	0	2	2	0.0500	0.0500	1	1	0.503	8	0	82
128	1	616	1	2	3	0.0500	0.0500	0	0	0.515	0	0	0
128	1	617	1	1	3	0.0500	0.0500	0	0	0.576	0	0	0
128	1	618	0	2	2	0.0500	0.0500	0	1	0.441	9	82	82
128	1	619	1	2	3	0.0500	0.0500	1	1	0.458	89	82	0
128	1	620	9	2	3	0.0500	0.0500	1	1	0.377	0	82	0
128	1	621	1	1	1	0.0500	0.0500	1	1	0.757	59	0	82
128	1	622	0	1	3	0.0500	0.0500	0	1	0.538	8	82	82
128	1	623	0	1	3	0.0500	0.0500	0	1	0.454	9	82	82
128	1	624	9	2	2	0.0500	0.0500	1	1	0.381	0	82	0
128	1	625	0	1	3	0.0500	0.0500	0	1	0.543	8	82	82
128	1	626	9	1	1	0.0500	0.0500	1	1	0.705	0	82	0
128	1	627	9	2	3	0.0500	0.0500	0	1	0.709	0	0	0
128	1	628	1	1	3	0.0500	0.0500	0	1	0.570	78	0	0
128	1	629	9	2	1	0.0500	0.0500	1	0	0.646	0	0	82
128	1	630	0	2	3	0.0500	0.0500	0	1	0.559	8	82	82
128	1	631	9	2	2	0.0500	0.0500	0	1	0.387	0	82	82
128	1	632	9	1	3	0.0500	0.0500	1	1	0.503	0	0	82
128	1	633	0	2	3	0.0500	0.0500	0	1	0.613	7	82	82
128	1	634	0	1	3	0.0500	0.0500	1	1	0.613	7	82	0
128	1	635	0	1	1	0.0500	0.0500	0	0	0.468	0	82	82
128	1	636	1	2	3	0.0500	0.0500	1	1	0.402	95	82	0
128	1	637	9	2	3	0.0500	0.0500	1	1	0.387	0	82	0
128	1	638	1	1	1	0.0500	0.0500	0	1	0.532	82	0	0
128	1	639	9	2	1	0.0500	0.0500	1	1	0.344	0	82	0
128	1	640	0	1	1	0.0500	0.0500	0	1	0.691	7	82	82
128	1	641	0	1	1	0.0500	0.0500	1	1	0.720	6	82	0
128	1	642	9	1	3	0.0500	0.0500	0	1	0.647	0	82	82
128	1	643	0	2	2	0.0500	0.0500	0	1	0.582	8	82	82
128	1	644	1	1	3	0.0500	0.0500	0	1	0.504	85	0	0
128	1	645	9	2	3	0.0500	0.0500	0	1	0.694	0	0	0
128	1	646	0	1	3	0.0500	0.0500	0	1	0.468	9	82	82
128	1	647	0	2	3	0.0500	0.0500	1	1	0.627	7	0	82
128	1	648	0	2	2	0.0500	0.0500	0	1	0.409	9	82	82
128	1	649	9	1	3	0.0500	0.0500	0	1	0.617	0	82	82
128	1	650	1	2	3	0.0500	0.0500	1	1	0.329	100	82	0
128	1	651	1	1	1	0.0500	0.0500	1	0	0.702	0	0	82
128	1	652	9	2	2	0.0500	0.0500	1	0	0.764	0	0	82
128	1	653	9	2	2	0.0500	0.0500	0	1	0.446	0	0	0
128	1	654	1	1	1	0.0500	0.0500	0	1	0.526	82	0	0
128	1	655	0	2	3	0.0500	0.0500	1	1	0.658	7	0	82
128	1	656	1	2	3	0.0500	0.0500	1	1	0.312	100	82	0
128	1	657	0	1	1	0.0500	0.0500	1	1	0.974	5	82	0
128	1	658	0	2	3	0.0500	0.0500	1	0	0.473	0	0	82
128	1	659	9	1	3	0.0500	0.0500	1	1	0.561	0	82	0
128	1	660	9	2	3	0.0500	0.0500	1	1	0.582	0	0	82
128	1	661	1	2	3	0.0500	0.0500	0	1	0.569	78	0	0
128	1	662	9	1	3	0.0500	0.0500	0	1	0.564	0	82	82
128	1	663	1	2	1	0.0500	0.0500	0	1	0.471	88	0	0
128	1	664	0	2	2	0.0500	0.0500	0	1	0.412	9	82	82
128	1	665	1	2	3	0.0500	0.0500	1	1	0.461	89	82	0
128	1	666	1	2	3	0.0500	0.0500	0	0	0.361	0	0	0
128	1	667	1	2	3	0.0500	0.0500	0	1	0.418	93	0	0
128	1	668	1	2	2	0.0500	0.0500	1	1	0.521	83	82	0
128	1	669	0	1	1	0.0500	0.0500	1	1	0.662	7	82	0
128	1	670	9	1	3	0.0500	0.0500	0	0	0.706	0	0	0
128	1	671	9	1	2	0.0500	0.0500	1	0	1.254	0	82	0
128	1	672	0	1	1	0.0500	0.0500	1	1	0.813	5	82	0
128	1	673	1	2	2	0.0500	0.0500	1	1	0.365	98	82	0
128	1	674	0	1	2	0.0500	0.0500	1	1	0.687	7	82	0
128	1	675	0	1	3	0.0500	0.0500	0	1	0.588	8	82	82
128	1	676	1	2	2	0.0500	0.0500	1	1	0.399	95	82	0
128	1	677	0	2	3	0.0500	0.0500	0	1	0.633	7	82	82
128	1	678	1	1	1	0.0500	0.0500	0	1	0.546	80	0	0
128	1	679	0	1	3	0.0500	0.0500	1	0	0.652	0	82	0
128	1	680	1	1	1	0.0500	0.0500	1	1	0.476	87	0	82
128	1	681	9	2	2	0.0500	0.0500	1	1	0.453	0	0	82
128	1	682	1	1	2	0.0500	0.0500	1	1	0.419	93	0	82
128	1	683	0	2	1	0.0500	0.0500	0	0	0.618	0	82	82
128	1	684	0	1	1	0.0500	0.0500	1	1	0.738	6	82	0
128	1	685	1	2	2	0.0500	0.0500	1	1	0.359	99	82	0
128	1	686	0	2	1	0.0500	0.0500	1	1	0.672	7	0	82
128	1	687	1	2	3	0.0500	0.0500	0	1	0.528	82	0	0
128	1	688	0	1	3	0.0500	0.0500	1	0	0.580	0	82	0
128	1	689	1	1	1	0.0500	0.0500	1	1	0.478	87	0	82
128	1	690	0	2	2	0.0500	0.0500	0	1	0.490	9	82	82
128	1	691	1	1	3	0.0500	0.0500	1	1	0.455	89	0	82
128	1	692	0	1	1	0.0500	0.0500	0	1	0.685	7	82	82
128	1	693	1	1	3	0.0500	0.0500	0	1	0.419	93	0	0
128	1	694	0	1	1	0.0500	0.0500	0	1	0.338	10	82	82
128	1	695	9	1	1	0.0500	0.0500	1	0	0.567	0	82	0
128	1	696	9	1	3	0.0500	0.0500	1	1	0.593	0	0	82
128	1	697	0	2	3	0.0500	0.0500	1	1	0.691	7	0	82
128	1	698	9	2	2	0.0500	0.0500	0	1	0.472	0	0	0
128	1	699	0	2	3	0.0500	0.0500	0	1	0.615	7	82	82
128	1	700	1	1	1	0.0500	0.0500	1	1	0.630	72	0	82
128	1	701	0	1	1	0.0500	0.0500	0	1	0.405	9	82	82
128	1	702	0	2	3	0.0500	0.0500	1	0	0.639	0	0	82
128	1	703	9	2	1	0.0500	0.0500	0	1	0.625	0	0	0
128	1	704	1	1	3	0.0500	0.0500	1	1	0.441	91	0	82
128	1	705	0	1	3	0.0500	0.0500	1	1	0.809	5	82	0
128	1	706	1	2	3	0.0500	0.0500	0	1	0.512	84	0	0
128	1	707	1	2	2	0.0500	0.0500	0	1	0.596	75	0	0
128	1	708	1	2	3	0.0500	0.0500	1	1	0.472	88	82	0
128	1	709	1	1	3	0.0500	0.0500	0	1	0.871	50	0	0
128	1	710	0	2	2	0.0500	0.0500	1	0	0.903	0	0	82
128	1	711	1	1	3	0.0500	0.0500	1	1	0.412	94	0	82
128	1	712	0	1	2	0.0500	0.0500	0	0	0.509	0	82	82
128	1	713	1	2	3	0.0500	0.0500	1	1	0.312	100	82	0
128	1	714	0	1	3	0.0500	0.0500	1	1	0.639	7	82	0
128	1	715	0	2	1	0.0500	0.0500	0	1	0.473	9	82	82
128	1	716	0	2	3	0.0500	0.0500	0	1	0.377	10	82	82
128	1	717	0	2	2	0.0500	0.0500	1	0	0.708	0	0	82
128	1	718	1	2	3	0.0500	0.0500	1	1	0.312	100	82	0
128	1	719	0	1	1	0.0500	0.0500	0	0	0.581	0	82	82
128	1	720	0	2	2	0.0500	0.0500	1	1	0.583	8	0	82
