sub	sess	t	rew	loc	cue	co1	co2	or	resp	rt	rew_tot	left_col	right_col
18	1	1	1	1	1	0.1733	0.0500	1	1	0.865	50	0	82
18	1	2	0	1	1	0.1733	0.0500	1	1	0.934	5	82	0
18	1	3	9	1	1	0.1733	0.0500	1	1	0.809	0	82	0
18	1	4	1	2	2	0.1733	0.0500	0	1	0.927	50	0	0
18	1	5	1	2	1	0.1733	0.0500	1	0	1.196	0	82	0
18	1	6	1	1	3	0.1733	0.0500	0	1	0.741	61	0	0
18	1	7	0	2	3	0.1733	0.0500	1	1	1.506	5	0	82
18	1	8	0	1	3	0.1733	0.0500	1	1	0.705	6	82	0
18	1	9	1	2	2	0.1733	0.0500	1	1	0.893	50	82	0
18	1	10	1	2	2	0.1733	0.0500	0	1	0.730	62	0	0
18	1	11	1	2	1	0.1733	0.0500	1	1	1.120	50	82	0
18	1	12	0	1	1	0.1733	0.0500	1	1	0.701	6	82	0
18	1	13	1	2	2	0.1733	0.0500	0	1	0.635	72	0	0
18	1	14	0	2	3	0.1733	0.0500	1	1	1.845	5	0	82
18	1	15	0	2	2	0.1733	0.0500	0	1	0.644	7	82	82
18	1	16	1	2	3	0.1733	0.0500	0	1	0.756	59	0	0
18	1	17	1	1	1	0.1733	0.0500	0	1	0.775	57	0	0
18	1	18	0	2	3	0.1733	0.0500	1	1	1.122	5	0	82
18	1	19	1	2	2	0.1733	0.0500	0	1	0.664	69	0	0
18	1	20	9	2	3	0.1733	0.0500	1	1	1.311	0	82	0
18	1	21	1	2	2	0.1733	0.0500	0	1	0.636	71	0	0
18	1	22	0	2	2	0.1733	0.0500	0	1	0.508	8	82	82
18	1	23	1	2	2	0.1733	0.0500	1	1	0.839	51	82	0
18	1	24	1	2	3	0.1733	0.0500	1	1	0.945	50	82	0
18	1	25	0	2	2	0.1733	0.0500	0	1	0.523	8	82	82
18	1	26	0	2	2	0.1733	0.0500	0	1	0.537	8	82	82
18	1	27	0	1	1	0.1733	0.0500	0	1	0.781	6	82	82
18	1	28	1	2	3	0.1733	0.0500	0	1	0.727	62	0	0
18	1	29	1	1	1	0.1733	0.0500	1	1	0.643	71	0	82
18	1	30	0	1	3	0.1733	0.0500	1	0	0.857	0	82	0
18	1	31	1	1	3	0.1733	0.0500	1	1	0.894	50	0	82
18	1	32	0	1	3	0.1733	0.0500	1	1	0.940	5	82	0
18	1	33	0	1	3	0.1733	0.0500	0	1	0.818	5	82	82
18	1	34	0	1	3	0.1733	0.0500	0	1	0.730	6	82	82
18	1	35	0	2	1	0.1733	0.0500	0	1	1.860	5	82	82
18	1	36	0	2	2	0.1733	0.0500	0	1	0.701	6	82	82
18	1	37	0	1	3	0.1733	0.0500	0	0	0.857	0	82	82
18	1	38	9	2	3	0.1733	0.0500	1	0	1.190	0	0	82
18	1	39	1	1	2	0.1733	0.0500	0	1	0.840	51	0	0
18	1	40	0	1	3	0.1733	0.0500	1	1	0.714	6	82	0
18	1	41	0	1	1	0.1733	0.0500	0	1	0.603	7	82	82
18	1	42	1	1	1	0.1733	0.0500	1	1	0.747	60	0	82
18	1	43	1	2	3	0.1733	0.0500	1	1	1.061	50	82	0
18	1	44	0	2	2	0.1733	0.0500	0	1	0.691	7	82	82
18	1	45	1	2	3	0.1733	0.0500	0	0	1.178	0	0	0
18	1	46	0	2	2	0.1733	0.0500	0	1	0.653	7	82	82
18	1	47	9	1	1	0.1733	0.0500	0	1	0.629	0	82	82
18	1	48	0	2	2	0.1733	0.0500	0	1	0.676	7	82	82
18	1	49	1	1	3	0.1733	0.0500	1	1	0.617	73	0	82
18	1	50	0	1	3	0.1733	0.0500	0	1	0.763	6	82	82
18	1	51	1	2	2	0.1733	0.0500	1	1	0.724	63	82	0
18	1	52	1	2	1	0.1733	0.0500	0	1	1.393	50	0	0
18	1	53	1	1	2	0.1733	0.0500	1	1	0.697	65	0	82
18	1	54	1	1	2	0.1733	0.0500	1	0	1.238	0	0	82
18	1	55	9	2	2	0.1733	0.0500	0	1	0.748	0	0	0
18	1	56	1	2	2	0.1733	0.0500	1	1	0.726	62	82	0
18	1	57	0	1	3	0.1733	0.0500	0	1	0.812	5	82	82
18	1	58	1	2	2	0.1733	0.0500	0	1	0.764	59	0	0
18	1	59	9	2	1	0.1733	0.0500	1	0	1.510	0	0	82
18	1	60	1	2	2	0.1733	0.0500	0	1	0.586	76	0	0
18	1	61	0	2	1	0.1733	0.0500	0	1	1.287	5	82	82
18	1	62	1	1	1	0.1733	0.0500	0	1	0.437	91	0	0
18	1	63	0	1	3	0.1733	0.0500	0	1	1.405	5	82	82
18	1	64	1	1	1	0.1733	0.0500	0	1	0.503	85	0	0
18	1	65	1	1	1	0.1733	0.0500	1	1	0.614	74	0	82
18	1	66	1	2	2	0.1733	0.0500	1	1	1.014	50	82	0
18	1	67	0	1	3	0.1733	0.0500	1	1	0.760	6	82	0
18	1	68	0	1	1	0.1733	0.0500	1	1	0.731	6	82	0
18	1	69	1	1	3	0.1733	0.0500	0	1	0.741	61	0	0
18	1	70	1	2	3	0.1733	0.0500	1	1	1.314	50	82	0
18	1	71	0	2	2	0.1733	0.0500	1	1	0.885	5	0	82
18	1	72	0	1	1	0.1733	0.0500	0	1	0.532	8	82	82
18	1	73	0	2	3	0.1733	0.0500	0	1	0.630	7	82	82
18	1	74	1	1	1	0.1733	0.0500	1	0	0.966	0	0	82
18	1	75	9	1	1	0.1733	0.0500	1	1	0.609	0	82	0
18	1	76	0	2	3	0.1733	0.0500	0	1	0.751	6	82	82
18	1	77	0	2	2	0.1733	0.0500	0	1	0.540	8	82	82
18	1	78	9	1	3	0.1733	0.0500	1	1	0.919	0	0	82
18	1	79	9	2	2	0.1733	0.0500	1	1	0.757	0	0	82
18	1	80	0	1	3	0.1733	0.0500	1	1	0.783	6	82	0
18	1	81	9	1	3	0.1733	0.0500	1	1	0.750	0	0	82
18	1	82	0	1	1	0.1733	0.0500	0	1	0.544	8	82	82
18	1	83	1	1	1	0.1733	0.0500	1	1	0.674	68	0	82
18	1	84	0	1	2	0.1733	0.0500	1	1	1.583	5	82	0
18	1	85	1	2	3	0.1733	0.0500	1	0	0.921	0	82	0
18	1	86	9	2	3	0.1733	0.0500	1	1	0.797	0	82	0
18	1	87	1	2	3	0.1733	0.0500	1	1	0.726	62	82	0
18	1	88	9	1	1	0.1733	0.0500	0	1	0.580	0	0	0
18	1	89	1	1	1	0.1733	0.0500	1	1	0.693	66	0	82
18	1	90	1	2	3	0.1733	0.0500	0	1	0.692	66	0	0
18	1	91	0	2	3	0.1733	0.0500	0	1	0.748	6	82	82
18	1	92	9	2	3	0.1733	0.0500	0	1	0.663	0	82	82
18	1	93	1	1	1	0.1733	0.0500	0	1	0.741	61	0	0
18	1	94	0	1	3	0.1733	0.0500	0	1	0.761	6	82	82
18	1	95	0	1	3	0.1733	0.0500	1	1	0.858	5	82	0
18	1	96	0	2	3	0.1733	0.0500	0	1	0.666	7	82	82
18	1	97	0	2	3	0.1733	0.0500	1	1	1.970	5	0	82
18	1	98	1	1	3	0.1733	0.0500	1	0	0.732	0	0	82
18	1	99	1	2	2	0.1733	0.0500	0	1	0.617	73	0	0
18	1	100	0	2	3	0.1733	0.0500	1	1	2.097	5	0	82
18	1	101	0	2	2	0.1733	0.0500	0	1	0.662	7	82	82
18	1	102	1	2	2	0.1733	0.0500	1	1	0.931	50	82	0
18	1	103	0	2	2	0.1733	0.0500	1	1	0.991	5	0	82
18	1	104	0	1	1	0.1733	0.0500	1	1	18.520	5	82	0
18	1	105	0	1	3	0.1733	0.0500	1	1	1.043	5	82	0
18	1	106	0	2	2	0.1733	0.0500	1	1	0.869	5	0	82
18	1	107	9	1	3	0.1733	0.0500	0	1	0.723	0	82	82
18	1	108	1	2	2	0.1733	0.0500	1	0	1.242	0	82	0
18	1	109	0	1	1	0.1733	0.0500	0	1	0.552	8	82	82
18	1	110	9	1	3	0.1733	0.0500	0	1	0.779	0	82	82
18	1	111	0	1	1	0.1733	0.0500	0	1	0.631	7	82	82
18	1	112	0	2	3	0.1733	0.0500	0	1	1.079	5	82	82
18	1	113	1	2	3	0.1733	0.0500	0	0	1.007	0	0	0
18	1	114	1	1	3	0.1733	0.0500	0	1	0.681	67	0	0
18	1	115	0	1	1	0.1733	0.0500	0	1	0.527	8	82	82
18	1	116	1	2	3	0.1733	0.0500	0	1	1.092	50	0	0
18	1	117	9	1	1	0.1733	0.0500	1	1	0.633	0	0	82
18	1	118	0	2	2	0.1733	0.0500	0	1	0.657	7	82	82
18	1	119	9	1	2	0.1733	0.0500	1	1	0.800	0	82	0
18	1	120	9	1	1	0.1733	0.0500	1	1	0.704	0	82	0
18	1	121	9	2	2	0.1733	0.0500	0	1	0.717	0	0	0
18	1	122	0	1	3	0.1733	0.0500	0	1	1.402	5	82	82
18	1	123	1	2	3	0.1733	0.0500	1	0	1.236	0	82	0
18	1	124	0	2	2	0.1733	0.0500	1	1	0.605	7	0	82
18	1	125	9	2	2	0.1733	0.0500	1	1	0.663	0	0	82
18	1	126	1	1	2	0.1733	0.0500	0	1	0.687	66	0	0
18	1	127	0	1	3	0.1733	0.0500	1	1	0.907	5	82	0
18	1	128	1	2	2	0.1733	0.0500	1	1	2.008	50	82	0
18	1	129	1	2	2	0.1733	0.0500	1	1	0.737	61	82	0
18	1	130	0	1	1	0.1733	0.0500	1	1	0.556	8	82	0
18	1	131	9	2	3	0.1733	0.0500	1	1	1.000	0	0	82
18	1	132	0	1	3	0.1733	0.0500	0	1	0.883	5	82	82
18	1	133	0	1	2	0.1733	0.0500	0	1	2.329	5	82	82
18	1	134	1	2	3	0.1733	0.0500	1	1	0.879	50	82	0
18	1	135	9	2	3	0.1733	0.0500	1	1	0.660	0	0	82
18	1	136	9	1	3	0.1733	0.0500	0	1	0.777	0	82	82
18	1	137	0	2	3	0.1733	0.0500	1	1	0.829	5	0	82
18	1	138	1	1	3	0.1733	0.0500	0	1	0.764	59	0	0
18	1	139	0	1	1	0.1733	0.0500	0	1	0.655	7	82	82
18	1	140	1	1	3	0.1733	0.0500	0	1	0.663	69	0	0
18	1	141	0	1	2	0.1733	0.0500	1	1	1.498	5	82	0
18	1	142	0	2	1	0.1733	0.0500	1	1	1.199	5	0	82
18	1	143	1	2	3	0.1733	0.0500	0	1	0.593	76	0	0
18	1	144	1	2	3	0.1733	0.0500	0	1	0.706	64	0	0
18	1	145	0	2	2	0.1733	0.0500	1	1	0.888	5	0	82
18	1	146	0	1	1	0.1733	0.0500	0	1	0.536	8	82	82
18	1	147	0	1	3	0.1733	0.0500	1	1	1.035	5	82	0
18	1	148	0	1	3	0.1733	0.0500	0	1	0.618	7	82	82
18	1	149	0	2	2	0.1733	0.0500	0	1	0.649	7	82	82
18	1	150	1	1	1	0.1733	0.0500	0	1	1.073	50	0	0
18	1	151	1	2	3	0.1733	0.0500	0	1	0.689	66	0	0
18	1	152	1	1	1	0.1733	0.0500	1	1	0.639	71	0	82
18	1	153	9	1	2	0.1733	0.0500	1	1	0.773	0	0	82
18	1	154	9	1	3	0.1733	0.0500	0	1	0.721	0	82	82
18	1	155	1	2	2	0.1733	0.0500	0	1	0.622	73	0	0
18	1	156	0	2	3	0.1733	0.0500	0	1	0.655	7	82	82
18	1	157	0	1	1	0.1733	0.0500	0	1	0.670	7	82	82
18	1	158	0	1	3	0.1733	0.0500	1	1	0.859	5	82	0
18	1	159	0	1	1	0.1733	0.0500	1	1	0.708	6	82	0
18	1	160	9	2	2	0.1733	0.0500	0	1	0.766	0	82	82
18	1	161	9	2	3	0.1733	0.0500	1	1	0.800	0	82	0
18	1	162	1	1	3	0.1733	0.0500	0	1	0.624	73	0	0
18	1	163	0	2	3	0.1733	0.0500	0	1	0.624	7	82	82
18	1	164	1	1	3	0.1733	0.0500	0	1	0.608	74	0	0
18	1	165	9	2	2	0.1733	0.0500	1	1	0.849	0	82	0
18	1	166	1	1	1	0.1733	0.0500	0	1	0.503	85	0	0
18	1	167	0	2	1	0.1733	0.0500	1	0	0.676	0	0	82
18	1	168	1	2	3	0.1733	0.0500	1	0	1.953	0	82	0
18	1	169	0	1	3	0.1733	0.0500	0	1	0.604	7	82	82
18	1	170	0	2	2	0.1733	0.0500	1	1	0.630	7	0	82
18	1	171	0	2	1	0.1733	0.0500	0	1	0.765	6	82	82
18	1	172	0	1	2	0.1733	0.0500	0	0	1.958	0	82	82
18	1	173	0	1	3	0.1733	0.0500	0	1	0.585	8	82	82
18	1	174	1	1	1	0.1733	0.0500	0	1	0.508	84	0	0
18	1	175	1	1	1	0.1733	0.0500	0	1	0.416	93	0	0
18	1	176	9	2	3	0.1733	0.0500	0	1	1.026	0	82	82
18	1	177	1	2	1	0.1733	0.0500	1	0	0.788	0	82	0
18	1	178	1	2	3	0.1733	0.0500	1	0	1.511	0	82	0
18	1	179	0	1	3	0.1733	0.0500	0	1	0.974	5	82	82
18	1	180	9	2	3	0.1733	0.0500	0	0	2.017	0	0	0
18	1	181	0	1	3	0.1733	0.0500	1	1	0.905	5	82	0
18	1	182	1	1	1	0.1733	0.0500	0	1	0.534	82	0	0
18	1	183	9	2	3	0.1733	0.0500	0	1	0.570	0	82	82
18	1	184	0	1	1	0.1733	0.0500	1	1	0.564	8	82	0
18	1	185	0	1	1	0.1733	0.0500	0	1	0.423	9	82	82
18	1	186	0	2	2	0.1733	0.0500	1	1	0.632	7	0	82
18	1	187	1	2	2	0.1733	0.0500	1	1	0.583	77	82	0
18	1	188	1	1	3	0.1733	0.0500	1	1	1.035	50	0	82
18	1	189	0	2	2	0.1733	0.0500	1	1	0.619	7	0	82
18	1	190	0	2	3	0.1733	0.0500	0	1	0.682	7	82	82
18	1	191	1	2	2	0.1733	0.0500	0	1	0.646	70	0	0
18	1	192	1	1	3	0.1733	0.0500	1	1	0.781	57	0	82
18	1	193	0	2	3	0.1733	0.0500	0	1	0.638	7	82	82
18	1	194	1	1	3	0.1733	0.0500	1	1	0.646	70	0	82
18	1	195	9	2	1	0.1733	0.0500	0	1	1.012	0	0	0
18	1	196	1	1	3	0.1733	0.0500	0	1	0.614	74	0	0
18	1	197	0	1	2	0.1733	0.0500	1	1	1.093	5	82	0
18	1	198	0	1	3	0.1733	0.0500	1	1	1.011	5	82	0
18	1	199	1	1	2	0.1733	0.0500	0	0	0.884	0	0	0
18	1	200	1	2	3	0.1733	0.0500	1	0	2.290	0	82	0
18	1	201	0	2	3	0.1733	0.0500	1	1	6.632	5	0	82
18	1	202	1	1	1	0.1733	0.0500	0	1	0.472	88	0	0
18	1	203	9	2	2	0.1733	0.0500	0	1	0.584	0	0	0
18	1	204	9	1	1	0.1733	0.0500	1	1	0.536	0	0	82
18	1	205	1	2	3	0.1733	0.0500	1	1	1.165	50	82	0
18	1	206	1	2	1	0.1733	0.0500	0	1	0.479	87	0	0
18	1	207	1	1	3	0.1733	0.0500	0	1	0.589	76	0	0
18	1	208	1	2	2	0.1733	0.0500	0	1	0.504	85	0	0
18	1	209	9	2	2	0.1733	0.0500	1	1	0.694	0	82	0
18	1	210	1	2	3	0.1733	0.0500	1	1	0.750	60	82	0
18	1	211	0	2	2	0.1733	0.0500	1	1	0.648	7	0	82
18	1	212	1	1	1	0.1733	0.0500	1	1	0.527	82	0	82
18	1	213	0	1	1	0.1733	0.0500	1	0	0.746	0	82	0
18	1	214	9	2	2	0.1733	0.0500	1	0	0.901	0	0	82
18	1	215	9	1	1	0.1733	0.0500	0	1	0.547	0	82	82
18	1	216	0	1	3	0.1733	0.0500	0	1	1.016	5	82	82
18	1	217	0	2	3	0.1733	0.0500	0	1	0.631	7	82	82
18	1	218	0	2	3	0.1733	0.0500	1	1	0.702	6	0	82
18	1	219	1	2	1	0.1733	0.0500	0	0	0.426	0	0	0
18	1	220	0	1	1	0.1733	0.0500	1	1	0.787	6	82	0
18	1	221	1	1	3	0.1733	0.0500	1	1	1.622	50	0	82
18	1	222	1	2	3	0.1733	0.0500	0	1	0.720	63	0	0
18	1	223	0	2	1	0.1733	0.0500	0	1	0.659	7	82	82
18	1	224	1	2	1	0.1733	0.0500	0	0	0.825	0	0	0
18	1	225	9	1	3	0.1733	0.0500	1	1	1.001	0	82	0
18	1	226	1	1	3	0.1733	0.0500	1	1	1.113	50	0	82
18	1	227	1	1	2	0.1733	0.0500	1	0	0.764	0	0	82
18	1	228	9	1	1	0.1733	0.0500	0	1	0.509	0	0	0
18	1	229	9	2	3	0.1733	0.0500	0	1	1.753	0	0	0
18	1	230	1	1	3	0.1733	0.0500	1	1	2.308	50	0	82
18	1	231	1	1	1	0.1733	0.0500	0	1	0.584	77	0	0
18	1	232	0	2	1	0.1733	0.0500	1	0	0.840	0	0	82
18	1	233	0	2	2	0.1733	0.0500	1	1	0.935	5	0	82
18	1	234	1	2	3	0.1733	0.0500	0	1	0.746	60	0	0
18	1	235	1	2	2	0.1733	0.0500	1	1	0.731	62	82	0
18	1	236	9	1	2	0.1733	0.0500	0	0	1.286	0	0	0
18	1	237	0	1	3	0.1733	0.0500	0	1	1.274	5	82	82
18	1	238	0	1	3	0.1733	0.0500	1	1	1.290	5	82	0
18	1	239	0	1	1	0.1733	0.0500	1	1	0.641	7	82	0
18	1	240	1	2	3	0.1733	0.0500	0	1	0.639	71	0	0
18	1	241	0	2	3	0.1733	0.0500	1	1	1.536	5	0	82
18	1	242	1	2	3	0.1733	0.0500	0	1	0.651	70	0	0
18	1	243	0	1	1	0.1733	0.0500	1	1	0.563	8	82	0
18	1	244	1	2	2	0.1733	0.0500	1	1	0.645	71	82	0
18	1	245	0	2	3	0.1733	0.0500	0	1	0.606	7	82	82
18	1	246	1	1	1	0.1733	0.0500	1	1	0.629	72	0	82
18	1	247	0	2	2	0.1733	0.0500	1	1	0.582	8	0	82
18	1	248	0	2	2	0.1733	0.0500	0	1	0.527	8	82	82
18	1	249	9	2	3	0.1733	0.0500	0	1	0.586	0	82	82
18	1	250	9	2	3	0.1733	0.0500	1	0	1.458	0	0	82
18	1	251	0	2	2	0.1733	0.0500	1	1	0.560	8	0	82
18	1	252	0	2	3	0.1733	0.0500	0	1	0.634	7	82	82
18	1	253	0	1	1	0.1733	0.0500	1	1	0.587	8	82	0
18	1	254	0	1	1	0.1733	0.0500	1	1	0.519	8	82	0
18	1	255	0	2	3	0.1733	0.0500	1	1	0.801	5	0	82
18	1	256	9	2	2	0.1733	0.0500	1	1	0.747	0	82	0
18	1	257	1	1	3	0.1733	0.0500	1	1	0.677	67	0	82
18	1	258	1	2	2	0.1733	0.0500	1	1	0.931	50	82	0
18	1	259	1	2	3	0.1733	0.0500	1	1	0.846	50	82	0
18	1	260	1	1	3	0.1733	0.0500	1	1	0.877	50	0	82
18	1	261	9	1	2	0.1733	0.0500	0	0	1.217	0	82	82
18	1	262	9	1	1	0.1733	0.0500	0	1	0.544	0	0	0
18	1	263	1	1	3	0.1733	0.0500	0	1	0.796	55	0	0
18	1	264	0	2	3	0.1733	0.0500	1	1	0.734	6	0	82
18	1	265	1	1	1	0.1733	0.0500	0	1	0.452	90	0	0
18	1	266	0	1	1	0.1733	0.0500	1	1	0.604	7	82	0
18	1	267	1	2	2	0.1733	0.0500	1	1	0.622	73	82	0
18	1	268	1	2	2	0.1733	0.0500	0	1	0.581	77	0	0
18	1	269	1	2	3	0.1733	0.0500	0	1	1.481	50	0	0
18	1	270	0	1	2	0.1733	0.0500	0	0	0.695	0	82	82
18	1	271	0	2	3	0.1733	0.0500	0	1	1.283	5	82	82
18	1	272	1	1	1	0.1733	0.0500	0	1	0.562	79	0	0
18	1	273	0	1	1	0.1733	0.0500	0	1	0.461	9	82	82
18	1	274	0	1	1	0.1733	0.0500	0	1	0.474	9	82	82
18	1	275	9	1	1	0.1733	0.0500	1	1	0.544	0	0	82
18	1	276	1	2	3	0.1733	0.0500	1	1	0.811	54	82	0
18	1	277	1	1	1	0.1733	0.0500	1	1	0.541	81	0	82
18	1	278	9	2	3	0.1733	0.0500	0	0	1.186	0	0	0
18	1	279	9	1	3	0.1733	0.0500	0	1	0.611	0	0	0
18	1	280	1	1	3	0.1733	0.0500	1	1	0.580	77	0	82
18	1	281	1	1	3	0.1733	0.0500	1	1	0.665	69	0	82
18	1	282	1	2	3	0.1733	0.0500	0	1	0.569	78	0	0
18	1	283	0	2	3	0.1733	0.0500	1	1	0.709	6	0	82
18	1	284	1	1	3	0.1733	0.0500	0	1	0.596	75	0	0
18	1	285	1	2	2	0.1733	0.0500	0	1	0.590	76	0	0
18	1	286	9	2	3	0.1733	0.0500	0	1	0.678	0	0	0
18	1	287	1	1	2	0.1733	0.0500	0	0	1.004	0	0	0
18	1	288	0	1	2	0.1733	0.0500	1	0	0.813	0	82	0
18	1	289	9	1	3	0.1733	0.0500	1	1	1.199	0	82	0
18	1	290	1	1	1	0.1733	0.0500	1	1	0.618	73	0	82
18	1	291	0	1	1	0.1733	0.0500	0	1	0.579	8	82	82
18	1	292	1	1	3	0.1733	0.0500	0	1	0.748	60	0	0
18	1	293	1	2	2	0.1733	0.0500	0	1	0.551	80	0	0
18	1	294	1	1	3	0.1733	0.0500	1	1	0.713	64	0	82
18	1	295	1	1	1	0.1733	0.0500	1	1	0.894	50	0	82
18	1	296	0	1	1	0.1733	0.0500	1	1	0.549	8	82	0
18	1	297	9	1	1	0.1733	0.0500	0	1	0.591	0	82	82
18	1	298	1	2	1	0.1733	0.0500	1	0	0.817	0	82	0
18	1	299	9	1	3	0.1733	0.0500	0	1	0.577	0	0	0
18	1	300	0	1	1	0.1733	0.0500	0	1	0.661	7	82	82
18	1	301	9	1	1	0.1733	0.0500	1	1	0.623	0	0	82
18	1	302	0	2	2	0.1733	0.0500	1	1	0.583	8	0	82
18	1	303	9	1	3	0.1733	0.0500	1	1	1.615	0	0	82
18	1	304	9	1	3	0.1733	0.0500	1	1	1.033	0	82	0
18	1	305	1	1	1	0.1733	0.0500	0	1	0.497	85	0	0
18	1	306	9	1	1	0.1733	0.0500	0	1	0.470	0	82	82
18	1	307	0	2	2	0.1733	0.0500	0	1	0.550	8	82	82
18	1	308	9	1	3	0.1733	0.0500	0	1	0.609	0	0	0
18	1	309	9	1	1	0.1733	0.0500	0	1	0.507	0	0	0
18	1	310	9	1	1	0.1733	0.0500	1	1	1.114	0	82	0
18	1	311	0	2	2	0.1733	0.0500	0	1	0.613	7	82	82
18	1	312	1	1	2	0.1733	0.0500	1	1	0.790	56	0	82
18	1	313	1	1	1	0.1733	0.0500	1	1	0.545	81	0	82
18	1	314	1	1	3	0.1733	0.0500	0	1	0.643	71	0	0
18	1	315	1	1	1	0.1733	0.0500	0	1	0.483	87	0	0
18	1	316	9	2	2	0.1733	0.0500	1	1	0.563	0	0	82
18	1	317	1	2	2	0.1733	0.0500	0	1	0.668	68	0	0
18	1	318	9	2	2	0.1733	0.0500	0	1	0.619	0	82	82
18	1	319	0	2	3	0.1733	0.0500	0	1	0.774	6	82	82
18	1	320	9	2	1	0.1733	0.0500	0	1	0.655	0	82	82
18	1	321	0	2	3	0.1733	0.0500	0	1	0.625	7	82	82
18	1	322	1	2	3	0.1733	0.0500	0	1	0.537	81	0	0
18	1	323	0	2	3	0.1733	0.0500	1	1	2.539	5	0	82
18	1	324	1	1	3	0.1733	0.0500	1	0	1.441	0	0	82
18	1	325	1	1	3	0.1733	0.0500	0	1	0.617	73	0	0
18	1	326	0	1	1	0.1733	0.0500	0	1	0.456	9	82	82
18	1	327	9	2	2	0.1733	0.0500	0	1	0.712	0	82	82
18	1	328	0	1	2	0.1733	0.0500	0	0	2.563	0	82	82
18	1	329	9	2	3	0.1733	0.0500	1	1	0.901	0	82	0
18	1	330	9	1	3	0.1733	0.0500	1	1	1.017	0	0	82
18	1	331	0	2	3	0.1733	0.0500	0	1	0.644	7	82	82
18	1	332	1	1	1	0.1733	0.0500	0	1	0.516	83	0	0
18	1	333	1	2	2	0.1733	0.0500	1	1	0.771	58	82	0
18	1	334	1	1	3	0.1733	0.0500	0	1	0.678	67	0	0
18	1	335	0	2	2	0.1733	0.0500	0	1	0.564	8	82	82
18	1	336	1	2	3	0.1733	0.0500	1	1	1.085	50	82	0
18	1	337	1	2	2	0.1733	0.0500	0	0	1.157	0	0	0
18	1	338	9	2	2	0.1733	0.0500	0	1	0.705	0	0	0
18	1	339	9	2	2	0.1733	0.0500	1	0	2.783	0	82	0
18	1	340	0	2	3	0.1733	0.0500	1	1	0.736	6	0	82
18	1	341	0	1	3	0.1733	0.0500	1	1	0.851	5	82	0
18	1	342	9	2	2	0.1733	0.0500	0	1	0.529	0	82	82
18	1	343	0	2	2	0.1733	0.0500	1	1	0.606	7	0	82
18	1	344	0	2	3	0.1733	0.0500	1	1	0.631	7	0	82
18	1	345	1	1	3	0.1733	0.0500	1	1	1.096	50	0	82
18	1	346	1	1	1	0.1733	0.0500	1	1	0.551	80	0	82
18	1	347	1	1	3	0.1733	0.0500	0	1	0.604	75	0	0
18	1	348	0	1	3	0.1733	0.0500	0	1	0.599	8	82	82
18	1	349	0	1	1	0.1733	0.0500	1	1	0.575	8	82	0
18	1	350	0	2	3	0.1733	0.0500	1	1	1.152	5	0	82
18	1	351	9	1	3	0.1733	0.0500	1	1	1.068	0	82	0
18	1	352	0	2	1	0.1733	0.0500	1	0	0.612	0	0	82
18	1	353	0	2	2	0.1733	0.0500	1	1	0.635	7	0	82
18	1	354	0	1	3	0.1733	0.0500	1	1	1.188	5	82	0
18	1	355	9	2	1	0.1733	0.0500	1	0	0.781	0	82	0
18	1	356	1	2	2	0.1733	0.0500	1	1	0.511	84	82	0
18	1	357	0	2	2	0.1733	0.0500	1	1	0.602	7	0	82
18	1	358	1	1	1	0.1733	0.0500	1	1	0.561	79	0	82
18	1	359	1	2	3	0.1733	0.0500	1	1	1.324	50	82	0
18	1	360	9	1	3	0.1733	0.0500	0	1	0.962	0	0	0
18	1	361	1	1	1	0.1733	0.0500	1	1	0.529	82	0	82
18	1	362	0	2	3	0.1733	0.0500	1	1	0.948	5	0	82
18	1	363	9	1	1	0.1733	0.0500	1	1	0.545	0	82	0
18	1	364	1	1	2	0.1733	0.0500	1	1	2.734	50	0	82
18	1	365	9	1	3	0.1733	0.0500	0	1	0.627	0	0	0
18	1	366	1	1	3	0.1733	0.0500	1	0	2.156	0	0	82
18	1	367	9	1	2	0.1733	0.0500	1	1	1.847	0	0	82
18	1	368	1	2	3	0.1733	0.0500	0	1	0.861	50	0	0
18	1	369	1	1	1	0.1733	0.0500	1	1	0.573	78	0	82
18	1	370	9	1	3	0.1733	0.0500	0	1	0.751	0	0	0
18	1	371	1	2	3	0.1733	0.0500	0	1	0.682	67	0	0
18	1	372	9	1	2	0.1733	0.0500	0	1	3.167	0	82	82
18	1	373	0	1	3	0.1733	0.0500	0	1	0.777	6	82	82
18	1	374	0	1	3	0.1733	0.0500	1	1	0.581	8	82	0
18	1	375	0	1	1	0.1733	0.0500	1	1	0.661	7	82	0
18	1	376	0	2	3	0.1733	0.0500	0	1	0.909	5	82	82
18	1	377	1	2	2	0.1733	0.0500	0	1	0.664	69	0	0
18	1	378	9	2	3	0.1733	0.0500	1	1	0.935	0	82	0
18	1	379	1	1	1	0.1733	0.0500	1	1	0.645	71	0	82
18	1	380	1	2	3	0.1733	0.0500	1	0	2.092	0	82	0
18	1	381	0	1	2	0.1733	0.0500	0	1	0.845	5	82	82
18	1	382	9	2	3	0.1733	0.0500	1	1	0.724	0	82	0
18	1	383	1	1	3	0.1733	0.0500	1	1	0.592	76	0	82
18	1	384	1	2	3	0.1733	0.0500	0	1	0.667	68	0	0
18	1	385	9	1	1	0.1733	0.0500	1	1	0.512	0	0	82
18	1	386	1	1	3	0.1733	0.0500	0	1	0.830	52	0	0
18	1	387	0	1	1	0.1733	0.0500	1	1	0.580	8	82	0
18	1	388	1	2	1	0.1733	0.0500	1	0	0.688	0	82	0
18	1	389	1	2	2	0.1733	0.0500	1	1	0.535	81	82	0
18	1	390	0	1	3	0.1733	0.0500	0	0	1.589	0	82	82
18	1	391	1	1	1	0.1733	0.0500	1	1	0.975	50	0	82
18	1	392	0	2	2	0.1733	0.0500	1	1	0.713	6	0	82
18	1	393	1	2	2	0.1733	0.0500	1	1	0.663	69	82	0
18	1	394	1	2	1	0.1733	0.0500	1	0	0.637	0	82	0
18	1	395	9	2	2	0.1733	0.0500	1	1	0.660	0	82	0
18	1	396	1	2	3	0.1733	0.0500	0	1	0.722	63	0	0
18	1	397	1	2	1	0.1733	0.0500	0	1	0.903	50	0	0
18	1	398	1	1	1	0.1733	0.0500	0	1	0.547	80	0	0
18	1	399	1	2	2	0.1733	0.0500	0	0	0.949	0	0	0
18	1	400	1	2	2	0.1733	0.0500	0	1	0.482	87	0	0
18	1	401	1	2	2	0.1733	0.0500	1	0	0.554	0	82	0
18	1	402	1	1	3	0.1733	0.0500	1	1	0.727	62	0	82
18	1	403	0	2	2	0.1733	0.0500	0	1	0.548	8	82	82
18	1	404	9	1	1	0.1733	0.0500	1	1	0.521	0	0	82
18	1	405	0	1	1	0.1733	0.0500	0	1	0.447	9	82	82
18	1	406	1	1	2	0.1733	0.0500	0	1	1.327	50	0	0
18	1	407	1	1	3	0.1733	0.0500	1	1	0.632	72	0	82
18	1	408	0	1	2	0.1733	0.0500	0	1	0.720	6	82	82
18	1	409	1	1	1	0.1733	0.0500	0	1	0.477	87	0	0
18	1	410	1	2	3	0.1733	0.0500	0	1	0.636	71	0	0
18	1	411	0	2	3	0.1733	0.0500	0	1	1.132	5	82	82
18	1	412	0	1	1	0.1733	0.0500	0	1	0.489	9	82	82
18	1	413	1	1	1	0.1733	0.0500	0	1	0.510	84	0	0
18	1	414	9	2	3	0.1733	0.0500	1	1	0.733	0	0	82
18	1	415	0	2	2	0.1733	0.0500	1	1	0.815	5	0	82
18	1	416	1	1	1	0.1733	0.0500	1	1	0.736	61	0	82
18	1	417	1	1	3	0.1733	0.0500	0	1	0.670	68	0	0
18	1	418	1	1	1	0.1733	0.0500	0	1	0.708	64	0	0
18	1	419	1	2	2	0.1733	0.0500	1	1	0.691	66	82	0
18	1	420	1	2	3	0.1733	0.0500	1	1	0.875	50	82	0
18	1	421	1	2	3	0.1733	0.0500	1	1	1.960	50	82	0
18	1	422	9	1	1	0.1733	0.0500	1	1	0.834	0	82	0
18	1	423	1	1	3	0.1733	0.0500	0	1	0.553	80	0	0
18	1	424	9	1	3	0.1733	0.0500	1	1	7.811	0	0	82
18	1	425	0	1	3	0.1733	0.0500	1	1	0.930	5	82	0
18	1	426	0	2	3	0.1733	0.0500	0	1	1.167	5	82	82
18	1	427	1	1	3	0.1733	0.0500	0	1	0.545	80	0	0
18	1	428	9	2	1	0.1733	0.0500	0	1	0.532	0	82	82
18	1	429	1	2	1	0.1733	0.0500	1	0	0.638	0	82	0
18	1	430	9	2	3	0.1733	0.0500	0	1	0.686	0	0	0
18	1	431	0	2	3	0.1733	0.0500	1	1	3.262	5	0	82
18	1	432	1	2	3	0.1733	0.0500	1	1	0.851	50	82	0
18	1	433	0	2	1	0.1733	0.0500	1	0	0.493	0	0	82
18	1	434	9	2	2	0.1733	0.0500	1	1	0.571	0	82	0
18	1	435	1	1	1	0.1733	0.0500	0	1	0.413	94	0	0
18	1	436	1	1	3	0.1733	0.0500	0	1	0.940	50	0	0
18	1	437	0	1	3	0.1733	0.0500	1	1	0.666	7	82	0
18	1	438	9	1	1	0.1733	0.0500	0	1	0.599	0	82	82
18	1	439	9	2	3	0.1733	0.0500	1	0	0.832	0	0	82
18	1	440	0	1	3	0.1733	0.0500	1	0	0.791	0	82	0
18	1	441	9	2	2	0.1733	0.0500	1	1	0.548	0	0	82
18	1	442	1	1	2	0.1733	0.0500	1	0	0.872	0	0	82
18	1	443	0	1	1	0.1733	0.0500	0	1	0.501	8	82	82
18	1	444	1	2	3	0.1733	0.0500	0	1	0.819	53	0	0
18	1	445	9	1	1	0.1733	0.0500	0	1	0.555	0	82	82
18	1	446	9	1	1	0.1733	0.0500	0	1	0.488	0	82	82
18	1	447	0	2	3	0.1733	0.0500	1	1	0.805	5	0	82
18	1	448	0	2	1	0.1733	0.0500	1	0	0.462	0	0	82
18	1	449	0	2	2	0.1733	0.0500	0	1	0.581	8	82	82
18	1	450	1	2	1	0.1733	0.0500	0	1	1.120	50	0	0
18	1	451	9	1	3	0.1733	0.0500	1	1	1.227	0	0	82
18	1	452	9	1	3	0.1733	0.0500	1	1	0.691	0	82	0
18	1	453	1	1	1	0.1733	0.0500	0	1	0.424	93	0	0
18	1	454	0	1	1	0.1733	0.0500	0	1	0.536	8	82	82
18	1	455	0	2	3	0.1733	0.0500	0	1	0.685	7	82	82
18	1	456	9	2	3	0.1733	0.0500	0	1	0.955	0	0	0
18	1	457	0	2	3	0.1733	0.0500	1	1	0.776	6	0	82
18	1	458	1	1	3	0.1733	0.0500	1	1	1.907	50	0	82
18	1	459	0	1	3	0.1733	0.0500	0	1	0.599	8	82	82
18	1	460	0	2	2	0.1733	0.0500	0	1	0.552	8	82	82
18	1	461	1	2	2	0.1733	0.0500	0	1	0.492	86	0	0
18	1	462	1	2	2	0.1733	0.0500	1	1	0.650	70	82	0
18	1	463	1	2	2	0.1733	0.0500	1	1	0.600	75	82	0
18	1	464	0	2	3	0.1733	0.0500	1	1	0.648	7	0	82
18	1	465	1	1	1	0.1733	0.0500	0	1	0.679	67	0	0
18	1	466	0	1	3	0.1733	0.0500	0	1	0.655	7	82	82
18	1	467	1	1	1	0.1733	0.0500	0	1	0.567	78	0	0
18	1	468	0	2	2	0.1733	0.0500	1	1	0.584	8	0	82
18	1	469	0	1	1	0.1733	0.0500	0	1	0.452	9	82	82
18	1	470	1	2	3	0.1733	0.0500	1	1	0.740	61	82	0
18	1	471	0	2	1	0.1733	0.0500	0	1	0.721	6	82	82
18	1	472	1	1	3	0.1733	0.0500	0	1	0.615	73	0	0
18	1	473	0	1	3	0.1733	0.0500	0	1	0.575	8	82	82
18	1	474	9	2	1	0.1733	0.0500	0	1	1.081	0	0	0
18	1	475	0	1	1	0.1733	0.0500	0	1	0.560	8	82	82
18	1	476	1	1	3	0.1733	0.0500	1	1	0.649	70	0	82
18	1	477	1	2	1	0.1733	0.0500	1	1	2.840	50	82	0
18	1	478	0	2	3	0.1733	0.0500	0	1	0.553	8	82	82
18	1	479	9	1	3	0.1733	0.0500	1	1	0.557	0	0	82
18	1	480	1	2	3	0.1733	0.0500	0	1	0.496	85	0	0
18	1	481	0	1	3	0.1733	0.0500	1	1	0.694	7	82	0
18	1	482	9	1	3	0.1733	0.0500	0	1	0.612	0	0	0
18	1	483	9	1	3	0.1733	0.0500	0	1	0.519	0	82	82
18	1	484	0	1	1	0.1733	0.0500	1	1	0.956	5	82	0
18	1	485	0	1	1	0.1733	0.0500	0	1	0.432	9	82	82
18	1	486	0	1	3	0.1733	0.0500	0	1	0.527	8	82	82
18	1	487	0	2	2	0.1733	0.0500	1	1	0.754	6	0	82
18	1	488	0	1	2	0.1733	0.0500	1	1	0.836	5	82	0
18	1	489	9	2	3	0.1733	0.0500	0	1	0.588	0	82	82
18	1	490	9	1	3	0.1733	0.0500	1	1	0.616	0	82	0
18	1	491	1	2	3	0.1733	0.0500	0	1	1.199	50	0	0
18	1	492	0	2	2	0.1733	0.0500	0	1	0.737	6	82	82
18	1	493	1	1	3	0.1733	0.0500	1	1	0.613	74	0	82
18	1	494	1	2	3	0.1733	0.0500	0	1	0.645	70	0	0
18	1	495	0	2	3	0.1733	0.0500	0	1	0.596	8	82	82
18	1	496	1	1	1	0.1733	0.0500	1	1	1.118	50	0	82
18	1	497	0	1	1	0.1733	0.0500	0	1	0.597	8	82	82
18	1	498	9	1	3	0.1733	0.0500	0	1	0.822	0	82	82
18	1	499	1	2	3	0.1733	0.0500	0	1	2.256	50	0	0
18	1	500	1	1	2	0.1733	0.0500	0	1	0.777	57	0	0
18	1	501	9	1	1	0.1733	0.0500	1	1	0.530	0	0	82
18	1	502	1	2	2	0.1733	0.0500	0	1	0.487	86	0	0
18	1	503	0	2	2	0.1733	0.0500	1	1	0.549	8	0	82
18	1	504	1	2	3	0.1733	0.0500	1	1	0.601	75	82	0
18	1	505	9	2	2	0.1733	0.0500	1	1	0.504	0	0	82
18	1	506	1	1	1	0.1733	0.0500	1	1	0.520	83	0	82
18	1	507	1	2	2	0.1733	0.0500	1	1	0.670	68	82	0
18	1	508	1	2	2	0.1733	0.0500	1	1	0.500	85	82	0
18	1	509	0	1	3	0.1733	0.0500	1	1	0.802	5	82	0
18	1	510	0	2	3	0.1733	0.0500	0	1	0.587	8	82	82
18	1	511	9	1	3	0.1733	0.0500	0	1	0.581	0	82	82
18	1	512	0	2	2	0.1733	0.0500	0	1	0.533	8	82	82
18	1	513	1	2	3	0.1733	0.0500	1	1	0.671	68	82	0
18	1	514	1	1	3	0.1733	0.0500	0	1	0.622	73	0	0
18	1	515	0	2	3	0.1733	0.0500	0	1	0.536	8	82	82
18	1	516	0	1	3	0.1733	0.0500	1	1	0.538	8	82	0
18	1	517	1	2	3	0.1733	0.0500	1	1	1.168	50	82	0
18	1	518	9	1	3	0.1733	0.0500	0	1	0.593	0	0	0
18	1	519	1	2	3	0.1733	0.0500	0	1	0.953	50	0	0
18	1	520	1	1	1	0.1733	0.0500	0	1	0.443	91	0	0
18	1	521	9	2	3	0.1733	0.0500	1	1	0.661	0	0	82
18	1	522	0	2	2	0.1733	0.0500	1	1	0.540	8	0	82
18	1	523	0	2	2	0.1733	0.0500	0	1	0.537	8	82	82
18	1	524	9	1	3	0.1733	0.0500	1	1	0.851	0	82	0
18	1	525	0	1	1	0.1733	0.0500	1	1	0.561	8	82	0
18	1	526	1	2	2	0.1733	0.0500	1	1	1.090	50	82	0
18	1	527	0	1	1	0.1733	0.0500	0	1	0.744	6	82	82
18	1	528	1	2	2	0.1733	0.0500	0	1	0.538	81	0	0
18	1	529	0	1	1	0.1733	0.0500	0	1	0.430	9	82	82
18	1	530	1	1	2	0.1733	0.0500	0	1	0.640	71	0	0
18	1	531	0	1	3	0.1733	0.0500	1	1	0.855	5	82	0
18	1	532	0	1	3	0.1733	0.0500	1	1	0.645	7	82	0
18	1	533	9	1	1	0.1733	0.0500	1	1	0.511	0	82	0
18	1	534	0	2	2	0.1733	0.0500	0	1	0.562	8	82	82
18	1	535	1	2	2	0.1733	0.0500	0	1	0.646	70	0	0
18	1	536	0	2	2	0.1733	0.0500	0	1	0.510	8	82	82
18	1	537	1	1	1	0.1733	0.0500	1	1	0.458	89	0	82
18	1	538	1	2	3	0.1733	0.0500	0	1	0.586	76	0	0
18	1	539	0	2	2	0.1733	0.0500	1	0	0.523	0	0	82
18	1	540	1	1	3	0.1733	0.0500	0	1	0.584	77	0	0
18	1	541	1	2	2	0.1733	0.0500	0	1	0.531	82	0	0
18	1	542	1	2	3	0.1733	0.0500	1	0	0.670	0	82	0
18	1	543	0	1	1	0.1733	0.0500	1	1	0.476	9	82	0
18	1	544	9	1	2	0.1733	0.0500	1	0	1.241	0	82	0
18	1	545	0	2	3	0.1733	0.0500	1	1	0.649	7	0	82
18	1	546	1	2	2	0.1733	0.0500	1	1	0.545	80	82	0
18	1	547	0	2	2	0.1733	0.0500	0	1	0.572	8	82	82
18	1	548	1	1	3	0.1733	0.0500	0	1	0.681	67	0	0
18	1	549	1	1	1	0.1733	0.0500	1	1	0.446	90	0	82
18	1	550	0	2	2	0.1733	0.0500	1	1	0.532	8	0	82
18	1	551	1	1	2	0.1733	0.0500	1	1	1.519	50	0	82
18	1	552	0	1	1	0.1733	0.0500	0	1	0.469	9	82	82
18	1	553	1	2	3	0.1733	0.0500	1	1	0.925	50	82	0
18	1	554	1	1	3	0.1733	0.0500	1	1	0.583	77	0	82
18	1	555	9	2	3	0.1733	0.0500	0	1	0.641	0	0	0
18	1	556	9	2	3	0.1733	0.0500	0	1	0.686	0	0	0
18	1	557	0	1	1	0.1733	0.0500	1	1	0.475	9	82	0
18	1	558	9	2	2	0.1733	0.0500	0	1	0.529	0	82	82
18	1	559	9	2	3	0.1733	0.0500	0	1	0.843	0	82	82
18	1	560	9	2	1	0.1733	0.0500	1	0	1.428	0	0	82
18	1	561	1	1	3	0.1733	0.0500	1	1	0.548	80	0	82
18	1	562	0	2	3	0.1733	0.0500	0	1	0.494	9	82	82
18	1	563	0	1	3	0.1733	0.0500	0	1	0.555	8	82	82
18	1	564	1	1	1	0.1733	0.0500	0	1	0.429	92	0	0
18	1	565	1	2	2	0.1733	0.0500	1	1	0.771	58	82	0
18	1	566	1	1	3	0.1733	0.0500	1	1	0.598	75	0	82
18	1	567	1	2	1	0.1733	0.0500	0	1	0.833	52	0	0
18	1	568	1	2	2	0.1733	0.0500	0	1	0.563	79	0	0
18	1	569	1	1	1	0.1733	0.0500	1	1	0.758	59	0	82
18	1	570	0	2	3	0.1733	0.0500	1	1	0.753	6	0	82
18	1	571	0	2	1	0.1733	0.0500	1	0	0.557	0	0	82
18	1	572	0	2	3	0.1733	0.0500	1	0	0.657	0	0	82
18	1	573	1	2	2	0.1733	0.0500	1	1	0.601	75	82	0
18	1	574	1	1	1	0.1733	0.0500	0	1	0.433	92	0	0
18	1	575	9	1	1	0.1733	0.0500	1	0	1.265	0	0	82
18	1	576	1	2	3	0.1733	0.0500	0	1	0.782	57	0	0
18	1	577	0	2	3	0.1733	0.0500	0	1	0.648	7	82	82
18	1	578	1	2	2	0.1733	0.0500	0	1	0.569	78	0	0
18	1	579	1	1	3	0.1733	0.0500	0	1	0.738	61	0	0
18	1	580	1	1	2	0.1733	0.0500	0	1	1.230	50	0	0
18	1	581	0	2	3	0.1733	0.0500	1	1	0.724	6	0	82
18	1	582	0	1	3	0.1733	0.0500	1	1	0.569	8	82	0
18	1	583	0	1	3	0.1733	0.0500	1	1	0.521	8	82	0
18	1	584	1	2	3	0.1733	0.0500	1	1	0.822	53	82	0
18	1	585	1	1	1	0.1733	0.0500	1	1	0.621	73	0	82
18	1	586	1	1	3	0.1733	0.0500	0	1	0.526	82	0	0
18	1	587	1	1	1	0.1733	0.0500	1	1	0.482	87	0	82
18	1	588	0	2	3	0.1733	0.0500	1	1	1.074	5	0	82
18	1	589	0	2	2	0.1733	0.0500	1	1	0.649	7	0	82
18	1	590	0	1	3	0.1733	0.0500	0	1	0.552	8	82	82
18	1	591	1	2	3	0.1733	0.0500	1	1	0.915	50	82	0
18	1	592	0	2	1	0.1733	0.0500	0	1	1.015	5	82	82
18	1	593	1	1	1	0.1733	0.0500	1	1	0.494	86	0	82
18	1	594	0	1	3	0.1733	0.0500	0	1	0.562	8	82	82
18	1	595	9	2	2	0.1733	0.0500	0	1	0.548	0	82	82
18	1	596	0	2	2	0.1733	0.0500	1	1	0.856	5	0	82
18	1	597	9	1	1	0.1733	0.0500	0	1	0.473	0	0	0
18	1	598	0	2	3	0.1733	0.0500	1	0	0.799	0	0	82
18	1	599	1	2	1	0.1733	0.0500	0	0	2.626	0	0	0
18	1	600	9	2	2	0.1733	0.0500	0	1	0.531	0	0	0
18	1	601	0	2	1	0.1733	0.0500	0	1	0.685	7	82	82
18	1	602	0	2	2	0.1733	0.0500	1	1	0.570	8	0	82
18	1	603	1	2	3	0.1733	0.0500	1	1	0.716	63	82	0
18	1	604	0	1	1	0.1733	0.0500	0	1	0.529	8	82	82
18	1	605	0	2	2	0.1733	0.0500	1	1	0.541	8	0	82
18	1	606	0	1	3	0.1733	0.0500	1	1	0.816	5	82	0
18	1	607	0	1	3	0.1733	0.0500	0	1	0.568	8	82	82
18	1	608	1	2	2	0.1733	0.0500	0	1	0.554	80	0	0
18	1	609	0	1	3	0.1733	0.0500	0	1	0.524	8	82	82
18	1	610	0	2	3	0.1733	0.0500	0	1	0.585	8	82	82
18	1	611	1	1	1	0.1733	0.0500	0	1	0.668	68	0	0
18	1	612	1	1	3	0.1733	0.0500	1	1	0.602	75	0	82
18	1	613	0	2	2	0.1733	0.0500	1	1	0.668	7	0	82
18	1	614	1	2	3	0.1733	0.0500	1	1	0.588	76	82	0
18	1	615	1	2	3	0.1733	0.0500	0	1	0.672	68	0	0
18	1	616	9	1	1	0.1733	0.0500	0	1	0.430	0	0	0
18	1	617	0	2	2	0.1733	0.0500	0	1	0.567	8	82	82
18	1	618	9	1	2	0.1733	0.0500	0	1	0.699	0	0	0
18	1	619	9	1	1	0.1733	0.0500	1	1	0.593	0	82	0
18	1	620	1	2	3	0.1733	0.0500	1	0	0.930	0	82	0
18	1	621	0	1	1	0.1733	0.0500	1	1	0.608	7	82	0
18	1	622	9	1	1	0.1733	0.0500	0	1	0.474	0	0	0
18	1	623	1	2	3	0.1733	0.0500	1	1	1.018	50	82	0
18	1	624	0	1	1	0.1733	0.0500	1	1	0.611	7	82	0
18	1	625	1	1	1	0.1733	0.0500	1	1	0.435	91	0	82
18	1	626	0	1	3	0.1733	0.0500	0	1	0.571	8	82	82
18	1	627	9	1	1	0.1733	0.0500	0	1	0.501	0	82	82
18	1	628	0	1	3	0.1733	0.0500	0	1	0.530	8	82	82
18	1	629	1	2	2	0.1733	0.0500	0	1	1.997	50	0	0
18	1	630	0	1	1	0.1733	0.0500	1	1	0.552	8	82	0
18	1	631	0	2	1	0.1733	0.0500	0	0	0.427	0	82	82
18	1	632	0	1	3	0.1733	0.0500	0	1	0.661	7	82	82
18	1	633	0	2	2	0.1733	0.0500	1	1	0.677	7	0	82
18	1	634	0	2	3	0.1733	0.0500	0	1	0.746	6	82	82
18	1	635	1	1	3	0.1733	0.0500	1	1	0.534	82	0	82
18	1	636	0	1	3	0.1733	0.0500	1	1	0.906	5	82	0
18	1	637	1	2	2	0.1733	0.0500	1	1	0.622	73	82	0
18	1	638	0	2	2	0.1733	0.0500	0	1	0.606	7	82	82
18	1	639	0	2	2	0.1733	0.0500	0	1	0.600	7	82	82
18	1	640	9	2	2	0.1733	0.0500	0	1	0.531	0	82	82
18	1	641	0	1	3	0.1733	0.0500	0	1	0.583	8	82	82
18	1	642	1	1	3	0.1733	0.0500	1	1	0.553	80	0	82
18	1	643	1	2	2	0.1733	0.0500	0	1	0.562	79	0	0
18	1	644	9	2	3	0.1733	0.0500	1	1	1.015	0	82	0
18	1	645	1	2	2	0.1733	0.0500	1	1	0.585	76	82	0
18	1	646	0	1	1	0.1733	0.0500	1	1	0.557	8	82	0
18	1	647	9	1	1	0.1733	0.0500	0	1	0.536	0	0	0
18	1	648	9	1	3	0.1733	0.0500	1	1	0.852	0	82	0
18	1	649	0	1	2	0.1733	0.0500	0	1	0.965	5	82	82
18	1	650	1	2	3	0.1733	0.0500	0	1	0.809	54	0	0
18	1	651	0	2	2	0.1733	0.0500	0	1	0.496	9	82	82
18	1	652	0	1	1	0.1733	0.0500	1	1	0.524	8	82	0
18	1	653	9	2	2	0.1733	0.0500	0	1	0.495	0	82	82
18	1	654	0	1	3	0.1733	0.0500	0	1	0.599	8	82	82
18	1	655	1	2	3	0.1733	0.0500	0	1	0.703	65	0	0
18	1	656	0	1	1	0.1733	0.0500	1	1	0.434	9	82	0
18	1	657	9	2	2	0.1733	0.0500	1	1	0.691	0	0	82
18	1	658	0	2	2	0.1733	0.0500	1	1	1.345	5	0	82
18	1	659	0	2	3	0.1733	0.0500	1	1	1.451	5	0	82
18	1	660	1	2	2	0.1733	0.0500	0	1	0.556	79	0	0
18	1	661	0	2	3	0.1733	0.0500	0	1	0.506	8	82	82
18	1	662	0	1	2	0.1733	0.0500	1	1	0.703	6	82	0
18	1	663	0	2	2	0.1733	0.0500	0	1	0.642	7	82	82
18	1	664	0	2	2	0.1733	0.0500	1	1	1.881	5	0	82
18	1	665	0	1	1	0.1733	0.0500	0	1	0.479	9	82	82
18	1	666	1	1	3	0.1733	0.0500	0	1	0.591	76	0	0
18	1	667	1	1	3	0.1733	0.0500	0	1	0.502	85	0	0
18	1	668	9	2	1	0.1733	0.0500	1	0	0.715	0	82	0
18	1	669	0	2	3	0.1733	0.0500	0	1	0.552	8	82	82
18	1	670	9	2	2	0.1733	0.0500	1	1	0.621	0	82	0
18	1	671	0	2	1	0.1733	0.0500	1	0	0.715	0	0	82
18	1	672	0	1	3	0.1733	0.0500	1	1	1.374	5	82	0
18	1	673	1	1	1	0.1733	0.0500	0	1	0.506	84	0	0
18	1	674	9	2	2	0.1733	0.0500	0	1	0.777	0	0	0
18	1	675	0	2	2	0.1733	0.0500	0	1	0.563	8	82	82
18	1	676	1	2	2	0.1733	0.0500	1	1	0.638	71	82	0
18	1	677	9	1	3	0.1733	0.0500	0	1	0.638	0	82	82
18	1	678	0	1	1	0.1733	0.0500	1	1	0.542	8	82	0
18	1	679	1	2	2	0.1733	0.0500	0	1	0.546	80	0	0
18	1	680	1	1	1	0.1733	0.0500	0	1	0.471	88	0	0
18	1	681	0	1	2	0.1733	0.0500	1	1	0.938	5	82	0
18	1	682	0	1	1	0.1733	0.0500	0	1	0.502	8	82	82
18	1	683	9	2	3	0.1733	0.0500	1	1	0.780	0	0	82
18	1	684	9	2	3	0.1733	0.0500	1	1	0.925	0	82	0
18	1	685	0	2	3	0.1733	0.0500	1	0	1.467	0	0	82
18	1	686	9	2	2	0.1733	0.0500	1	1	0.600	0	82	0
18	1	687	0	1	2	0.1733	0.0500	1	1	1.138	5	82	0
18	1	688	0	1	3	0.1733	0.0500	1	1	0.599	8	82	0
18	1	689	0	1	1	0.1733	0.0500	1	1	0.489	9	82	0
18	1	690	0	2	3	0.1733	0.0500	1	0	0.935	0	0	82
18	1	691	1	1	1	0.1733	0.0500	1	1	0.485	87	0	82
18	1	692	0	1	1	0.1733	0.0500	1	1	0.539	8	82	0
18	1	693	9	2	3	0.1733	0.0500	0	1	0.585	0	82	82
18	1	694	1	1	3	0.1733	0.0500	1	1	0.564	79	0	82
18	1	695	0	2	3	0.1733	0.0500	1	1	0.943	5	0	82
18	1	696	9	2	2	0.1733	0.0500	0	1	0.516	0	0	0
18	1	697	1	1	1	0.1733	0.0500	0	1	0.415	93	0	0
18	1	698	0	2	2	0.1733	0.0500	0	0	1.945	0	82	82
18	1	699	0	2	3	0.1733	0.0500	0	1	0.582	8	82	82
18	1	700	9	2	2	0.1733	0.0500	1	1	0.912	0	0	82
18	1	701	0	1	1	0.1733	0.0500	0	1	0.567	8	82	82
18	1	702	0	1	3	0.1733	0.0500	1	1	0.644	7	82	0
18	1	703	1	1	1	0.1733	0.0500	1	1	0.596	75	0	82
18	1	704	1	1	1	0.1733	0.0500	0	1	0.436	91	0	0
18	1	705	9	2	2	0.1733	0.0500	0	1	0.556	0	0	0
18	1	706	1	1	2	0.1733	0.0500	1	1	1.383	50	0	82
18	1	707	1	2	2	0.1733	0.0500	0	1	0.643	71	0	0
18	1	708	1	2	2	0.1733	0.0500	1	0	0.649	0	82	0
18	1	709	1	1	3	0.1733	0.0500	0	1	0.624	73	0	0
18	1	710	9	2	3	0.1733	0.0500	0	1	0.946	0	82	82
18	1	711	1	1	3	0.1733	0.0500	0	1	0.686	66	0	0
18	1	712	0	1	1	0.1733	0.0500	0	1	0.587	8	82	82
18	1	713	1	1	3	0.1733	0.0500	1	1	0.893	50	0	82
18	1	714	0	2	3	0.1733	0.0500	1	1	2.658	5	0	82
18	1	715	0	1	1	0.1733	0.0500	1	1	0.791	6	82	0
18	1	716	9	1	3	0.1733	0.0500	1	1	0.776	0	0	82
18	1	717	1	1	3	0.1733	0.0500	1	1	0.978	50	0	82
18	1	718	0	2	3	0.1733	0.0500	0	1	0.578	8	82	82
18	1	719	0	1	2	0.1733	0.0500	0	1	0.947	5	82	82
18	1	720	1	1	3	0.1733	0.0500	0	1	0.557	79	0	0
